time,seconds_elapsed,z,y,x
1667857268065450800,0.05345068359375,-0.1871475424647331,-0.14589564075246453,0.11334916967377066
1667857268075470600,0.063470703125,-0.14669512056708334,-0.060323389668017625,0.09911438115946948
1667857268085491700,0.07349169921875,-0.1372170981258154,0.000045592707395553586,0.0653830842103809
1667857268095511600,0.083511474609375,-0.07287702016234397,0.04481806976124644,0.015012129562348127
1667857268105532700,0.09353271484375,0.029815877071022987,0.04574760569632053,-0.02707856106162071
1667857268115552800,0.103552734375,0.16970014857947827,0.08200593690499663,-0.029930498160328715
1667857268125573600,0.11357373046875,0.2777905209422111,0.09725684365928172,-0.03311511954581365
1667857268135593700,0.12359375,0.25588556312620636,0.08607669347524642,-0.03686294603832066
1667857268145614600,0.133614501953125,0.22484628174006938,0.05079144508242607,-0.016560966439545154
1667857268155634700,0.143634765625,0.198804077988863,0.004450841929018497,-0.030302564609423276
1667857268165655600,0.153655517578125,0.13371464296281338,-0.03701090314164757,-0.03727138070873916
1667857268175675600,0.163675537109375,-0.004057750958204269,-0.03642550446912646,-0.014340112052299082
1667857268185696500,0.173696533203125,-0.09009937312006949,-0.007507891412079334,-0.008445756784081458
1667857268195716600,0.183716552734375,-0.09272738353610038,0.03598419044241309,0.011277911470085382
1667857268205737500,0.193737548828125,-0.07350596571564674,0.06952595616877079,-0.01704633880369365
1667857268215757600,0.203757568359375,-0.030642975544929504,0.08158157401308416,-0.012310834714397787
1667857268225778700,0.21377880859375,0.004744564178586006,0.06683101799637078,0.01917502139545977
1667857268235798500,0.223798583984375,-0.015659341424703595,-0.019911153650283814,-0.008971826484799385
1667857268245819600,0.233819580078125,-0.12647826196849346,-0.12867591814324258,-0.08330291791297495
1667857268255839500,0.243839599609375,-0.22197101856470106,-0.1853510144367814,-0.18267514629103243
1667857268265860600,0.253860595703125,-0.3339268341839313,-0.1633526792488992,-0.3227848605858162
1667857268275880400,0.26388037109375,-0.38399113403558727,-0.08481661041155457,-0.3736450600555166
1667857268285901600,0.273901611328125,-0.24873335328400134,0.05100654913783073,-0.3566091695806011
1667857268295921700,0.283921630859375,0.10669687217772006,0.24527356821894644,-0.3342815659057349
1667857268305942500,0.293942626953125,0.5037573311448097,0.3994219274014234,-0.25785028732791543
1667857268315962600,0.303962646484375,0.8302882098585367,0.4748576921358704,-0.18328425463270395
1667857268325983500,0.3139833984375,1.0922884564727544,0.35965120415762064,-0.1690902730528265
1667857268336004600,0.324004638671875,1.0865069504618645,0.1065891740195453,-0.14400843876637517
1667857268346024400,0.3340244140625,0.8846475765556097,-0.17752660442143678,-0.07712028375528752
1667857268356045800,0.3440458984375,0.6055787062406539,-0.3606852233804762,0.07022504434883595
1667857268366065400,0.3540654296875,0.33546880292892456,-0.45949221909120674,0.275341958746314
1667857268376086800,0.364086669921875,0.056709729215502734,-0.600379091770947,0.46459436453580855
1667857268386106600,0.374106689453125,-0.21858020708262918,-0.8007346369855105,0.5400886545244604
1667857268396127700,0.384127685546875,-0.36835926513969897,-0.9995242480576038,0.5333101003002375
1667857268406147800,0.39414794921875,-0.35284020896852014,-1.1028744401559234,0.43837234723828733
1667857268416168700,0.404168701171875,-0.2820002475917339,-1.0624354622617362,0.38973596129789945
1667857268426188800,0.414188720703125,-0.08617547767460346,-0.9691504448428749,0.28851763012912124
1667857268436209700,0.424209716796875,0.314050167325139,-0.8926939587585627,0.15259787833746521
1667857268446229800,0.434229736328125,0.8556225576013327,-0.8502288818642496,0.07674429004974663
1667857268456250600,0.444250732421875,1.3533487918883562,-0.8965673661258071,0.06678027418982237
1667857268466270700,0.454270751953125,1.5876111367493866,-1.079905652500689,0.10783146569821983
1667857268476291600,0.46429150390625,1.692524632641673,-1.2818190946817398,0.2323649137418717
1667857268486311700,0.474311767578125,1.7691338250696658,-1.3315090082630514,0.4359176840951666
1667857268496332500,0.48433251953125,1.612006742337346,-1.3435551276266573,0.4586904742542654
1667857268506352600,0.4943525390625,1.4442244100779293,-1.3664062802515924,0.3378918653573841
1667857268516373800,0.504373779296875,1.2702876468420028,-1.3149538870424031,0.33279980291537936
1667857268526393600,0.5143935546875,1.1858335861325264,-1.1930829727388919,0.33603469318337736
1667857268536414700,0.524414794921875,1.1344564501166343,-1.0784914748538286,0.3091002167675644
1667857268546434600,0.5344345703125,1.2218261060118674,-1.0653723924964666,0.2946905100777745
1667857268556455700,0.54445556640625,1.346262048497796,-1.1264354215506465,0.16692407146226615
1667857268566475500,0.5544755859375,1.4657991130262613,-1.0702744853243231,-0.03422174734715372
1667857268576496600,0.56449658203125,1.4601152221709488,-0.9174841896872967,-0.29569950445722787
1667857268586516700,0.574516845703125,1.3802730391710996,-0.8008385357514023,-0.421387456298247
1667857268596537600,0.58453759765625,1.1699901203125715,-0.8642445477351546,-0.39234723977483804
1667857268606557700,0.5945576171875,0.6968459540963172,-0.9090081108301877,-0.3173410986293107
1667857268616578600,0.60457861328125,0.174622407412529,-0.9071982118640094,-0.22988756384290754
1667857268626598700,0.6145986328125,-0.4781295534133911,-0.9527829551488161,-0.09410197809124365
1667857268636619500,0.62461962890625,-1.433299695959687,-0.8892604771785437,-0.1430432835286483
1667857268646640600,0.634640625,-2.1273533889889715,-0.6649097238704562,-0.3611808248776942
1667857268656660500,0.644660400390625,-2.321134085857868,-0.4465160523358732,-0.32426125328131017
1667857268666681600,0.654681640625,-2.182266297915578,-0.2616894270993769,-0.2090575052494183
1667857268676701400,0.664701416015625,-2.0364678339272735,-0.18749741534832864,-0.006268412744998932
1667857268686722600,0.67472265625,-1.8654454968333243,-0.044705001308210195,0.24756312219453974
1667857268696742700,0.68474267578125,-1.6776409517645834,0.1470620541833341,0.030962946480605748
1667857268706763500,0.694763427734375,-1.2777163355380297,0.42207123731132595,-0.3539144871365279
1667857268716783600,0.70478369140625,-0.5377426028549671,1.0121652645744383,-0.5461547861630097
1667857268726804500,0.714804443359375,0.06483925965726375,1.6427647225640714,-0.5898661367913708
1667857268736824600,0.724824462890625,0.39499358956515784,1.9022735907539725,-0.6617214492231607
1667857268746845700,0.734845703125,0.6407435431241989,1.9810044515110552,-0.8270312538892031
1667857268756865500,0.744865478515625,1.2115016958743332,2.16372351000905,-0.7489119491592049
1667857268766886700,0.75488671875,0.8230167575508356,2.0355757073931393,-0.23904344165772198
1667857268776906800,0.76490673828125,0.12400807246267795,1.603273108522594,-0.1049053856510669
1667857268786927600,0.774927734375,-0.07411737561225891,1.0454933875501156,-0.011331395222991704
1667857268796947700,0.78494775390625,-0.8064701118975878,0.8917221911169588,0.1623831766296178
1667857268806968600,0.794968505859375,-1.5676836164861916,0.7557914795398711,0.47197987167723476
1667857268816988700,0.80498876953125,-1.8322955069035292,0.44619639192745086,0.6944796633563936
1667857268827009800,0.815009765625,-1.2172305949151516,0.025176453767344353,0.7882562636844813
1667857268837029600,0.825029541015625,-0.05319850622415542,-0.1289561233241111,0.7725530100528151
1667857268847050800,0.83505078125,1.1418488984555006,0.4524636356286704,0.6004419278740882
1667857268857070600,0.845070556640625,1.7703765186071394,0.6013759207885712,0.42966253269053994
1667857268867091700,0.855091796875,2.0594857214212414,0.292672594384104,0.27628939566425975
1667857268877111600,0.865111572265625,1.9275556237876414,0.32951259793825444,0.3447928769174963
1667857268887132700,0.875132568359375,1.3870482323944568,1.0601661290902644,-0.05587452050037682
1667857268897152800,0.88515283203125,1.3777128332942723,0.9785444422625005,-0.062160030510649084
1667857268907173600,0.895173583984375,0.7785527619242668,1.0607539389155805,-0.2664324569080025
1667857268917193700,0.90519384765625,0.06099719727635383,1.0028013700321317,-0.28695706628151235
1667857268927214600,0.915214599609375,-0.6347779127180576,0.9937392349153756,-0.09033756579011679
1667857268937234700,0.925234619140625,-1.2229115631610155,1.0016616984777151,0.07854498279616236
1667857268947255600,0.935255615234375,-1.770241494050622,0.8451002868041395,0.11417663347385823
1667857268957276700,0.945276611328125,-1.9545891766637562,0.661396455052495,0.1780370381616056
1667857268967296500,0.955296630859375,-1.815898498854041,0.5476914576783776,0.21549217793941497
1667857268977317600,0.965317626953125,-1.451774679327011,0.48594534173086285,-0.020913900952041146
1667857268987337500,0.97533740234375,-1.054500285348296,0.45992549594193693,-0.18889942763336
1667857268997358600,0.985358642578125,-0.7931056034117937,0.4754387068942189,-0.14336250554565338
1667857269007378700,0.995378662109375,-0.6404518667012453,0.506819056802988,-0.07396331756170839
1667857269017399600,1.005399658203125,-0.4835036476671695,0.4773619300417602,-0.004669526180997491
1667857269027419600,1.015419677734375,-0.30471769083440303,0.2874913923539221,0.03944119902849197
1667857269037440500,1.0254404296875,-0.2649216870188713,0.1475879777535796,0.0635859716605395
1667857269047460600,1.035460693359375,-0.27259353682100773,0.1268032561391592,0.051293330189958214
1667857269057481000,1.04548095703125,-0.32984511782824993,0.14776508788615464,0.06191149910967797
1667857269067501000,1.0555009765625,-0.5142758025497198,0.13177446868047119,0.0860880185868591
1667857269077522000,1.06552197265625,-0.5597258866041899,0.10674582588598132,0.13199644086807966
1667857269087542000,1.0755419921875,-0.5613105254471301,0.12061112350076436,0.1040722958277911
1667857269097563100,1.085563232421875,-0.5386883592724799,0.20674963016584513,0.00969846025891602
1667857269107583000,1.0955830078125,-0.5223252534925937,0.2677840907126665,-0.003596015197969973
1667857269117604000,1.10560400390625,-0.3886982888132334,0.2725496976792812,0.062069941074401135
1667857269127624000,1.1156240234375,-0.3035474780112505,0.21695552849024533,0.10332681122273206
1667857269137645000,1.12564501953125,-0.2202449254244566,0.20641616042777894,0.09776680247541517
1667857269147665000,1.135664794921875,-0.15764906077980995,0.20530586109831928,-0.0013145897299051284
1667857269157686000,1.14568603515625,-0.17034370718002317,0.18294892173111438,-0.019708178424090145
1667857269167706000,1.1557060546875,-0.26911095540225505,0.10218246349319815,-0.03263119022008031
1667857269177727000,1.16572705078125,-0.3746925598144531,0.10314926269873977,0.03572254383154213
1667857269187747000,1.1757470703125,-0.405787955302,0.07727320929467678,0.07391995334401727
1667857269197768000,1.185767822265625,-0.350889659422636,0.04466010272055864,0.08449307754561304
1667857269207788000,1.1957880859375,-0.18939269104301928,-0.008449702306836842,0.09828275264091789
1667857269217809000,1.205808837890625,-0.0007119476616382598,0.007454115398228168,0.08924560583494603
1667857269227829000,1.2158291015625,0.0938724619179964,0.056099926754087204,0.003971826240420341
1667857269237849900,1.225849853515625,0.08376490940153598,0.084143021998927,-0.07587948991395532
1667857269247870000,1.235869873046875,0.0217372000336647,0.13497151115611195,-0.07701444876063615
1667857269257890800,1.245890869140625,-0.13547931454777717,0.16148272065855562,-0.10350362909436225
1667857269267912000,1.255911865234375,-0.24420506220459937,0.17880283490233123,-0.12153295105341821
1667857269277932000,1.26593212890625,-0.28837621236443517,0.21448665415868162,-0.10194796061757952
1667857269287953000,1.275952880859375,-0.3293015124708414,0.22825440968312322,-0.05473422789145261
1667857269297973000,1.285972900390625,-0.3478355325490236,0.2013560274939984,-0.05066157162506133
1667857269307993900,1.295993896484375,-0.24252280820608138,0.14459106095992028,-0.02576718620210886
1667857269318014000,1.306013916015625,-0.1739589750677347,0.08434205170236528,-0.013177242285385728
1667857269328034800,1.316034912109375,-0.12432312976121902,0.1177374677605927,-0.007790288550034165
1667857269338055000,1.326054931640625,-0.15090426269471643,0.19369148421548305,0.007380575237981975
1667857269348076000,1.336075927734375,-0.23928338789343834,0.15813114520832897,0.0422531146440655
1667857269358096000,1.346095947265625,-0.22818857790529726,0.10503551483675837,0.01895670246966183
1667857269368117000,1.356116943359375,-0.12018354573845863,0.11000563139952718,-0.04504354908019304
1667857269378136800,1.36613671875,0.027936639195680617,0.15774682206586002,-0.08537588826213031
1667857269388158200,1.376158203125,0.2253811192691326,0.19183606560714542,-0.10261310999542474
1667857269398178000,1.386177978515625,0.33228257410824297,0.23655326880980282,-0.14596132639981804
1667857269408199200,1.39619921875,0.34711481705904007,0.2490525753010064,-0.17690881958296523
1667857269418219000,1.406218994140625,0.3982885394573211,0.24081304514613,-0.11945422681691124
1667857269428240100,1.416240234375,0.4121984068661928,0.29981227353829887,-0.07606947779441252
1667857269438260000,1.426260009765625,0.3649041562497616,0.3287581993743777,-0.0958477075137198
1667857269448281000,1.436281005859375,0.34880174723267554,0.37564686486460264,-0.08195128410831093
1667857269458301200,1.44630126953125,0.33611353057324883,0.4074383528575301,-0.06653176105516032
1667857269468322000,1.456322021484375,0.36696167330145835,0.41525951146986334,-0.02593003034731373
1667857269478342100,1.466342041015625,0.37639702564477917,0.4399106992540881,-0.015802494488749652
1667857269488363000,1.476363037109375,0.3235813812583685,0.4315311761066317,-0.04781400017421692
1667857269498383000,1.486383056640625,0.25477380249202247,0.44444373957384375,-0.04971818982772529
1667857269508404000,1.496404052734375,0.18534312339127063,0.4432958481803536,-0.050991698628570885
1667857269518424000,1.506424072265625,0.11016425602734088,0.46459356081821024,-0.04603341863406822
1667857269528445000,1.51644482421875,0.07052490407824516,0.41762200281750406,-0.08805077002719044
1667857269538465000,1.526465087890625,0.11535831753909587,0.3460593897219747,-0.08168360961545258
1667857269548486000,1.53648583984375,0.16120879908800123,0.2719938356284983,-0.10192563918791711
1667857269558506000,1.546506103515625,0.2441992169857025,0.1847391113498248,-0.12344972619386389
1667857269568527000,1.556527099609375,0.26803075895011425,0.08056306288661434,-0.12554275295035913
1667857269578547000,1.566546875,0.2601046421259641,-0.02509286713711917,-0.036337223397474736
1667857269588568000,1.576568115234375,0.21818974646031855,-0.12971987423822284,0.03697305534929037
1667857269598588000,1.586587890625,0.21502163781821726,-0.25866675480995327,-0.004646419300045818
1667857269608609000,1.596609130859375,0.2383312017351389,-0.3517090860467404,-0.04934394968785345
1667857269618628900,1.60662890625,0.2749778016090393,-0.43092714579887686,-0.017019615193549543
1667857269628650000,1.61664990234375,0.3800894504219293,-0.5382428439946845,-0.03560191312655806
1667857269638670000,1.626670166015625,0.517061633875966,-0.6047439724495635,-0.04885643103239126
1667857269648691000,1.63669091796875,0.6014005437731742,-0.6444342874009161,-0.051652591956406826
1667857269658711800,1.6467119140625,0.5810439844429492,-0.7032534830510616,-0.07583696594648062
1667857269668732000,1.65673193359375,0.5061088627070188,-0.7620082351628691,-0.03158308767294511
1667857269678753000,1.6667529296875,0.46308980519175524,-0.8032495424158871,-0.00018463585190474987
1667857269688772900,1.67677294921875,0.531301171630621,-0.838585936474055,0.005090126213245094
1667857269698794000,1.6867939453125,0.652533934161067,-0.8596985018033534,0.01062424246747978
1667857269708813800,1.696813720703125,0.7418050397634506,-0.8601366740249097,0.03948887409511953
1667857269718835000,1.7068349609375,0.775458303040266,-0.8165861399814486,0.12077681719018146
1667857269728854800,1.716854736328125,0.7948691059529781,-0.6767783677753061,0.20285536267366258
1667857269738876200,1.726876220703125,0.7158283024638891,-0.5205556500041857,0.26507649398809296
1667857269748896000,1.73689599609375,0.5240536847203969,-0.41697037050835783,0.2573261538559571
1667857269758917000,1.746917236328125,0.3829027542769909,-0.339106574909389,0.19756580489818007
1667857269768937000,1.75693701171875,0.29228198763132096,-0.2563473902179859,0.18484456275198607
1667857269778958000,1.7669580078125,0.24105098208785056,-0.08966430617105216,0.24994455570466814
1667857269788978200,1.776978271484375,0.2866021884292364,-0.0467634819077095,0.1609985173381865
1667857269798999000,1.7869990234375,0.4924930098086595,-0.07979006008696742,0.02822243386711925
1667857269809019100,1.79701904296875,0.7480003872722387,-0.14724437021398917,-0.0012320625456050038
1667857269819040000,1.8070400390625,0.9995645800679922,-0.1416306950506754,-0.04166002585543319
1667857269829060000,1.81706005859375,1.1374176380097865,-0.1720220156557858,-0.1946178783454001
1667857269839081000,1.8270810546875,1.0876952834635973,-0.3940609118249267,-0.3012765739372
1667857269849101000,1.83710107421875,0.5814432128936052,-0.8055707519050687,-0.2822776397610083
1667857269859122000,1.847121826171875,-0.3778080614864826,-1.506398834440112,-0.39411366492547095
1667857269869142000,1.85714208984375,-1.4745786318093537,-2.1142187437362967,-0.26516039114557205
1667857269879163100,1.8671630859375,-2.4999498533070086,-2.3506451347634196,-0.3097701884509995
1667857269889183000,1.877182861328125,-3.3416473459303377,-1.9246610713899135,-0.4907741501267999
1667857269899204000,1.8872041015625,-3.188244252157211,-1.206515797220543,-0.7902586895480751
1667857269909224000,1.897223876953125,-1.7337264116019009,-0.7054998006731271,-0.825251603930816
1667857269919245000,1.9072451171875,0.38048108008801934,-0.47994661277271805,-0.49722084204815326
1667857269929265000,1.917264892578125,2.404218611779809,-0.4839230421230197,-0.26291228342521933
1667857269939286000,1.9272861328125,3.7206694593816994,-0.9390615229841321,-0.12942293711826205
1667857269949306000,1.93730615234375,3.9971073966711756,-1.5109543057873844,0.13553667075820267
1667857269959327000,1.947326904296875,2.9251673162221907,-1.7827061310872434,0.547995518658869
1667857269969347000,1.95734716796875,0.5164677596360445,-1.5331078315369784,1.0405457750800997
1667857269979368000,1.967367919921875,-2.5426877557933327,-0.9126204561084509,1.053221351453662
1667857269989388000,1.977387939453125,-4.790400631609558,-0.32920740444660185,0.6610954993445426
1667857269999409000,1.987408935546875,-5.7672869314014905,0.167788031347841,0.33704189746454355
1667857270009429000,1.997428955078125,-6.036459261602163,0.44061260044574735,0.1869678750488907
1667857270019449900,2.007449951171875,-5.902180555015802,0.6566995294079184,0.2990744973156601
1667857270029470000,2.017469970703125,-5.1714703252404925,0.9031362961873411,0.7376535461071878
1667857270039490800,2.02749072265625,-4.156145281460881,1.084327560596168,1.0897869219806045
1667857270049511000,2.037510986328125,-3.0425305438429113,1.5540867605492472,1.3544124755971132
1667857270059532300,2.0475322265625,-2.0240128415018317,1.97237442420125,1.3217843175843358
1667857270069552400,2.057552490234375,-1.456105402007699,2.254976729339361,1.1562284292027354
1667857270079573500,2.067573486328125,-1.3804846360951661,2.342850827625394,0.6828695242572576
1667857270089593300,2.07759326171875,-1.9282658178836105,2.2970991302758454,0.10516717839241027
1667857270099614500,2.087614501953125,-2.9981524729341267,2.240414243240654,-0.40812070909850295
1667857270109634300,2.09763427734375,-4.358732969641685,2.0760895040892065,-0.7745058976862579
1667857270119655400,2.107655517578125,-5.7850639956325285,1.7884606029607355,-0.5466552464984357
1667857270129676500,2.117676513671875,-6.844371389001608,1.4928130844190717,0.1051315225571394
1667857270139696600,2.127696533203125,-7.335659114673733,1.1091342312030494,0.08845131365209817
1667857270149717500,2.137717529296875,-7.1684034366369245,0.7266811203896999,-0.0016630378413945435
1667857270159737600,2.147737548828125,-6.3774880367457865,0.5896234506092966,0.12924407342001795
1667857270169758500,2.157758544921875,-5.46209986948967,0.4244219286233186,0.2270383118916303
1667857270179778600,2.167778564453125,-4.215276684865355,0.5074249137416482,0.3676470982823521
1667857270189799400,2.17779931640625,-2.8644337383180853,0.3437539623238146,0.19499211848527193
1667857270199819500,2.187819580078125,-2.142484907147288,0.16718217440918087,0.34307021784335373
1667857270209840600,2.197840576171875,-1.8462977287709712,0.1306195995569229,0.5996006547443569
1667857270219860500,2.207860595703125,-1.7484499334812162,0.17321780131161213,0.6574272591605782
1667857270229881600,2.217881591796875,-1.705318647763133,0.13947189131528137,0.6117752958584577
1667857270239901400,2.2279013671875,-1.6089216358035803,-0.0028973288767039774,0.5790823289811611
1667857270249922600,2.237922607421875,-1.4159446565330027,-0.07048954050391912,0.5587066265590489
1667857270259942700,2.247942626953125,-0.8734609966307878,-0.19528204134255647,0.4921091981228441
1667857270269963500,2.257963623046875,-0.2746294265627861,-0.32857086010873315,0.4578498587116599
1667857270279983600,2.267983642578125,0.19477964477837084,-0.4261106123626232,0.3895924611739814
1667857270290004500,2.27800439453125,0.5248989033728838,-0.4677617425255477,0.3996902960140258
1667857270300024600,2.288024658203125,0.6835778917223214,-0.4036734473660588,0.4422999690108001
1667857270310045400,2.29804541015625,0.9417249700397252,-0.3797928055629134,0.4253497109927237
1667857270320065500,2.3080654296875,1.2754302704274654,-0.4137200634755194,0.35160467582419513
1667857270330086400,2.31808642578125,1.6482441768884657,-0.46463235845863815,0.2680770092446357
1667857270340106500,2.3281064453125,2.0936732377052305,-0.5287213842704892,0.23558058785274624
1667857270350127400,2.33812744140625,2.6039818901896474,-0.5362893353067338,0.15819610020332037
1667857270360147500,2.3481474609375,3.1054192539542913,-0.47822468435093757,0.05324680234529078
1667857270370168300,2.358168212890625,3.4225814158201215,-0.4237465135797858,0.050257776597142215
1667857270380188400,2.3681884765625,3.4659909339576958,-0.43397133580036457,0.07755385286696255
1667857270390209500,2.37820947265625,3.403587961536646,-0.5212267907314002,0.0813272339258343
1667857270400229400,2.3882294921875,3.249694453898072,-0.5433519671693444,0.1181769551564008
1667857270410250500,2.39825048828125,3.1210996381670233,-0.489330015733093,0.07999255125597118
1667857270420270300,2.408270263671875,2.9103210447460413,-0.4293872228804976,-0.10225267918519675
1667857270430291500,2.41829150390625,2.640131646457314,-0.3132594553388655,-0.21552644553519784
1667857270440311600,2.4283115234375,2.4758821644991635,-0.2466438336588442,-0.24927425522767005
1667857270450332400,2.43833251953125,2.4466297665297985,-0.21664587801918386,-0.16613967961892484
1667857270460352500,2.4483525390625,2.469974986281991,-0.16011128617487846,-0.026752982369065283
1667857270470373400,2.458373291015625,2.5775328592032194,-0.06831245219316333,0.010632599303871393
1667857270480393500,2.4683935546875,2.722399595299363,0.015497282730787992,-0.03650331894569099
1667857270490414300,2.478414306640625,2.9420155751705166,0.07894231155067682,-0.08788798068091273
1667857270500434400,2.488434326171875,3.165590521800518,0.10592798843076452,-0.05800218017883599
1667857270510455300,2.498455322265625,3.1954046453058718,0.0939919601118192,-0.012874606077000498
1667857270520475400,2.508475341796875,3.2021500279128547,0.09307512839469127,0.009300912308692932
1667857270530496500,2.51849658203125,3.1591736404955384,0.1306735217012465,0.01595956648029387
1667857270540516400,2.528516357421875,3.045990913429856,0.19903529292885214,0.03497143320329487
1667857270550537500,2.538537353515625,2.9008225640386343,0.26012630596850067,0.027983547077327964
1667857270560557600,2.5485576171875,2.8320629160672426,0.3045574222387746,0.021647329793125388
1667857270570578700,2.55857861328125,2.782005045956373,0.324531521590054,0.056988326961174604
1667857270580598500,2.5685986328125,2.637961316680908,0.399135146349296,0.12219766203984618
1667857270590619600,2.57861962890625,2.390557750695944,0.44761038691122085,0.12545198766067622
1667857270600639500,2.588639404296875,1.9496815308779476,0.5311288838036358,0.06625197599940001
1667857270610660600,2.59866064453125,1.5904542512208222,0.5588591867722571,-0.054564606945589185
1667857270620680400,2.608680419921875,1.3845546620130538,0.6294780527442694,-0.10716872747316956
1667857270630701600,2.61870166015625,1.1868231816917658,0.7010320076093077,-0.1410436706766486
1667857270640721700,2.6287216796875,0.9946148487061262,0.8035213450945913,-0.15059110509231685
1667857270650742500,2.638742431640625,0.7055564992964267,0.8062137990489602,-0.1928566408265382
1667857270660762600,2.6487626953125,0.4475982215493917,0.8160825743734836,-0.26007410085722804
1667857270670783500,2.658783447265625,0.34959845056831834,0.7976333099693059,-0.2873661585390568
1667857270680803600,2.668803466796875,0.3154647102981806,0.7732185612894594,-0.3655531216777861
1667857270690824400,2.678824462890625,0.32385201489329335,0.7662348398819565,-0.41340310648083683
1667857270700844500,2.688844482421875,0.30702947490811344,0.7347539522081613,-0.5002374864555895
1667857270710865400,2.698865478515625,0.39342064116001124,0.6886041954517365,-0.5679485021568834
1667857270720886500,2.708886474609375,0.4620201301336288,0.6571713847033679,-0.5658357477866113
1667857270730906400,2.71890625,0.3195253838658333,0.6523544859409331,-0.6172571613356471
1667857270740926500,2.728926513671875,0.1514770941466093,0.6837313287183642,-0.6752580994054674
1667857270750947600,2.738947509765625,0.007634440401196479,0.6583418897874653,-0.8135910498186946
1667857270760968400,2.748968505859375,0.04424772252738476,0.6213970376193523,-1.022687389241159
1667857270770988500,2.758988525390625,0.24778818138837813,0.6331773456536233,-1.1442030603662132
1667857270781009400,2.769009521484375,0.2813730556041002,0.6668988518610596,-1.2438104126743972
1667857270791029500,2.779029541015625,0.316034619140625,0.5965929242957383,-1.3458482069998978
1667857270801050400,2.78905029296875,0.49512335831224913,0.5233978511601686,-1.3847361560598015
1667857270811070500,2.799070556640625,0.6343757616579532,0.5070736891511828,-1.3134813302718102
1667857270821091300,2.80909130859375,0.6320622240185737,0.4754854321127757,-1.170632217608392
1667857270831111400,2.819111328125,0.468325367757678,0.4204293883884325,-1.1084906726025043
1667857270841132300,2.82913232421875,0.233345814538002,0.2130405835362151,-1.0718472875989973
1667857270851152400,2.83915234375,-0.015908347749710082,-0.12148991562929004,-1.034984122364968
1667857270861173500,2.849173583984375,-0.2650631413161754,-0.542979955519177,-1.0250365827158092
1667857270871193300,2.859193359375,-0.5089671747475862,-0.9367478392142802,-0.9654133041411638
1667857270881214500,2.86921435546875,-0.7330734517753124,-1.2060378775104879,-0.9041739686720073
1667857270891234300,2.879234375,-0.6519505813151597,-1.413355516822636,-0.8323293602973222
1667857270901255400,2.88925537109375,-0.29868893206417557,-1.3996145762398837,-0.5154064140148461
1667857270911275300,2.899275146484375,0.1740729568362236,-1.1419349693037568,-0.08523848908543587
1667857270921296600,2.909296630859375,0.5322440054386854,-0.7698763381894678,0.059218497166037554
1667857270931316500,2.91931640625,0.5674152720630169,-0.3778904060076922,0.006618541356921195
1667857270941337600,2.929337646484375,0.39955227578282354,-0.04057604827731848,0.21904519424587487
1667857270951357700,2.939357666015625,0.2831236986637115,0.24299364058822392,0.6998094800770283
1667857270961378600,2.949378662109375,0.20980711804032323,0.4755258737210184,1.0393366184860466
1667857270971398700,2.959398681640625,0.08950549888014793,0.6190289202485233,1.1799912898451088
1667857270981419500,2.96941943359375,-0.09502513908445835,0.631259310137853,1.1550641346637158
1667857270991439600,2.979439697265625,-0.3491998066395521,0.5204818175829947,1.2099749977637082
1667857271001460500,2.98946044921875,-0.6649111851751804,0.24392799882888794,1.316793085168302
1667857271011480600,2.99948046875,-0.7433996154785156,-0.023354352906718848,1.44889503223747
1667857271021501400,3.00950146484375,-0.46507717961668965,-0.056339799924567335,1.5797826350808142
1667857271031521500,3.019521484375,0.08693243352174758,0.17992723582237957,1.6416523774079979
1667857271041542700,3.029542724609375,0.7340601247251033,0.6289367124091834,1.6766989947393536
1667857271051562500,3.0395625,1.2306313437581062,1.0870051092423498,1.7246581390053033
1667857271061584000,3.049583984375,1.38553139809072,1.3813959057211875,1.84466837400347
1667857271071603700,3.059603759765625,1.2750509157210588,1.5070318716466427,1.9067890223518014
1667857271081624800,3.069624755859375,1.0067296493917703,1.530150735297054,1.8535498918563127
1667857271091644700,3.079644775390625,0.6618821927428246,1.4480880997687577,1.6886814012169837
1667857271101666000,3.089666015625,0.432287839692831,1.2850662599094211,1.4810823146149514
1667857271111685600,3.099685546875,0.3411328200399875,1.1195572794094681,1.231623861926794
1667857271121707000,3.10970703125,0.3549725448220968,0.9660245679073035,0.9452888000011443
1667857271131727000,3.11972705078125,0.33138416396379466,0.8574167475417256,0.6798719498764723
1667857271141748000,3.129748046875,0.27989421522319313,0.7823707858424633,0.41600510567277665
1667857271151768000,3.13976806640625,0.26340017654001713,0.7072853689156472,0.1378632870748639
1667857271161789000,3.149788818359375,0.2821925552934408,0.582093639626354,-0.11213263349086046
1667857271171809000,3.15980908203125,0.2859264811247587,0.46911213422119613,-0.2917293221846223
1667857271181830000,3.169829833984375,0.23627017755210397,0.407718704168871,-0.3562321894943714
1667857271191850000,3.17985009765625,0.28986265152990814,0.305915083925426,-0.38584684490486976
1667857271201870800,3.189870849609375,0.5407645810246468,0.24690548026971518,-0.3664180679440498
1667857271211891000,3.199890869140625,0.951293008852005,0.25455668914262203,-0.45751697349548337
1667857271221911800,3.209911865234375,1.4168033191889524,0.30641576345656063,-0.38475919579863543
1667857271231932000,3.219931884765625,1.765347292268276,0.42951684060953554,-0.27701763687357306
1667857271241953000,3.229953125,1.8407278196841477,0.5436085357462987,-0.34454124024398625
1667857271251972900,3.239972900390625,1.6819237436503172,0.490765528428927,-0.3926420580029487
1667857271261994000,3.249993896484375,1.419167125710845,0.395486122322455,-0.3655490300245583
1667857271272013800,3.260013916015625,1.3204922319471835,0.2796039453060366,-0.3280951323557645
1667857271282035000,3.270034912109375,1.4572382054299116,0.22535229503344742,-0.26763708345741033
1667857271292054800,3.2800546875,1.7852192829519509,0.17787240391811354,-0.17329473900534212
1667857271302076000,3.290075927734375,2.1706974406749007,0.21693709778441114,-0.09121610219031571
1667857271312096000,3.300095947265625,2.5558091031730172,0.2332031363979913,-0.10657076158002018
1667857271322116900,3.310116943359375,2.770352602085471,0.1552902044276707,-0.16497765010222792
1667857271332137700,3.3201376953125,2.7345751862615346,-0.03937392421225085,-0.19313786892071366
1667857271342157800,3.33015771484375,2.602185069900751,-0.1958168788716197,-0.1868161185532808
1667857271352178700,3.3401787109375,2.455222822830081,-0.2861066051983274,-0.19965974497012792
1667857271362198800,3.35019873046875,2.2990718916535378,-0.3377812445897609,-0.2421368045631796
1667857271372220000,3.360219970703125,2.5067753154128787,-0.4251893327992409,-0.09591697335764765
1667857271382239700,3.37023974609375,2.8460394189715386,-0.5219937565159052,0.006625263358652591
1667857271392260900,3.3802607421875,3.3472377132833,-0.5400717033896595,-0.0376922364693135
1667857271402280700,3.39028076171875,3.8382898766338824,-0.45414749706238505,-0.10246391078308224
1667857271412301800,3.4003017578125,4.18634226680398,-0.28760555678550154,-0.08363328237850219
1667857271422322000,3.410322021484375,4.467875481405854,-0.17115737991677596,-0.06280797302536666
1667857271432342800,3.4203427734375,4.630712758478522,-0.09791541716586798,0.04902059948500245
1667857271442363000,3.43036279296875,4.58343838160634,-0.025264990567322818,0.18901633201129733
1667857271452383700,3.4403837890625,4.609129287701845,0.0949975021588616,0.2745612566974014
1667857271462403800,3.45040380859375,4.747297402942181,0.30311157081201673,0.27838666020445524
1667857271472424700,3.4604248046875,4.815149288418889,0.5388452668672428,0.22748850334454326
1667857271482444800,3.47044482421875,4.785382511186599,0.7541630015552043,0.1776725156981498
1667857271492466000,3.4804658203125,4.797248890069127,0.9388126627895981,0.1479019756061956
1667857271502485800,3.49048583984375,4.778939910918474,1.1001307674709706,0.1943810008496046
1667857271512507000,3.5005068359375,4.55706767655313,1.2265044730864465,0.2672599755070172
1667857271522527000,3.51052685546875,4.054537256854772,1.364801913794875,0.2822093237651512
1667857271532547800,3.5205478515625,3.398894835284352,1.4994458004318176,0.1828879670578055
1667857271542568000,3.53056787109375,2.6081594681352374,1.515489026607573,0.168190748663526
1667857271552589000,3.540589111328125,1.5518161852687595,1.3098403434209525,0.1923922016525641
1667857271562609000,3.55060888671875,0.27307752094566823,0.8488675303831696,0.07356757797608152
1667857271572630000,3.560630126953125,-0.8560761465877295,0.45095001619532704,0.10152491289991884
1667857271582649900,3.57064990234375,-1.5988731199979782,0.14206399016771465,0.2729635391771793
1667857271592671000,3.5806708984375,-1.9959464384466408,-0.11061673076888545,0.28123357406817373
1667857271602690800,3.59069091796875,-1.8817448897272346,-0.15555983341559768,0.209152709252201
1667857271612712000,3.6007119140625,-1.7188631889909505,-0.04245705798463896,0.19382391495611517
1667857271622732000,3.61073193359375,-1.775474134007096,0.15986922104731202,0.22784937254618853
1667857271632753000,3.6207529296875,-1.9990572639435529,0.3315944091809913,0.16522713135126976
1667857271642773000,3.63077294921875,-2.419725977513194,0.5097575579402968,0.047932502854196354
1667857271652793900,3.6407939453125,-2.822365697917342,0.6540778026022016,-0.004235290349042043
1667857271662814000,3.65081396484375,-3.0533190643608568,0.7002467024505138,-0.0459826382949017
1667857271672834800,3.660834716796875,-3.3062463622033595,0.6133036014042794,-0.03276089928066358
1667857271682855000,3.67085498046875,-3.4683220072537657,0.43505197064392265,0.07826963645350188
1667857271692875800,3.680875732421875,-3.4829408997148272,0.21709088184032588,0.1223504049161449
1667857271702895900,3.690895751953125,-3.381261563438177,0.1307646705834195,0.13507093467628584
1667857271712916700,3.700916748046875,-3.326157515853643,0.12109297046726569,0.11280041321720927
1667857271722936800,3.710936767578125,-3.4990555836915966,0.12888662001816556,0.05237104242406785
1667857271732958000,3.7209580078125,-3.9117303758978843,0.07705302720535546,0.002598199799656868
1667857271742977800,3.730977783203125,-4.517057737725973,0.044005511269345876,-0.11329049828909336
1667857271752999000,3.7409990234375,-4.842579147136211,-0.0043991848070174455,-0.5433217181615531
1667857271763018800,3.751018798828125,-4.68189291061759,-1.4671736162498592,-3.850271698589623
1667857271773039900,3.761039794921875,-7.3806363205194465,-4.628057275533676,-9.05781257738173
1667857271783060700,3.771060791015625,-12.844665112245082,-4.186041530291736,-7.726409659841656
1667857271793080800,3.781080810546875,-15.530610999894142,-0.44838221153393387,-2.0909571106143297
1667857271803101700,3.791101806640625,-13.264758656275271,2.146499549616128,1.2024360536262393
1667857271813121800,3.801121826171875,-8.349622806972265,2.216606374412775,1.4352218961939214
1667857271823142700,3.811142578125,-3.518665708568692,1.6406518220633268,1.5042498397126793
1667857271833162800,3.821162841796875,0.08469897538125515,1.31166317493394,2.6594232069045303
1667857271843183900,3.831183837890625,2.4815607946574687,0.3614985855899751,4.506482275436818
1667857271853203700,3.84120361328125,2.978386865234375,-0.7388325998239219,5.948904312267899
1667857271863224800,3.851224853515625,1.3235381755143403,-1.029842083301395,5.057851544845104
1667857271873244700,3.86124462890625,-1.0263029493898153,-0.5643166484605521,2.706787600147724
1667857271883266000,3.87126611328125,-2.7374212233424187,-0.06492036206945777,0.5999272928828373
1667857271893285600,3.88128564453125,-3.4139690702974796,0.984826225945726,0.12980462991222738
1667857271903307000,3.89130712890625,-3.2740929820954796,1.9915978878483176,0.27464798513278366
1667857271913327000,3.9013271484375,-2.7793133226543665,1.7348076309673488,0.30148835352435704
1667857271923348000,3.911347900390625,-1.9589514635264873,1.0757616114985198,0.6225055833831429
1667857271933368000,3.9213681640625,-1.0646481698751449,0.9757808958332985,1.1152370781227945
1667857271943389000,3.931388916015625,-0.33118367295563217,1.1973157149378209,1.139152352847904
1667857271953409000,3.941408935546875,0.06142506729960441,1.4460763215549288,0.7502024273611605
1667857271963430000,3.951429931640625,0.5087608385205269,1.7849508412741124,0.18266330972276626
1667857271973450000,3.961449951171875,1.222067513552308,2.0511238435283303,-0.1990904571821913
1667857271983470800,3.971470947265625,2.1431050848722455,2.159580126594007,-0.559870811500214
1667857271993491000,3.981490966796875,3.126513479909301,2.115177505765855,-1.034344655417651
1667857272003511800,3.99151171875,3.718918816322088,2.0300771099768578,-1.2362589743815362
1667857272013532000,4.001531982421875,3.80940455841124,1.770349630600214,-1.4042448663890361
1667857272023552800,4.011552734375,3.755142806869745,1.2907814226858316,-1.5594070787891745
1667857272033572900,4.02157275390625,3.4569220768392084,0.6459928419545292,-1.4971128274396062
1667857272043594000,4.031593994140625,2.9059055663913487,-0.15888327874988317,-1.2874626535266638
1667857272053613800,4.04161376953125,2.1416671610236167,-0.9486803421355784,-1.0410185802236198
1667857272063634000,4.051634033203125,1.0846996087789536,-1.5672684598140418,-0.39471608779802914
1667857272073654000,4.061654052734375,0.11591828950941561,-2.007435362318903,-0.048775721345841884
1667857272083675100,4.071675048828125,-0.5621925689786672,-2.328788107742369,0.21196356542184946
1667857272093695000,4.081695068359375,-0.9900444720506667,-2.4589365826562046,0.47055692620202894
1667857272103716000,4.091716064453125,-1.1583651489704847,-2.413216741749644,0.7004225704740733
1667857272113736000,4.10173583984375,-1.1965683306366204,-2.269453729111701,0.8628286895878613
1667857272123757000,4.111757080078125,-1.288310794788599,-2.034233645134419,0.9199312905784696
1667857272133777200,4.121777099609375,-1.2471078467845915,-1.548227951518446,1.0573824166558683
1667857272143798000,4.131798095703125,-1.0169751490741967,-1.0749003915593027,0.9581116758909076
1667857272153818000,4.141818115234375,-0.7066530623614787,-0.7063496955007315,0.6591080518543719
1667857272163839000,4.1518388671875,-0.36160511470437046,-0.42587738812863823,0.3437487746920436
1667857272173859000,4.161859130859375,0.17158756976127623,-0.13677593022957443,0.08734561743251978
1667857272183880200,4.171880126953125,0.615498627230525,0.0871451994895935,-0.24370905884858218
1667857272193900000,4.181900146484375,0.9021440702795982,0.19680092147290706,-0.5873024968484416
1667857272203921200,4.191921142578125,1.0227578241288662,0.23702245722413062,-0.7917900638338178
1667857272213941000,4.20194091796875,0.8550479725837707,0.36715427326411004,-0.8844361988272518
1667857272223962000,4.211962158203125,0.4592494963765144,0.508775451567769,-0.9281196385353803
1667857272233983000,4.22198291015625,0.06166998197138309,0.6032353579849005,-1.0242480626866222
1667857272244003000,4.232003173828125,-0.3810053962230682,0.6774845432832837,-1.136544435371831
1667857272254024000,4.24202392578125,-0.8405851474672555,0.6979917631305754,-1.17331254273355
1667857272264044000,4.2520439453125,-1.1394418373137711,0.6758657099097967,-1.0996681183952837
1667857272274065000,4.26206494140625,-1.2963187446773052,0.6010340485483407,-0.9386058881711214
1667857272284085000,4.2720849609375,-1.27420920419991,0.5684159735381603,-0.7911554922573268
1667857272294106000,4.282106201171875,-0.9931558820694685,0.5154737801626325,-0.6837015181019902
1667857272304126000,4.2921259765625,-0.5966273380219936,0.4977990072622895,-0.5007945358164608
1667857272314147000,4.30214697265625,-0.2959568767517805,0.46744361648708577,-0.3632916064865887
1667857272324167000,4.3121669921875,-0.1294178225517273,0.4417053641185164,-0.3156084296178073
1667857272334188000,4.32218798828125,-0.1161105972111225,0.46716129241436716,-0.29949688744619485
1667857272344208100,4.3322080078125,-0.16300035867989063,0.5482394469499587,-0.199729083879292
1667857272354229000,4.34222900390625,-0.18170505914986132,0.6387143753841519,-0.03168110468732193
1667857272364249000,4.3522490234375,-0.2726151641309261,0.7234048751980066,0.1407438109472394
1667857272374270000,4.36227001953125,-0.5598392838507891,0.6814888104885816,0.13514379898309706
1667857272384290000,4.3722900390625,-1.2186480604976415,0.578522941532731,-0.08957052694037557
1667857272394311000,4.382310791015625,-1.5833096401631832,0.4070370785802602,-0.3204495129734278
1667857272404331000,4.3923310546875,-1.4113573287427426,0.3347211994320154,-0.2701286080121994
1667857272414352000,4.402351806640625,-1.0663812772780656,0.3842684896722436,-0.11073184504853562
1667857272424372000,4.4123720703125,-0.5840612864375114,0.3704308107167482,-0.03762289756014943
1667857272434392800,4.422392822265625,-0.0042728550136089324,0.35297231091558934,-0.03871288475394249
1667857272444413000,4.432412841796875,0.5049357272744178,0.34581951655149457,-0.060627194920182224
1667857272454433800,4.442433837890625,0.8785504287242889,0.38065351404547687,-0.02467734513878822
1667857272464454000,4.452453857421875,1.095073703277111,0.43712797320038077,-0.05028510299548507
1667857272474475300,4.462475341796875,1.202830313640833,0.4517421894863248,-0.12414748093336819
1667857272484494800,4.472494873046875,1.271978668668866,0.41025428706109524,-0.18692352445051072
1667857272494516200,4.48251611328125,1.2503051815211772,0.2352197917163372,-0.17764175523370504
1667857272504535800,4.492535888671875,1.1357155102670191,0.04629588722884655,-0.12457184382528066
1667857272514557200,4.50255712890625,1.077054062461853,-0.11186521472632885,0.0290659354865551
1667857272524577000,4.512576904296875,1.0124532877355814,-0.23673954862952232,0.1880047438159585
1667857272534598100,4.52259814453125,0.8865461036533117,-0.35357173811346293,0.33927097169086334
1667857272544618200,4.5326181640625,0.7556447645455598,-0.4285267335936427,0.4077146855808794
1667857272554639000,4.54263916015625,0.6682710169970989,-0.49057051731348034,0.432903341242671
1667857272564659200,4.5526591796875,0.581555441096425,-0.5786462756514549,0.4407406107395887
1667857272574680000,4.56268017578125,0.3785153329730034,-0.7257356562331319,0.44676425494328137
1667857272584700200,4.5727001953125,0.2027636292695999,-0.909677096132934,0.36877632150799033
1667857272594721000,4.582720947265625,0.07893149789571761,-1.0306985540002584,0.26983050184845925
1667857272604741000,4.5927412109375,-0.04339139795899391,-1.092764841812849,0.25616701041609047
1667857272614762000,4.602761962890625,-0.13877952513694763,-1.1380606120884418,0.25910408678129315
1667857272624782000,4.612781982421875,-0.18407003471553324,-1.184778524121642,0.2543580247653648
1667857272634803000,4.622802978515625,-0.16600655475854872,-1.1883116666838527,0.23409604838341475
1667857272644823000,4.632822998046875,-0.01877542761862278,-1.1369909370303153,0.212661046166718
1667857272654844200,4.64284423828125,0.11082885741591453,-1.0352692229166627,0.19809505293667315
1667857272664864000,4.652864013671875,0.18415595943331717,-0.9099094435840844,0.16927344760000704
1667857272674885000,4.662885009765625,0.29551497820317746,-0.8176011622428894,0.11918401330709456
1667857272684906000,4.672906005859375,0.42875206678211686,-0.6912666926592588,0.07382043849229812
1667857272694926000,4.682926025390625,0.41434184863567347,-0.56187955750674,0.0383777893143706
1667857272704947000,4.692947021484375,0.347288420060277,-0.43126141925454137,0.01601385395079851
1667857272714967000,4.702967041015625,0.30913901440799235,-0.28706776011437174,0.01760738848624751
1667857272724988000,4.71298779296875,0.31877135062813755,-0.18703356069624422,-0.027021570177376268
1667857272735008000,4.723008056640625,0.2966319995343685,-0.057039107300341126,-0.052465369644016026
1667857272745028900,4.73302880859375,0.2767231839716434,0.05248246690928936,-0.08089695274978875
1667857272755049000,4.743049072265625,0.33141163649260996,0.11671908449828625,-0.10942863522917032
1667857272765070000,4.753070068359375,0.4340612791061401,0.1316410515591502,-0.08343027061969041
1667857272775090000,4.76308984375,0.46001931170523164,0.0946326326355338,-0.03496931431144476
1667857272785111000,4.773111083984375,0.3894458923101425,0.013658815257251261,0.03355170259848237
1667857272795131000,4.783130859375,0.3661164546489715,-0.06884265007972717,0.09778510531708598
1667857272805152000,4.793152099609375,0.3667921619534492,-0.10817951195091008,0.17191241780146954
1667857272815171800,4.803171875,0.38409284084439277,-0.17303075430691242,0.1205161386936903
1667857272825193000,4.81319287109375,0.43566754525899887,-0.2484130352884531,0.05255122129656374
1667857272835213000,4.823213134765625,0.46797582366764545,-0.32046646410822865,-0.021934403106197712
1667857272845234000,4.83323388671875,0.38953824676871296,-0.3925201851889491,-0.04013583022914827
1667857272855254000,4.84325390625,0.31533786904811856,-0.4543474035486579,-0.03788132930062711
1667857272865275100,4.853275146484375,0.2873912929803133,-0.5671177504211664,-0.044777007098495955
1667857272875295000,4.863294921875,0.19646482138633728,-0.6292080036312341,-0.030447416440211234
1667857272885316000,4.873316162109375,0.013578443497419357,-0.6808046276167035,-0.05205671577788889
1667857272895336000,4.8833359375,-0.1727273874461651,-0.6712909493401646,-0.12186265793181955
1667857272905357000,4.893357177734375,-0.11748831530511379,-0.6960156407520175,-0.2279585685417056
1667857272915377200,4.903377197265625,0.09889525851607323,-0.7511886619195342,-0.21582287119850516
1667857272925398000,4.91339794921875,0.38298166473209855,-0.8120004196263849,-0.20901863454375416
1667857272935418000,4.923418212890625,0.6631833384692668,-0.7851584437996149,-0.24544709815494714
1667857272945439000,4.93343896484375,0.8227718428790569,-0.6377348628275096,-0.30611648824904114
1667857272955459000,4.943458984375,0.8659954830557107,-0.5038415022969246,-0.353935676055029
1667857272965480200,4.953480224609375,1.0053957704395056,-0.4327265233710408,-0.2972139641407877
1667857272975500000,4.9635,1.2431436193287373,-0.38550855286121366,-0.2633307645656168
1667857272985521200,4.973521240234375,1.5471481934577225,-0.2910077299118042,-0.21324213399030267
1667857272995541000,4.983541015625,1.6977806534737347,-0.13456249196380377,-0.15458302427269519
1667857273005562000,4.99356201171875,1.7513064919561148,0.039867023225128646,-0.03940590851940214
1667857273015582200,5.003582275390625,1.7851280975371597,0.08942731907740235,0.3264079829864204
1667857273025603000,5.01360302734375,1.772705253815651,0.0925945509366691,0.8119774040769785
1667857273035623200,5.023623046875,1.4202028984993695,-0.12319602542743086,1.1038756530877203
1667857273045644000,5.03364404296875,0.5648486364454031,-0.3196405346781015,0.7770287672273815
1667857273055665000,5.043664794921875,-0.11053659647107124,-0.35199703614264727,0.199129510550946
1667857273065685500,5.053685546875,-0.46688101416826244,-0.36353827472403644,-0.2553761522993445
1667857273075706400,5.063706298828125,-0.5235545030266047,-0.57503743750453,-0.4764142739281058
1667857273085726500,5.0737265625,-0.6435229447096585,-0.860532249213755,-0.2843400887161493
1667857273095747600,5.08374755859375,-0.9458312363147735,-1.2459227286532522,0.10821823652610182
1667857273105767400,5.093767333984375,-1.0767758300423622,-1.5163434514798224,0.30390031003691254
1667857273115788500,5.10378857421875,-1.177866552776098,-1.1711467430017888,-0.04703450370170176
1667857273125808400,5.113808349609375,-0.8636363527089357,-0.7290799982249736,-0.8699070304762572
1667857273135829500,5.12382958984375,-0.4910077396869659,-0.5565179574083536,-1.2382190224081278
1667857273145849300,5.133849365234375,-0.5995283201605082,-0.6289754369843751,-1.4046530087985099
1667857273155870500,5.143870361328125,-1.0127829580813645,-0.42520920654349026,-1.5495891568690539
1667857273165890600,5.153890625,-0.9290256474643945,-0.6196208217270672,-1.3843071169927716
1667857273175911400,5.163911376953125,-0.3400976317733526,-0.6368159944169223,-1.3590313675694168
1667857273185931500,5.173931640625,0.1323620593100786,-0.4120966269921511,-1.2958607717767356
1667857273195952400,5.183952392578125,0.5077016848564148,-0.26633201047452165,-1.2217154121790081
1667857273205972500,5.193972412109375,0.7146972526073455,-0.44719811631590123,-1.0758342383433133
1667857273215993300,5.203993408203125,0.7445692437797784,-0.8213383029446005,-0.3310568317055702
1667857273226013400,5.214013427734375,0.25652678363919257,-1.0782120003253222,0.7342091778069734
1667857273236034300,5.224034423828125,-0.16554302890002726,-0.9979909740757197,1.382722770410776
1667857273246054400,5.234054443359375,-0.6925403658568858,-0.1693803785732016,1.3590934730201958
1667857273256075300,5.2440751953125,-1.0686626662135124,0.913416940248385,0.7167847264058888
1667857273266095400,5.254095458984375,-0.8940057720094918,1.5544355739869176,0.2573116504065692
1667857273276116500,5.264116455078125,-0.49244040283858775,1.9703961098656058,0.22100169860851018
1667857273286136300,5.27413623046875,-0.29323943448662754,2.45232388651818,0.27639479226749386
1667857273296157400,5.284157470703125,-0.1713882477968931,2.7632304951205846,0.16414024943001568
1667857273306177300,5.29417724609375,-0.036925416815280915,3.031572511976957,0.07365816060267388
1667857273316198400,5.304198486328125,-0.14678689050376414,3.3618308867812154,0.0933350671056658
1667857273326218200,5.31421826171875,-0.8441133215934038,3.661596508166194,0.4442356132484972
1667857273336239400,5.3242392578125,-1.564197527936101,3.8198259991824624,0.8963090074505656
1667857273346259500,5.334259521484375,-2.2184084553986785,3.83122592959702,1.0563186598818748
1667857273356280300,5.3442802734375,-2.6438714175075293,3.7498493766367433,0.9688624216817319
1667857273366300400,5.354300537109375,-2.723891295161843,3.5993013800337907,0.7851398852296173
1667857273376321300,5.3643212890625,-2.8608377596527337,3.5432077368900177,1.0173903057463467
1667857273386341400,5.37434130859375,-3.798651693728566,3.125245067408681,0.8078091054163873
1667857273396362200,5.3843623046875,-5.76551583007574,2.45542974357903,0.658226008322835
1667857273406382300,5.39438232421875,-8.32635474410951,1.7319376284889876,0.34805297469198704
1667857273416403200,5.4044033203125,-10.633075104689597,0.9903238735139369,0.16821465926207602
1667857273426424600,5.414424560546875,-11.500567548304796,0.34651465920880437,0.14857771944329143
1667857273436444400,5.4244443359375,-11.10081653507948,-0.3225035228937864,-0.10022592259794473
1667857273446465500,5.434465576171875,-10.054480266964434,-0.7737371783360838,-0.18760054692924022
1667857273456485600,5.444485595703125,-8.612917185050248,-1.2560555617414415,-0.0023405352441594005
1667857273466506500,5.454506591796875,-7.159284895157813,-1.8005993690438566,0.1978841501323506
1667857273476526600,5.464526611328125,-5.6839785335958,-2.1060589642867447,0.3779722025396302
1667857273486547500,5.47454736328125,-4.288360041254759,-2.1591668696179984,0.5057620585633441
1667857273496567600,5.484567626953125,-3.12270941145122,-2.072159178902954,0.5907194656850769
1667857273506588400,5.49458837890625,-2.2094547490924596,-1.988036980496347,0.7294350952729582
1667857273516608500,5.5046083984375,-1.5384008233785629,-1.9920120216071604,0.6663990856453776
1667857273526629400,5.51462939453125,-0.9877250891923904,-2.001043907716125,0.5977998158674687
1667857273536649500,5.5246494140625,-0.4649263729691505,-1.9649011657111346,0.5060042332887649
1667857273546670300,5.53467041015625,-0.08737725467979908,-1.8949410559087991,0.4452318577442318
1667857273556690400,5.5446904296875,0.09656710782945155,-1.9115218960925935,0.16597999554518608
1667857273566711600,5.554711669921875,-0.0012345102310180663,-1.908889794023335,0.23274941954743117
1667857273576731400,5.5647314453125,0.0593733954668045,-1.8339497038513422,0.3299674290336668
1667857273586752500,5.57475244140625,0.09687222825586796,-1.691478338459134,0.21374608319075777
1667857273596772400,5.5847724609375,0.059767947742342946,-1.5146838477045297,0.20014044115915894
1667857273606793500,5.59479345703125,0.2600532041996717,-1.349076521396637,0.21959921139944344
1667857273616813300,5.604813232421875,0.5855091471582651,-1.2620546560257673,0.09330305539905093
1667857273626834400,5.61483447265625,0.917280849134922,-1.2141089557632803,-0.07482932327389717
1667857273636854500,5.6248544921875,1.220375907203555,-1.2114740041498093,-0.18639361882489172
1667857273646875400,5.63487548828125,1.3834797262579202,-1.1970840250737964,-0.1122814308444038
1667857273656895500,5.6448955078125,1.3393845639437436,-1.1514777275443075,-0.04146302371229976
1667857273666916400,5.654916259765625,1.261598144429922,-1.0752217324681579,-0.08807369424505158
1667857273676936400,5.6649365234375,1.222086218252778,-0.900240282484889,-0.13214408744415268
1667857273686957300,5.674957275390625,1.2197142284244298,-0.7433402134414762,-0.10526497621107846
1667857273696977400,5.684977294921875,1.342168057182431,-0.5805996016763151,-0.09756928887562825
1667857273706998300,5.694998291015625,1.6394506295800209,-0.3746506934341043,-0.054993719077855344
1667857273717018400,5.705018310546875,2.0049965908646583,-0.1737267372144386,-0.0025955009524943305
1667857273727039200,5.715039306640625,2.3813842641592022,-0.0003203727944754064,0.11495236708670854
1667857273737059300,5.725059326171875,2.651859493651986,0.23748627534359693,0.17568313197921961
1667857273747080400,5.73508056640625,2.9414304687589405,0.4758416616719216,0.1381701428006403
1667857273757100300,5.745100341796875,3.2628456118941305,0.809623315231502,0.12140687698833644
1667857273767121400,5.755121337890625,3.507831595343351,1.2028760524787008,0.10104366872161626
1667857273777142300,5.765142333984375,3.734549516174197,1.5354808442786334,0.024037805126234886
1667857273787162400,5.775162353515625,3.9563907708793877,1.827953970567882,-0.04654946013111621
1667857273797183500,5.78518359375,4.061003237998485,2.1169240571722385,-0.09724617613479494
1667857273807203300,5.795203369140625,4.095411703556776,2.3820801374688743,-0.10601400448009371
1667857273817224400,5.805224365234375,4.094095944783091,2.635723182365298,0.11309855591356753
1667857273827244500,5.81524462890625,4.11448406829536,2.878260603618622,0.25338695124350485
1667857273837265400,5.825265380859375,4.145285449272394,3.178971981421113,0.2579590814646333
1667857273847285500,5.835285400390625,4.18373120752275,3.478635311475396,0.258884671876952
1667857273857306400,5.845306396484375,4.244897331625223,3.724054425644874,0.21143698426447807
1667857273867326500,5.855326416015625,4.304257283088565,3.910404680252075,0.17852292198240757
1667857273877347600,5.86534765625,4.326335843905806,3.976175960062444,0.10604111168272792
1667857273887367400,5.875367431640625,4.22767030249238,3.9499554771348833,0.07248940908424556
1667857273897388500,5.885388427734375,4.041034216681123,3.7848292123422023,0.029303689765185117
1667857273907408400,5.895408447265625,3.789705586206913,3.497650685329735,-0.08762260774299502
1667857273917429500,5.905429443359375,3.499383500471711,3.1819416448816655,-0.19688516569025813
1667857273927449300,5.915449462890625,3.2262399285525083,2.9582097541242836,-0.1953660663641989
1667857273937470500,5.925470458984375,2.8752859717220067,2.770520359867811,-0.17365553514175117
1667857273947490600,5.935490478515625,2.501650227484107,2.6137206093937158,-0.2017049870621413
1667857273957511400,5.945511474609375,2.1928432215094564,2.4703292065471407,-0.2359820813257247
1667857273967531500,5.955531494140625,1.9242729488551615,2.372339956960082,-0.25254107500389217
1667857273977552400,5.965552490234375,1.6644465391486882,2.2716646831594405,-0.2429410884170793
1667857273987572500,5.975572509765625,1.4540776955723762,2.1826718099765476,-0.23068644086932763
1667857273997593300,5.98559326171875,1.2168424723803997,2.1012590166591107,-0.2241208170097321
1667857274007613400,5.995613525390625,0.9024071051299571,2.0459837041608986,-0.2878209896344691
1667857274017634300,6.00563427734375,0.6678963384658098,2.024383428379893,-0.3640044309310615
1667857274027654400,6.015654296875,0.49169981360435483,1.988477856131643,-0.3190694567918777
1667857274037675300,6.02567529296875,0.2862029599785805,1.8772659907475113,-0.24855982334800064
1667857274047695400,6.0356953125,0.04189209931194782,1.689868857435882,-0.19950455440841613
1667857274057716500,6.045716552734375,-0.21211364141702652,1.4502401632361113,-0.1596868502177298
1667857274067735800,6.05573583984375,-0.48399055440127847,1.1316972145363688,-0.10357185375867412
1667857274077757000,6.0657568359375,-0.6671171707868576,0.8001292184382677,-0.09379713165946305
1667857274087777000,6.075777099609375,-0.7434177356570959,0.5008806066647171,-0.08125321884155273
1667857274097798000,6.0857978515625,-0.7057546522170305,0.28252850924953815,-0.05097264686822891
1667857274107818800,6.09581884765625,-0.5899789860486984,0.09838877029865979,-0.04353029497303068
1667857274117838800,6.1058388671875,-0.5004547824680805,-0.056722150305658574,-0.041375729021336884
1667857274127859000,6.11585888671875,-0.43054947159290313,-0.17099398778229952,-0.0357621451895684
1667857274137879800,6.1258798828125,-0.4156809882849455,-0.24076456636190413,-0.011067629720270634
1667857274147901000,6.13590087890625,-0.31764906859993935,-0.33559147946052253,-0.030170681858062744
1667857274157920800,6.145920654296875,-0.21828093187510966,-0.42701786340065295,-0.04726029354790225
1667857274167942000,6.15594189453125,-0.20937457184195518,-0.4776442541144788,-0.029246918076649305
1667857274177961700,6.165961669921875,-0.2552612937480211,-0.5217608976081013,-0.025717282645776867
1667857274187982800,6.17598291015625,-0.2505506318390369,-0.4798230594582855,-0.04159536312138661
1667857274198002700,6.186002685546875,-0.13813947366774082,-0.43022440435700116,-0.05244140424653888
1667857274208023800,6.19602392578125,0.024185762229561803,-0.4522823607776314,-0.03914137583170086
1667857274218044000,6.2060439453125,0.22920856860280037,-0.5139010509531945,-0.03324482860639691
1667857274228065000,6.21606494140625,0.43800095664262767,-0.5724219212438911,-0.007395170018915087
1667857274238084900,6.2260849609375,0.6427461151182651,-0.5461151482723653,0.05375361935626715
1667857274248106000,6.23610595703125,0.7876713034033774,-0.46738815997280175,0.04609355132346973
1667857274258126000,6.2461259765625,0.8888076188445091,-0.3671763389654457,0.023110424615629017
1667857274268147000,6.25614697265625,0.975821300908923,-0.25577333492338655,0.00242437760271132
1667857274278167000,6.2661669921875,1.068323643517494,-0.14446305066607892,-0.018260025442391633
1667857274288188000,6.27618798828125,1.1678232976675034,-0.04074709399528801,-0.05970233516022563
1667857274298208000,6.2862080078125,1.3536235171765088,0.017054449044913052,-0.09698624655697494
1667857274308228900,6.296228759765625,1.5569418577194214,0.04063545031435788,-0.0795922633593902
1667857274318249000,6.3062490234375,1.6945120070666073,0.10185491203926503,-0.05782024774067104
1667857274328270000,6.31627001953125,1.7909008357197045,0.13253792733363806,-0.05219203259535134
1667857274338290000,6.3262900390625,2.086779386538267,0.16362652775421738,-0.09212806593608111
1667857274348311000,6.33631103515625,2.412912790367007,0.22785138184018433,-0.04298464378900826
1667857274358331000,6.346330810546875,2.655994401499629,0.34539595737718043,0.013392492471262812
1667857274368352000,6.35635205078125,2.8421190306574107,0.5836446319280192,0.04309153822958469
1667857274378371800,6.366371826171875,2.933621256312728,0.861631881018728,0.04066544359382242
1667857274388393000,6.37639306640625,2.9628637174099683,1.0830156012147665,-0.01953673084732145
1667857274398413000,6.3864130859375,3.1244179689347744,1.2259675897307694,-0.03135119687952101
1667857274408434000,6.396433837890625,3.1280174547314643,1.2837541543975473,-0.055112267423607406
1667857274418454000,6.4064541015625,3.2178900333583353,1.317543465144187,-0.028241394295915958
1667857274428475000,6.416474853515625,3.402276878938079,1.274587243732065,0.022812026190944013
1667857274438496000,6.42649609375,3.610944763815403,1.1777497945286333,0.08443860741201788
1667857274448515800,6.436515869140625,3.7175282387465236,1.0889774322286248,0.1529676980305463
1667857274458537000,6.446536865234375,3.7536119440406557,1.0546048417013139,0.20852723429761827
1667857274468556800,6.456556884765625,3.7026696923106908,1.0338689276646822,0.26438648416362703
1667857274478578000,6.466577880859375,3.532921612936258,0.9370968718476593,0.332472507189773
1667857274488597800,6.47659765625,3.173860922017693,0.7446171745747328,0.3405784010276198
1667857274498619000,6.486618896484375,2.671846635147929,0.551618239200674,0.21055742495097218
1667857274508639000,6.496638916015625,2.3256126925766467,0.4189646495981142,0.1496544087640941
1667857274518659800,6.506659912109375,2.1414619938403368,0.42058176593855023,0.22594854389354585
1667857274528680000,6.516679931640625,2.042239403066039,0.5781515509370714,0.2576855617528781
1667857274538700800,6.52670068359375,1.911056324407458,0.8692049466215074,0.20333379384037106
1667857274548721000,6.536720947265625,1.6529793887168167,1.0736601822398602,0.08415091304443777
1667857274558741800,6.54674169921875,1.1899720011115074,1.0275452045358717,-0.07671173948701471
1667857274568761900,6.556761962890625,0.7658551929146051,0.8091565014373511,-0.16016864238530396
1667857274578782700,6.56678271484375,0.56405251763165,0.5527631714520975,-0.033947496983036396
1667857274588802800,6.576802734375,0.5543962160140276,0.35099209688380356,0.1921491501443088
1667857274598823700,6.58682373046875,0.8128437385827303,0.20409951751586047,0.22859905840232966
1667857274608843800,6.59684375,0.9456114560842513,0.11609393833726644,0.10824088674932718
1667857274618865000,6.606864990234375,0.6095265670835971,0.16839571491740643,0.007516001653298735
1667857274628884700,6.616884765625,-0.07712474073469638,0.22973098504170775,-0.08464622228071093
1667857274638906000,6.626906005859375,-0.975927683892846,0.28720950667262074,-0.19098580545336008
1667857274648926000,6.636926025390625,-2.2249638683915136,0.17128449516147373,-0.3351472428243607
1667857274658947000,6.646947021484375,-3.411439259558916,-0.20899149080850182,-0.6469167518664151
1667857274668967000,6.656966796875,-4.40264576112628,-0.926253260141611,-0.8718925782702863
1667857274678988000,6.666988037109375,-5.073094122162461,-1.785977261712402,-0.6808755008958279
1667857274689007900,6.6770078125,-5.496795335295796,-2.412890578535199,-0.21209113732427357
1667857274699029000,6.687029052734375,-5.798038043496012,-2.6604426130801437,0.35359760320708156
1667857274709049000,6.697049072265625,-5.8561260753273965,-2.5538842725902793,0.7580613241679967
1667857274719070000,6.707070068359375,-5.12596938778162,-2.4925541900977493,0.07096928684487938
1667857274729090000,6.717090087890625,-4.197597820311785,-3.7823859108433124,-4.17554322489202
1667857274739111000,6.72711083984375,-6.517480444803834,-5.7787540818333625,-9.95920787512064
1667857274749131000,6.737131103515625,-10.284866062653064,-5.497251846891642,-11.380986060112715
1667857274759151900,6.74715185546875,-12.921661842685937,-2.7858798415631054,-5.708049145013094
1667857274769173000,6.757173095703125,-11.617208891391753,-0.8138662134982645,1.2040738839611411
1667857274779192800,6.76719287109375,-7.291610129588842,-0.6879351370837539,4.039951682141423
1667857274789214000,6.7772138671875,-3.3699534029603004,-1.1495248399108648,4.6079824557542794
1667857274799233800,6.78723388671875,0.34666941137909885,-0.6697110597375779,5.174109441572427
1667857274809255000,6.7972548828125,2.578987734186649,0.02196077965646982,5.726569721087813
1667857274819275000,6.80727490234375,2.682447524139285,0.09578260638825595,4.993216283327341
1667857274829295900,6.8172958984375,1.899467593422532,-0.2104036226287484,2.4441199756659566
1667857274839316000,6.82731591796875,0.5571709414243697,-0.33194033654183147,0.07809417028874159
1667857274849336800,6.8373369140625,-1.0654811135679483,0.28103783230036494,-1.3316677059561013
1667857274859357000,6.84735693359375,-2.3790432539910076,1.139667755024135,-2.3577695798158644
1667857274869377800,6.857377685546875,-2.7770710966855288,1.9305352241203189,-2.771614584845304
1667857274879398000,6.86739794921875,-2.0697697995483875,2.6167612922638654,-2.166127940802276
1667857274889418800,6.877418701171875,-1.1010837573468684,2.9080297189384696,-1.2243242064379154
1667857274899438800,6.88743896484375,-0.373292045366764,2.770975702419877,-0.4232787499375641
1667857274909459700,6.897459716796875,-0.5310673628747463,2.342381018156558,0.4653801080860197
1667857274919479800,6.907479736328125,-1.1538859577298164,1.9319025669507681,1.1571416715901344
1667857274929501000,6.9175009765625,-1.9413076702862977,1.7365761019445956,1.2681795686468482
1667857274939520800,6.927520751953125,-2.6338942133724688,1.7542475138440727,0.8886239328406751
1667857274949542000,6.9375419921875,-2.680467163977027,1.9459017200782893,0.20598091081567108
1667857274959561700,6.947561767578125,-2.2188760729104278,2.2971765794262287,-0.316914909106493
1667857274969582800,6.957582763671875,-1.8038538407951592,2.5943364022269844,-0.4919494775164872
1667857274979602700,6.967602783203125,-1.6950076816290616,2.685213481721282,-0.29898280044421555
1667857274989623800,6.977623779296875,-1.650481726682186,2.652330033773184,0.033764030174911024
1667857274999644000,6.987643798828125,-1.4653215586423873,2.639399825051427,0.20758944199085233
1667857275009665000,6.9976650390625,-1.253700084656477,2.592696233804524,0.2665846517950296
1667857275019684900,7.007684814453125,-1.0763345160156488,2.2354233030855655,0.26057408626861867
1667857275029706000,7.0177060546875,-0.8632727800935507,1.6181450989618897,0.4755310613527894
1667857275039726000,7.02772607421875,-0.7525245866984128,0.9476327327787876,0.8998414193604141
1667857275049747000,7.037746826171875,-0.7126040797203779,0.44146877888366576,0.9697224725771695
1667857275059767000,7.04776708984375,-0.6133978555589914,0.18563838001079858,0.8101355756025761
1667857275069788200,7.0577880859375,-0.3703215051233768,0.26810981553569435,0.5197297571066767
1667857275079808000,7.06780810546875,0.06240063433349132,0.6503489913374185,0.23198636275306342
1667857275089829000,7.0778291015625,0.910872735658288,1.154190493634343,0.06895458602160215
1667857275099850200,7.087850341796875,2.08481597751081,1.6173939883336423,0.06973002737350761
1667857275109870000,7.0978701171875,3.0848791547507046,1.8151349671356378,0.08872662346214055
1667857275119891200,7.10789111328125,3.6442660186588762,1.7499992087498306,0.057199375895969566
1667857275129911300,7.117911376953125,3.7110797932595014,1.4919588056772946,0.11398253567386418
1667857275139932200,7.12793212890625,3.5328391953498124,1.0139619387328624,0.028067133707553146
1667857275149952300,7.1379521484375,3.1211463999181985,0.30213848799616094,-0.11866612691283225
1667857275159973000,7.14797314453125,2.48159528144896,-0.3037881548993289,-0.0680476272445172
1667857275169993200,7.1579931640625,1.6100041703432797,-0.7974478703998029,-0.02161540028490126
1667857275180014000,7.16801416015625,0.852924989080429,-1.130088902556896,-0.044164793484285474
1667857275190034200,7.1780341796875,0.2197784769564867,-1.3282313017666338,-0.09783391289487481
1667857275200055000,7.188054931640625,-0.2943675617337227,-1.4624524329468607,-0.21240889803655444
1667857275210075100,7.1980751953125,-0.7243132222145795,-1.572639777588844,-0.3948196943029761
1667857275220096000,7.208095947265625,-1.0368319421887398,-1.742655860249698,-0.6317508930470794
1667857275230116000,7.2181162109375,-1.233901159209013,-2.0116040263056756,-0.6955950041871517
1667857275240137200,7.22813720703125,-1.271018299204111,-2.1967074957221744,-0.6298283274866641
1667857275250157000,7.238156982421875,-1.2658031949043274,-2.2691056463263926,-0.46224582864828406
1667857275260178200,7.24817822265625,-1.2384300348103046,-2.315848254409432,-0.189154498372972
1667857275270198000,7.258197998046875,-0.9889484935075044,-2.375371872001886,0.058061436085402963
1667857275280219100,7.26821923828125,-0.5577174693912267,-2.2866177760109303,0.20385347033292053
1667857275290239000,7.278239013671875,-0.16559154421687125,-1.9337262752465902,0.27215260638678446
1667857275300260000,7.288260009765625,0.11526537855863571,-1.4549647075399756,0.05186413408154621
1667857275310280200,7.2982802734375,0.5063561154663563,-0.9251384307675063,-0.11067184022329747
1667857275320301000,7.308301025390625,0.9459113158136606,-0.4394917797222733,-0.16086721910871565
1667857275330321200,7.318321044921875,1.321080845490098,-0.08077771028429269,-0.32843506836723535
1667857275340342000,7.328342041015625,1.5548995382368564,0.1243742754265666,-0.5269943412821739
1667857275350362000,7.338362060546875,1.6513275298565626,0.1855287090912461,-0.6747783530645072
1667857275360383000,7.348383056640625,1.622680112043023,0.21398001981079579,-0.7973780930992216
1667857275370403000,7.358403076171875,1.5287497824579477,0.24132249250560997,-0.8896143321175127
1667857275380424000,7.368423828125,1.435914846894145,0.3385200071930885,-1.0301869512163102
1667857275390445000,7.378445068359375,1.38064537961483,0.505371780604124,-1.0996724292442202
1667857275400465000,7.38846484375,1.3186848902642727,0.6447799590334296,-1.0332888627544046
1667857275410486300,7.398486328125,1.1152730262190103,0.6996019748061895,-0.9425838518913835
1667857275420506000,7.408506103515625,0.7703945899099112,0.6747615480601787,-0.7902366238467395
1667857275430527200,7.41852734375,0.3022930940359831,0.577880405845493,-0.5905996021650731
1667857275440547300,7.42854736328125,-0.07037818908393383,0.36005759300142526,-0.32826011365912855
1667857275450568200,7.438568115234375,-0.35411271312236786,0.07041939787715673,-0.1325062261542771
1667857275460588300,7.44858837890625,-0.5821756188213825,-0.14798311455100774,0.07979995129331946
1667857275470609200,7.458609130859375,-0.6742226188778877,-0.34148236413002014,0.3533263119850307
1667857275480629200,7.468629150390625,-0.7757412116348743,-0.5017752174168825,0.4750423279877752
1667857275490650000,7.478650146484375,-0.8459247549295424,-0.626002193327248,0.44752939409688114
1667857275500670200,7.488670166015625,-0.9410264663815497,-0.6268667012020945,0.44589653219804165
1667857275510691000,7.498691162109375,-0.9557137479037046,-0.5439473027139902,0.40314869283959265
1667857275520711200,7.508711181640625,-0.8844219511061906,-0.4199105886787176,0.38336584174409505
1667857275530732000,7.51873193359375,-0.7841191638797521,-0.2627031341865659,0.3280994432047009
1667857275540752100,7.528752197265625,-0.6925789443016052,-0.16455752499401569,0.2038451408959925
1667857275550773200,7.538773193359375,-0.5975286707758903,-0.11840659919381141,0.11658873611688614
1667857275560793000,7.54879296875,-0.49441433326005935,-0.03078238401561975,0.05818360116034746
1667857275570814200,7.558814208984375,-0.4370937786698341,0.059059799472987645,0.02770458400547504
1667857275580834000,7.568833984375,-0.33204408917725087,0.10954992352128028,0.0006182780288159846
1667857275590855200,7.578855224609375,-0.22093407673239707,0.1706017735943198,-0.003671820380538702
1667857275600875300,7.588875244140625,-0.16822715341746805,0.23454116180241105,-0.03852349966168404
1667857275610896100,7.598896240234375,-0.09995733478963374,0.32718758905678985,-0.030944004318118095
1667857275620916200,7.608916259765625,-0.017414076137542724,0.40609599833786486,-0.09398732046931982
1667857275630937000,7.61893701171875,0.12445172457695007,0.44100423011183737,-0.1818776392377913
1667857275640957200,7.628957275390625,0.31712475246489047,0.4385615131348371,-0.12917466144561768
1667857275650978000,7.63897802734375,0.47540743497312066,0.411030532130599,-0.03612929800152778
1667857275660999200,7.648999267578125,0.5134516266852617,0.3031102556377649,-0.04194032236784696
1667857275671019000,7.65901904296875,0.45592415134608744,0.20480770231783388,-0.09423924940377473
1667857275681040100,7.6690400390625,0.44361470487117766,0.07550064666420221,-0.14320552488565444
1667857275691060000,7.67906005859375,0.49738019732832905,-0.016623802542686462,-0.0841869342058897
1667857275701081000,7.6890810546875,0.5257347696751355,-0.1068894721403718,0.011792875254899263
1667857275711101000,7.699100830078125,0.5001800571799278,-0.21695845109969375,0.12046614380581304
1667857275721122000,7.7091220703125,0.35089141298830506,-0.2931955953449011,0.19688596940785646
1667857275731142100,7.71914208984375,0.11067103650569915,-0.3821057586804032,0.16273703156858682
1667857275741163000,7.7291630859375,0.05095511121153831,-0.40741234163343903,-0.021606705521792172
1667857275751183000,7.73918310546875,0.1962503018528223,-0.3589306347981095,-0.11616159674599766
1667857275761204000,7.749203857421875,0.26461130589544773,-0.27034692693799733,-0.040344157483894375
1667857275771224000,7.75922412109375,0.23906828383803366,-0.24003975921869278,-0.0034621231526136397
1667857275781245000,7.769244873046875,0.10695932250618934,-0.2280328028216958,-0.020281448267400262
1667857275791265000,7.77926513671875,-0.038328269350528715,-0.22390666280239818,-0.06712210989743471
1667857275801286100,7.7892861328125,-0.07754150484204292,-0.16317746881246567,-0.08926774460151791
1667857275811306000,7.799305908203125,-0.009409633380174637,-0.07673895628750324,-0.12256488791704177
1667857275821327000,7.8093271484375,0.0020557634860277176,-0.003007365122437477,-0.1362269180446863
1667857275831347200,7.81934716796875,0.026861118918657303,0.08036182295978068,-0.11207345064952969
1667857275841368300,7.829368408203125,0.026315759995579717,0.15485972232222556,-0.08906228515729307
1667857275851388200,7.83938818359375,-0.033704116681218144,0.1985457193136215,-0.07200652093812823
1667857275861409300,7.8494091796875,-0.07778232786059379,0.21780162392556665,-0.06843012375608086
1667857275871429000,7.85942919921875,-0.07091828731000423,0.1714373476356268,-0.07276159535543993
1667857275881450200,7.8694501953125,-0.0643225423067808,0.09622750061154366,-0.029415625707060095
1667857275891470000,7.879469970703125,-0.05570785869657993,0.04066635690927505,-0.027388503793627023
1667857275901491200,7.8894912109375,-0.07491115633845329,0.013796762423217295,-0.01841623891741037
1667857275911511300,7.89951123046875,-0.06953180138766765,0.048939095214009284,0.007743599864095449
1667857275921532200,7.9095322265625,-0.1004430724799633,0.08470189799070357,0.05177855642363429
1667857275931552300,7.91955224609375,-0.028776012629270552,0.04442044874578714,0.07654911453751846
1667857275941573000,7.929572998046875,0.14585574713349342,-0.03633943362087011,0.057670591870602216
1667857275951594200,7.93959423828125,0.19236498485207557,-0.10975158357322215,0.021670272277295587
1667857275961614000,7.949614013671875,0.2266623912513256,-0.16307956139594315,0.00856302648819983
1667857275971635200,7.95963525390625,0.3403296869635582,-0.18213351369500158,0.07742226237654685
1667857275981655000,7.969655029296875,0.48612639738619323,-0.19176146600097416,0.01642944901436567
1667857275991676200,7.97967626953125,0.5950590657919645,-0.2695832490891218,-0.02176140289315954
1667857276001696000,7.989696044921875,0.5646259336054325,-0.36819282253161073,-0.0466999379850924
1667857276011717000,7.999717041015625,0.4787964928895235,-0.4931063194014132,-0.026088380980491637
1667857276021737200,8.0097373046875,0.4643465272545814,-0.5884089602530003,0.00004573883786797523
1667857276031758000,8.019758056640624,0.47073652055263515,-0.5918754673197865,0.0531490410592407
1667857276041778200,8.029778076171874,0.49703649845719333,-0.5581864020772278,0.06314283100292087
1667857276051799000,8.039799072265625,0.5988911913007497,-0.4601856081828475,0.0357351841174066
1667857276061819400,8.0498193359375,0.7360369777560234,-0.3590744271829724,0.06599697832502424
1667857276071840300,8.05984033203125,0.8938806843250989,-0.3383925814211368,0.1523797420747578
1667857276081860400,8.0698603515625,1.1190531292796135,-0.4131225359737873,0.18631523809274658
1667857276091881500,8.079881591796875,1.399976103028655,-0.5086325359657407,0.23864362868517636
1667857276101901300,8.0899013671875,1.6415402953356504,-0.6388920700386166,0.3552884058382362
1667857276111922400,8.09992236328125,1.8930413597673177,-0.6781928376831113,0.45667087806016204
1667857276121942500,8.109942626953124,2.0857880374133586,-0.6677822105668485,0.4605544414952397
1667857276131963400,8.11996337890625,2.3450451227992772,-0.6617702568009496,0.4514022169422358
1667857276141983500,8.1299833984375,2.512393739816546,-0.665163698631525,0.364789589959383
1667857276152004600,8.140004638671876,2.7131056972533463,-0.7124399751998484,0.15201901900358497
1667857276162024400,8.1500244140625,2.9183266565471886,-0.728216805524379,-0.24836817323341964
1667857276172045600,8.160045654296875,3.008362901303172,-0.6596705080427229,-0.6099849053103477
1667857276182065400,8.1700654296875,3.028998862096667,-0.7123299389541149,-0.8327065230466425
1667857276192086500,8.18008642578125,3.0363369498997925,-0.9415129347242415,-1.2429948585078119
1667857276202106400,8.1901064453125,2.7951281469017264,-1.2553403992094099,-1.6202357876308262
1667857276212127500,8.20012744140625,1.7842133207798003,-1.4957260492563247,-1.389548817038536
1667857276222148400,8.2101484375,0.1573854414075613,-1.4812323906101286,-0.8698415640246122
1667857276232168400,8.22016845703125,-1.6639274837106466,-1.6437084331549703,-0.6905100290730595
1667857276242189300,8.230189208984376,-3.6490415624976156,-1.9066630578845738,-0.7601056894771754
1667857276252209400,8.24020947265625,-5.183521413040161,-1.9170866906128823,-1.1475209527425467
1667857276262230300,8.250230224609375,-6.065728610706329,-1.8506670298963783,-1.3611970211707054
1667857276272250400,8.26025048828125,-5.959462531161308,-1.680708230380714,-1.2082652712363748
1667857276282271500,8.270271484375,-5.548418555027246,-1.3598426839523017,-0.6303343773126602
1667857276292291300,8.280291259765624,-4.319356068021059,-0.8284770687833428,-0.6580563508443534
1667857276302312400,8.2903125,-2.5110616144299507,-0.3422652946686372,-1.7055549407370387
1667857276312332300,8.300332275390625,-0.3495902672618627,1.0583428591858595,-1.3803830754168331
1667857276322353400,8.310353515625,1.7965929098814726,1.6577103627614675,0.19996386074954642
1667857276332373500,8.32037353515625,3.796605282592773,0.6332355055816471,1.186882218402624
1667857276342394400,8.330394287109375,5.476368633338809,-0.3522784468999132,2.4860776875600217
1667857276352414500,8.34041455078125,4.66154453459382,-0.1299262835305184,3.0990193237841126
1667857276362435300,8.350435302734375,1.8681664462298153,0.45189453050382433,2.177942589497566
1667857276372455400,8.360455322265626,-1.5886726285010575,0.9956882500912994,1.1253156237404793
1667857276382476300,8.370476318359374,-4.374653007829189,1.4567374163009226,-0.03733597037754953
1667857276392496400,8.380496337890625,-5.021355751618743,1.6803595630735157,-0.5013085497532039
1667857276402517200,8.390517333984375,-4.600007239091396,2.2224625530950726,-0.08513513830881565
1667857276412537300,8.400537353515626,-3.6922301313608883,2.8853070149987934,0.0191065136033576
1667857276422558200,8.41055810546875,-2.4699744017601013,3.545031737446785,0.031235096219182013
1667857276432578300,8.420578369140625,-1.531236923098564,4.019651236912608,0.04018082014834508
1667857276442599400,8.430599365234375,-1.0179711743742228,4.349902012932301,0.03710775111224502
1667857276452619300,8.440619384765625,-0.9489104976296424,4.579981811411678,0.009382891503721475
1667857276462640400,8.450640380859374,-1.3254437168747186,4.680168571043014,0.019048399341106415
1667857276472660200,8.46066015625,-1.708951451307535,4.5134278567910195,-0.19427480052877216
1667857276482681600,8.470681640625,-2.261594101652503,4.166658199907839,-0.25697018002513794
1667857276492702500,8.480702392578126,-3.138381612357497,3.9471196691870687,0.24265615226216614
1667857276502722600,8.49072265625,-4.142689587560295,3.513094630438089,0.9309520854823291
1667857276512743400,8.500743408203125,-5.033845815357566,2.775660645365715,1.3423998201116918
1667857276522763500,8.510763427734375,-6.317039121001958,1.9013094218969344,1.4005520032204686
1667857276532784400,8.520784423828125,-8.012847013098002,0.9258646992154419,1.3582871250733732
1667857276542804500,8.530804443359376,-8.806159537258743,0.8482121352143586,1.5165785754099488
1667857276552825300,8.540825439453124,-8.743227572527527,0.5586150027528405,1.2657380207136273
1667857276562845400,8.550845458984375,-8.44340291443169,-0.0952637701459229,0.8666122267145663
1667857276572866600,8.560866455078125,-7.572105817836523,-0.720815443226695,0.44552674903757866
1667857276582886400,8.570886474609376,-6.155096162420511,-1.3467710209332406,0.3095654231265187
1667857276592907500,8.580907470703124,-4.785891629752516,-1.8535571983799337,0.15564389496985823
1667857276602927400,8.59092724609375,-3.9034044461011885,-2.2162489392772318,0.2553198555348441
1667857276612948500,8.600948486328125,-2.9793495727866888,-2.508181090557575,0.20316428249236196
1667857276622968300,8.61096826171875,-1.4456623339265584,-3.041121261566877,0.005233809000253677
1667857276632989400,8.620989501953124,-0.1800941168218851,-3.5386814916372296,0.031187859543971717
1667857276643009500,8.631009521484375,0.3674363050758838,-3.668024495387077,0.2497514990842901
1667857276653030400,8.641030517578125,0.6288531988441943,-3.746325001902878,0.4544287616891786
1667857276663050500,8.651050537109375,0.5776531729608774,-3.747923669271171,0.42702655816376206
1667857276673071400,8.6610712890625,0.6986123792469501,-3.6274595530256626,0.002383461070433259
1667857276683091500,8.671091552734374,0.8530664433777332,-3.3974674328297376,-0.5846648052886128
1667857276693112300,8.6811123046875,1.0875637660384176,-3.124221277318895,-0.9023810939058661
1667857276703132400,8.69113232421875,1.2405483421385288,-2.8028184091433883,-0.9372557887364178
1667857276713153300,8.7011533203125,1.1020037948012351,-2.5154443595588205,-0.7548511299498378
1667857276723173400,8.71117333984375,0.8180272787004709,-2.318437978641689,-0.5903547605585306
1667857276733194200,8.7211943359375,0.5323164861530065,-2.158705974107981,-0.5198760337095707
1667857276743214300,8.73121435546875,0.3638379883229732,-2.0019059313729404,-0.4911765203826129
1667857276753235500,8.7412353515625,0.4356096775919199,-1.825340865460038,-0.5634472086822614
1667857276763256300,8.75125634765625,0.6784498811841011,-1.5763248958423732,-0.5312861567245796
1667857276773276400,8.7612763671875,0.9754343474179505,-1.3854210695840417,-0.38159364443980154
1667857276783297300,8.77129736328125,1.3692963026046752,-1.2193339969351886,-0.19865962801687417
1667857276793317400,8.7813173828125,1.8770698836535213,-1.1476562695600092,0.041385684159770605
1667857276803338200,8.791338134765626,2.393295066705346,-1.0576223628915846,0.19506058061160145
1667857276813358300,8.8013583984375,2.7267794178187845,-0.885781329825893,0.2017686268828809
1667857276823379500,8.81137939453125,2.8677777880489823,-0.6555507246989757,0.11892083232626319
1667857276833399300,8.8213994140625,3.0152082371532916,-0.4785131093708798,0.11641323341950774
1667857276843420400,8.83142041015625,3.3571500354886052,-0.25710818199003116,0.1849851767990738
1667857276853440300,8.841440185546874,3.7616660711586474,0.07543185574430972,0.22485073871947825
1667857276863461400,8.85146142578125,4.092275159096718,0.44481980634462087,0.2391689677335322
1667857276873481500,8.8614814453125,4.321264531990885,0.8320654486641287,0.26258842176571484
1667857276883502600,8.871502685546876,4.40115289222002,1.245055298168957,0.31259726510308683
1667857276893522400,8.8815224609375,4.332714731287956,1.7006401345580815,0.28015608102977274
1667857276903543600,8.89154345703125,4.127366346222162,2.2211966248124835,0.21984635456092655
1667857276913563400,8.9015634765625,3.8221477201282976,2.7271675403535363,0.2960367370549589
1667857276923584500,8.91158447265625,3.661185589277744,3.1268963417470452,0.28154965428002177
1667857276933604400,8.921604248046876,3.617387364083528,3.4884573250487443,0.2952246534870937
1667857276943625500,8.93162548828125,3.5359780778974295,3.8605169060111044,0.46184459090363233
1667857276953645600,8.9416455078125,3.543134963914752,4.244391427929699,0.5882972435068339
1667857276963666400,8.95166650390625,3.5871424479454754,4.477296220701932,0.6119676400927826
1667857276973686500,8.9616865234375,3.6615544225901364,4.418281137153506,0.5924835892807692
1667857276983707400,8.971707275390624,3.4926614987403153,4.2615801708787675,0.3041854836538434
1667857276993727500,8.9817275390625,3.113827016815543,4.035730557315051,0.07607216294184327
1667857277003748400,8.991748291015625,2.549503865548968,3.651414429108798,-0.03249210140979849
1667857277013768400,9.0017685546875,2.0947177783221007,3.161059892633557,0.034795272918790573
1667857277023789300,9.011789306640624,1.737722787761688,2.524167764240503,0.17673457726091146
1667857277033810400,9.021810546875,1.5821587165623903,1.8957140861079096,0.17092654856927691
1667857277043830300,9.031830322265625,1.4793997683554887,1.4067733619533478,0.08289654733547941
1667857277053851400,9.041851318359376,1.3617308357864617,1.1032425428159534,0.15569178923219443
1667857277063870700,9.05187060546875,1.3665408664166927,0.9404939669400453,0.3349992126557976
1667857277073891600,9.0618916015625,1.3179630057305096,0.9577674655631184,0.5282714485459029
1667857277083911700,9.07191162109375,1.2394938646495341,1.155768702736497,0.6147632986932993
1667857277093932500,9.0819326171875,1.0200532413452863,1.4295150628544389,0.6569597877793014
1667857277103952600,9.09195263671875,0.8009048789858818,1.6727064179718494,0.6735496149871498
1667857277113973500,9.101973388671874,0.5416992315262555,1.8261711788043378,0.6311230434723198
1667857277123993600,9.11199365234375,0.22295301533937453,1.7918499531380832,0.5698227715961635
1667857277134014700,9.1220146484375,0.02514145551919937,1.6250613080911338,0.437966762112081
1667857277144034600,9.13203466796875,-0.10463643251657485,1.5353027112327515,0.315791677230224
1667857277154055700,9.1420556640625,-0.20458207686841487,1.452937731757015,0.1745705310948193
1667857277164075500,9.152075439453125,-0.26114392204582687,1.3620245580360293,0.0641023967500776
1667857277174096600,9.1620966796875,-0.26161037051379676,1.2970628410428762,0.014531725634261965
1667857277184116500,9.172116455078125,-0.16460136413574217,1.1795504142098128,-0.035105252183414995
1667857277194137600,9.1821376953125,0.019123802664875983,1.0333676270790397,-0.11081263693347572
1667857277204157700,9.19215771484375,0.16678806052505968,0.8678393573567271,-0.18969704428445547
1667857277214178600,9.202178466796875,0.2991536269664764,0.7505056480914354,-0.21011216540150343
1667857277224198700,9.21219873046875,0.47981882167458534,0.7132444965157657,-0.22321891800025476
1667857277234219500,9.222219482421876,0.601677022626996,0.7623965768933296,-0.17478665806353091
1667857277244239600,9.232239501953124,0.6308236221343279,0.8199960945554077,-0.12118852152992039
1667857277254260500,9.242260498046875,0.5870072767615317,0.8365313420318067,-0.08477510935738682
1667857277264282600,9.25228271484375,0.47807870000898833,0.8904425265699625,-0.0016024667605757713
1667857277274302700,9.262302734375,0.41671793011724945,0.8047210032079368,0.12889759806990622
1667857277284323600,9.272323486328125,0.35947862406969067,0.6633264002017677,0.2550351933745667
1667857277294343700,9.28234375,0.3847556886672973,0.5484836309693754,0.31758097179979083
1667857277304364800,9.29236474609375,0.4838666357606649,0.4371761962562799,0.33472211274746805
1667857277314384600,9.302384521484376,0.5475315909415484,0.31891090522930027,0.2868187537893653
1667857277324405800,9.31240576171875,0.655154345792532,0.25760752808060494,0.20505625198511407
1667857277334425600,9.322425537109375,0.7342600312113762,0.2710581804798916,0.10652666670996695
1667857277344446700,9.33244677734375,0.7993208246648311,0.3216387958232313,0.01191416354700923
1667857277354466600,9.342466552734376,0.9034089756488799,0.38886286825779826,-0.05642042741272598
1667857277364487700,9.35248779296875,0.9841887317597865,0.380725994759798,-0.08291428392156958
1667857277374507800,9.3625078125,1.1536527334958315,0.38445517135076224,-0.0647910640008282
1667857277384528600,9.372528564453125,1.4238216735184193,0.3610876667015254,-0.07633577318093739
1667857277394548700,9.382548828125,1.6458371157467364,0.32854576220009474,-0.02429267493644729
1667857277404569600,9.392569580078124,1.7975450960397719,0.29573711478756737,0.005403667408134788
1667857277414589700,9.402589599609374,1.8665093266725539,0.3162271825706586,0.007318049662094562
1667857277424610600,9.412610595703125,1.8724369631558655,0.39194340821430085,0.004602141766902059
1667857277434630700,9.422630615234375,1.8798668208956717,0.4550660366794094,0.0390791790493764
1667857277444651500,9.432651611328126,1.873877809613943,0.48825471465177833,0.004008176195435226
1667857277454671600,9.442671630859374,1.8512597350925206,0.49206875651460136,-0.07178593699000775
1667857277464692500,9.4526923828125,1.9005559731811283,0.37158199004586784,-0.16779354777317493
1667857277474713600,9.462713623046875,2.0202701478421687,0.2477124127384275,-0.3291664148490876
1667857277484733700,9.472733642578126,2.208200365117192,0.18516038723550735,-0.4466586026117205
1667857277494754600,9.482754638671874,2.3472154525756834,0.1977188948343508,-0.5062386265665293
1667857277504774700,9.492774658203125,2.565527948632836,0.2974580750949681,-0.4574463194120675
1667857277514795500,9.50279541015625,2.7158400906533,0.42586646487582475,-0.33705271111950275
1667857277524815600,9.512815673828126,2.744848742994666,0.6031288654031232,-0.15677383058154953
1667857277534836500,9.52283642578125,2.5958067670404907,0.6853053000368178,0.026935280133411288
1667857277544856600,9.532856689453125,2.2720365852117537,0.6414208578638732,0.1928278713897802
1667857277554877400,9.54287744140625,1.9153496376872061,0.4424441267218441,0.3412142147131264
1667857277564897500,9.5528974609375,1.5466156940162181,0.09835472189858555,0.2735518421928398
1667857277574918400,9.56291845703125,1.07353465616405,-0.3340210883386433,-0.02951008079117164
1667857277584938500,9.5729384765625,0.7100912201166153,-0.650840939572826,-0.16375044639483094
1667857277594959600,9.582959716796875,0.7059218254774808,-0.014949220393970607,0.19116470568422228
1667857277604979500,9.5929794921875,1.3696066837280987,0.4041283515267074,0.32190124615170057
1667857277615000800,9.603000732421876,1.8593524406552313,0.5077105988152325,0.708235582312569
1667857277625020400,9.6130205078125,2.489911274373531,0.9737697021413594,0.8388063012264668
1667857277635041800,9.623041748046875,2.828908251428604,1.2707893127538263,0.5446023325566202
1667857277645061400,9.633061279296875,2.8101655570358037,1.237660073351115,0.16532463690899313
1667857277655082800,9.643082763671876,2.323098079407215,0.9537915476694703,-0.2805264121795073
1667857277665102800,9.653102783203124,1.9811580346375703,0.24687968824133275,-0.8649780496414751
1667857277675123700,9.663123779296875,1.9369272632449863,-0.5720321182087064,-0.7404396696943789
1667857277685143800,9.673143798828125,1.7047691971868275,-1.0126464722201227,-0.1611166638251394
1667857277695164700,9.68316455078125,1.2061153266608715,-1.1288520542383194,0.5296302427437156
1667857277705184800,9.693184814453126,0.6656909373760223,-0.9376324400290846,0.6182179691918194
1667857277715205600,9.70320556640625,0.14673019188046454,-0.6269789294049143,0.09740436237119138
1667857277725226800,9.713226806640625,-0.4726806403577327,-0.39598026251494883,-0.5433185032911598
1667857277735246600,9.72324658203125,-1.3610668189197779,-0.3097948479682207,-1.066486783479154
1667857277745267700,9.733267822265624,-2.411387772756815,-0.4292302056878805,-1.189352554038912
1667857277755287600,9.74328759765625,-3.2563574189186095,-0.8408300621390342,-0.9828330063018947
1667857277765308700,9.75330859375,-3.544192364013195,-1.347222710223496,-0.7299789198260754
1667857277775328500,9.76332861328125,-3.820130535086989,-2.161562532582879,-2.189054935142398
1667857277785349600,9.773349609375,-5.805093807226419,-3.7926828484520314,-6.640019029235839
1667857277795369700,9.78336962890625,-11.962323474544286,-5.02701216994524,-10.1759953535676
1667857277805390600,9.793390625,-16.50554207396507,-4.567353508245945,-9.97024598648548
1667857277815410700,9.80341064453125,-14.404328503882883,-2.9125153399199246,-3.6131405202940106
1667857277825431600,9.813431640625,-11.918403668797016,-3.319492797267437,4.65151121635735
1667857277835451600,9.82345166015625,-9.612792146241665,-5.295633880525827,9.700311439740657
1667857277845472500,9.833472412109375,-7.035161671882867,-5.904511628311872,8.317446045988797
1667857277855492600,9.84349267578125,-5.7177112918496125,-3.217072287234664,5.318931169483065
1667857277865513500,9.853513427734375,-2.9465678316473958,1.6683555292859673,3.1910821059316397
1667857277875533600,9.863533447265626,0.3455015366435051,4.579886826604604,1.9228347327455877
1667857277885554400,9.873554443359374,2.3089824602931737,4.630904481658339,0.6037390697233379
1667857277895574500,9.883574462890625,2.8854619132995603,3.7433474473968147,-0.4374292942345142
1667857277905595600,9.893595703125,2.902643349725008,3.308850699482858,-1.3282006143674254
1667857277915615500,9.903615478515626,2.955534397435188,3.255164409741759,-1.6474395825073123
1667857277925636600,9.91363671875,2.41281400616765,3.1548674677342174,-1.3518947936877608
1667857277935656400,9.923656494140625,0.7195557985544204,2.477048870190978,-0.621838790037483
1667857277945677600,9.933677490234375,-1.5958470501750706,1.3787889380931853,0.9514106438823043
1667857277955697700,9.94369775390625,-3.142794752624631,0.6969453228175639,2.6885098929181694
1667857277965718500,9.953718505859374,-3.7884418498814103,0.4343191993899643,3.389820132946968
1667857277975739600,9.96373974609375,-3.9340889227002855,0.43658173749446866,2.301798101747036
1667857277985759500,9.973759521484375,-3.5901597499400375,1.1720396001882851,0.8453371642999351
1667857277995780600,9.983780517578126,-2.8891631059050558,2.309071892142296,0.06874298909753561
1667857278005800700,9.99380078125,-2.1758529237419366,2.812190048600733,-0.32252821894362566
1667857278015821600,10.003821533203125,-1.3085387593030928,2.6438985977753995,-0.5332534747421741
1667857278025841700,10.013841552734375,-0.3600958791851997,2.267569084408879,-0.41413229753822084
1667857278035862800,10.02386279296875,0.7176742225915194,1.9910167269594967,-0.09114362147599459
1667857278045882600,10.033882568359376,1.4626649066537618,1.9396525965556501,0.3942579687669873
1667857278055903700,10.04390380859375,1.8966344158232211,1.6802327218234538,1.01066523527503
1667857278065923800,10.053923828125,1.8535083908021448,1.099872701056674,1.2185326174244284
1667857278075945200,10.0639453125,1.0941297004252672,0.6109206517904997,1.1538111389279364
1667857278085964800,10.07396484375,-0.08592997848093509,0.4272935385368764,0.6190123344399034
1667857278095986200,10.083986083984374,-1.5460229888200758,0.7111274312965572,0.2689776844114065
1667857278106006300,10.09400634765625,-2.3026602715343234,1.1356764934308827,-0.6184007784128188
1667857278116027100,10.104027099609375,-2.1902397610127924,1.3689508501678704,-0.9356400971680879
1667857278126047200,10.114047119140626,-2.010353149461746,1.2899188145071268,-0.848011644206196
1667857278136068000,10.124068115234374,-1.4855758266419172,1.2762332573734223,-0.9954127210855483
1667857278146088200,10.134088134765625,-0.7503431510061025,1.284203651730716,-0.8801976114094257
1667857278156109000,10.144109130859375,-0.13134031504690646,0.9327508785326033,-0.4366290837675333
1667857278166129200,10.154129150390625,0.32937750031650065,0.40306422942653297,-0.027821926774829624
1667857278176150000,10.16414990234375,0.7069061603397131,0.08101341873630881,0.187535664999485
1667857278186170000,10.174170166015625,0.8773597576349973,-0.0709086426988244,0.3603077683702111
1667857278196191000,10.18419091796875,1.0190221447318792,-0.04393829125203192,0.47529133431278164
1667857278206211000,10.194211181640625,1.3639689701020716,0.0189510764464736,0.4882369597993791
1667857278216232000,10.20423193359375,1.7729554291844367,0.10965528359189629,0.4015037021115422
1667857278226253000,10.214253173828125,2.4136931270897386,0.24502032411023972,0.30847894306406376
1667857278236273200,10.224273193359375,3.1168250295877455,0.404263376083225,0.2024794055007398
1667857278246294000,10.2342939453125,3.514728369119763,0.5440659606575966,0.05970101998597383
1667857278256314000,10.244314208984376,3.5167829635620116,0.5994099544778466,-0.11890358893051743
1667857278266335000,10.2543349609375,3.2031893078327176,0.4962672676503658,-0.2584651678232476
1667857278276355000,10.26435498046875,2.6171044066131115,0.4676917460292577,-0.3218152118360624
1667857278286376000,10.2743759765625,1.8798656518518924,0.36697730926200745,-0.09597348931785672
1667857278296396000,10.28439599609375,1.1435592095047236,0.20488149820640683,0.1125778565077111
1667857278306417000,10.2944169921875,0.7152262449175119,-0.040956060570850966,0.1606678240790963
1667857278316437000,10.30443701171875,0.47666532607972617,-0.36267968513332305,0.08548091953918337
1667857278326457900,10.314457763671875,0.2096037044227123,-0.6721428169291466,-0.010432455355580895
1667857278336478000,10.32447802734375,0.17490122435390948,-0.9353435984395444,-0.21576215398721396
1667857278346499000,10.3344990234375,0.2605547239810228,-1.086501324438676,-0.30410511189401146
1667857278356519000,10.344518798828124,0.28611995787024497,-1.1122407458510248,-0.21459880929626524
1667857278366540000,10.3545400390625,0.13960253195762634,-1.0243374214705079,0.026266459227446467
1667857278376559900,10.364559814453125,-0.18299802156984804,-0.9935652665879576,0.14902185561475342
1667857278386581000,10.3745810546875,-0.5290870027124881,-1.1262636451803147,0.13547272954336367
1667857278396601000,10.38460107421875,-0.8660463364601134,-1.2687297498755157,0.10167240421236493
1667857278406622000,10.3946220703125,-1.1043436359256504,-1.2720298143342137,0.04597567883115262
1667857278416642000,10.40464208984375,-1.2189911748468876,-1.1516885207507759,-0.09679481563810259
1667857278426663000,10.414662841796876,-1.2293331206411122,-0.9238407921724021,-0.257824495299533
1667857278436683000,10.42468310546875,-1.2300918300539254,-0.6581215250350535,-0.49303515386134383
1667857278446703900,10.434703857421875,-1.261961717045307,-0.4911357499808073,-0.7447338597569614
1667857278456725200,10.444725341796875,-1.2514105124145745,-0.44430444070100783,-0.8341754265554249
1667857278466745000,10.4547451171875,-1.1028665491104126,-0.3859010593101382,-0.7073861989416181
1667857278476766200,10.46476611328125,-0.8326759817779064,-0.325103366661258,-0.4868384181130677
1667857278486786000,10.4747861328125,-0.6263514451563358,-0.2841806603707373,-0.3962630249790847
1667857278496807200,10.48480712890625,-0.1595633699685335,-0.1884665891740471,-0.5578070473708212
1667857278506827000,10.494826904296875,0.5129027606308459,0.028140052813291547,-0.7503384017657488
1667857278516848000,10.50484814453125,1.073667342633009,0.20773396502807734,-0.7653823147058486
1667857278526868200,10.5148681640625,1.4185638991206884,0.3438457322604954,-0.6799731452286243
1667857278536889000,10.52488916015625,1.5173451758682728,0.3985656758982688,-0.6059313556032255
1667857278546909200,10.5349091796875,1.406016552236676,0.4045276530425995,-0.5086824760546907
1667857278556930000,10.544929931640626,1.2365507969349623,0.36382863597273823,-0.4549016764305532
1667857278566950100,10.5549501953125,1.0712947682827711,0.30549561640433964,-0.40165790629256515
1667857278576971000,10.564970947265625,0.9219821586936712,0.2591742294080555,-0.32158096468877045
1667857278586991000,10.5749912109375,0.7152922958910465,0.1718134874716401,-0.20698946680370717
1667857278597012000,10.585011962890626,0.469684965673089,-0.0270224469602108,-0.03279760542870499
1667857278607032000,10.595031982421874,0.16037877800464628,-0.2730637846812606,0.11888272880557924
1667857278617053000,10.605052978515625,-0.25082360356152056,-0.4667456242855638,0.2247552789883688
1667857278627073000,10.615072998046875,-0.6034533846497535,-0.5876579957552254,0.34740042906738816
1667857278637094100,10.62509423828125,-0.8023311123967171,-0.7009530971542001,0.36362964280191806
1667857278647114000,10.635114013671876,-0.9457271914184093,-0.754360058497265,0.2836379317961633
1667857278657135000,10.645135009765625,-1.1162503468185663,-0.7279203798610716,0.09770813109073788
1667857278667155000,10.655155029296875,-1.171296526736021,-0.6576159136004746,-0.00644629006255418
1667857278677176000,10.665176025390625,-1.0821388183802365,-0.5415335926357656,0.02836096555497497
1667857278687197000,10.675197021484376,-1.0057225181758402,-0.33081820064410566,0.04545662339311093
1667857278697217000,10.685217041015624,-0.9579910451859235,-0.14532178638726473,-0.005647467835061252
1667857278707238000,10.69523779296875,-0.7643050408631563,-0.09816489841490983,-0.11778707905597983
1667857278717258000,10.705258056640625,-0.4724386482954025,-0.10426767226941883,-0.15801486188489944
1667857278727278800,10.71527880859375,-0.16481237653791903,-0.11008015794046222,-0.14964673691429198
1667857278737299000,10.725298828125,0.11836626718342304,-0.06745163411274552,-0.0997639311093837
1667857278747320000,10.735320068359375,0.3944026379346847,0.0145056413449347,-0.04490837839320302
1667857278757340000,10.74533984375,0.5623047971814871,0.07448474761992692,0.030387941337935626
1667857278767361000,10.755361083984376,0.6403565896332264,0.09982362540736794,0.14231047574207187
1667857278777380900,10.765380859375,0.6367886680185795,0.08961509673446416,0.18860365955717862
1667857278787402000,10.775402099609375,0.6370949574887752,0.019747195260226724,0.23822781442590057
1667857278797421800,10.785421875,0.6527028609871864,-0.016120821456611156,0.2859184074161574
1667857278807443200,10.795443115234375,0.5825953055381775,-0.0590709053888917,0.345280733499676
1667857278817463000,10.805463134765626,0.3439899630367756,-0.08455101827792823,0.29351277153529226
1667857278827484200,10.815484130859375,0.2414502105385065,-0.13856719756051897,0.2519087684497237
1667857278837504000,10.82550390625,0.2553542327284813,-0.19460355755910277,0.3169892164517194
1667857278847525000,10.835525146484375,0.2452022565484047,-0.22717297112196683,0.36188378551527856
1667857278857545200,10.845545166015626,0.1281149232596159,-0.28983737095817924,0.3866744548354298
1667857278867566000,10.855566162109374,-0.04235796325802803,-0.31908114722967146,0.35610991482157256
1667857278877586200,10.865586181640625,-0.2283405535966158,-0.2897075340334326,0.2818789958322421
1667857278887607000,10.87560693359375,-0.2571037067443132,-0.26280432953871785,0.14673720614314079
1667857278897627100,10.885627197265626,-0.15371990463733673,-0.25741511078104373,0.06539798951856791
1667857278907648000,10.89564794921875,-0.04379179545342922,-0.27596345164552327,0.049995107072964305
1667857278917668000,10.905668212890625,0.007950666743516922,-0.24776677327416835,0.02889057891964912
1667857278927689000,10.91568896484375,-0.03916764278411865,-0.18155585993751883,-0.04243241673372686
1667857278937710000,10.9257099609375,-0.028640403550863263,-0.09876439867801964,-0.12243863118886947
1667857278947730200,10.935730224609374,0.021432664129137993,-0.040756446345523,-0.191459889238514
1667857278957751000,10.9457509765625,-0.018743863436579702,-0.01148366317525506,-0.2181604107679799
1667857278967771100,10.955771240234375,0.04263210402429104,-0.03221402425393462,-0.20646865779999643
1667857278977792000,10.9657919921875,0.16451953107118605,-0.08236614851951599,-0.12227986043058335
1667857278987812000,10.97581201171875,0.24752748462557791,-0.12633527330122887,-0.12188981993338092
1667857278997833000,10.9858330078125,0.27966800525188446,-0.10480579773411154,-0.14813529117172583
1667857279007853000,10.99585302734375,0.2670394098252058,-0.03893887552954256,-0.15760533123593776
1667857279017874000,11.0058740234375,0.29777883148193357,-0.03279697524104267,-0.11800788219980894
1667857279027894000,11.01589404296875,0.297781754091382,-0.10593878381941467,-0.12997613228792324
1667857279037915000,11.025914794921874,0.17244973954856394,-0.13913228409737347,-0.1745512601387687
1667857279047935000,11.03593505859375,0.048635728353261944,-0.19359145790711044,-0.23195719145750626
1667857279057956000,11.0459560546875,0.03871639188528061,-0.2441897550376132,-0.20499257563175632
1667857279067976700,11.055976806640626,0.06924363209605217,-0.27564835781436414,-0.16136333206258713
1667857279077997600,11.06599755859375,0.0306996741682291,-0.274238125690259,-0.16600785166649146
1667857279088017700,11.076017578125,-0.02092646817266941,-0.2490051559627056,-0.09873548311078921
1667857279098038800,11.086038818359375,-0.09106441875994205,-0.2716903774362057,-0.17459314478542654
1667857279108058600,11.09605859375,-0.03918225583136081,-0.31230606360416857,-0.23705836878772824
1667857279118079700,11.106079833984374,0.08625672621726989,-0.28701818535160273,-0.1929676451866515
1667857279128099600,11.116099609375,0.33959435842633245,-0.30758206728957593,-0.2130678186030127
1667857279138120700,11.12612060546875,0.6497001720398664,-0.31171858257241547,-0.17752897904161363
1667857279148140500,11.136140625,0.7256172905504703,-0.23253161207828668,-0.1557203029406257
1667857279158161700,11.14616162109375,0.636972207891941,-0.24595259999167174,-0.31244543554224075
1667857279168182800,11.156182861328125,0.6624526861071586,-0.30123865307960657,-0.4180210120724514
1667857279178202600,11.16620263671875,0.908839768525958,-0.333210356477648,-0.41499563636928793
1667857279188223700,11.1762236328125,1.3347142340451479,-0.28864503763476385,-0.18478896010722964
1667857279198243600,11.18624365234375,1.8103186528950928,-0.17467074006628244,0.13957747971476056
1667857279208264700,11.1962646484375,1.9642741198539733,-0.1713440981279127,0.15330224548084662
1667857279218284800,11.206284912109375,1.7874971647560596,-0.32496695386525243,-0.04260659512369893
1667857279228306000,11.216305908203125,1.3322177410542964,-0.6678861093327403,-0.26591115471394733
1667857279238325800,11.22632568359375,0.536743070423603,-1.1674757994040845,-0.26248693415261803
1667857279248347000,11.236346923828124,-0.4219979163467884,-1.623202090090513,-0.00774900669157505
1667857279258366700,11.24636669921875,-1.225213994884491,-1.9208678165867923,0.33772034471537915
1667857279268387800,11.256387939453125,-1.9219255089461802,-2.1355397641845046,0.47932680037394165
1667857279278408000,11.266407958984376,-2.4424802456349135,-2.37155596697554,0.25870639270059764
1667857279288428800,11.2764287109375,-2.56727391551733,-2.5070865733191368,0.1927286487990059
1667857279298449000,11.286448974609375,-2.2564853803366423,-2.357025337319821,0.31899208070673046
1667857279308469800,11.2964697265625,-1.2246335646480322,-1.9590802044726907,0.23805826654527334
1667857279318489900,11.30648974609375,0.06476093372404575,-1.5390722928993403,0.10783559388406574
1667857279328510700,11.3165107421875,1.0258341628342866,-1.030980878072977,0.02578137912424281
1667857279338530800,11.32653076171875,1.91836401707232,-0.46646399433258917,-0.10602058035135269
1667857279348551700,11.3365517578125,2.8198136753469702,0.035479346192814405,-0.017267379409540443
1667857279358571800,11.34657177734375,3.3120056563824414,0.3681611487517133,0.24611012864094226
1667857279368592600,11.356592529296876,2.9998095924913883,0.6356151672597974,0.37935835966840387
1667857279378612700,11.36661279296875,1.9872528443813322,0.8924550354361533,0.2413301643554121
1667857279388633900,11.3766337890625,0.9399404247105121,1.324333417545259,0.3718012953523546
1667857279398653700,11.38665380859375,0.08188917865753173,1.919369102461636,0.7073210247509181
1667857279408674800,11.3966748046875,-0.6922533656090497,2.4980638934299346,0.7776651654347777
1667857279418694700,11.406694580078126,-1.2788561532229183,2.8132623540073634,0.5876859797406941
1667857279428715800,11.4167158203125,-1.8830571413695811,2.780131945560872,0.10144658696670085
1667857279438736600,11.426736572265625,-2.4926468368172645,2.669282629878819,-0.1582738781472668
1667857279448756700,11.4367568359375,-2.985976881971955,2.755665905085206,-0.007767309533245861
1667857279458777600,11.446777587890624,-3.0492315027862786,2.9975077452898025,0.25104294540062544
1667857279468797700,11.456797607421874,-2.5798621789336202,3.314580475306511,0.6409548477873206
1667857279478818600,11.466818603515625,-2.1456775657087563,3.6195854586496945,1.1274568004876375
1667857279488838700,11.476838623046875,-1.8609055153161287,3.9831051748037334,1.3753025572821498
1667857279498859500,11.486859619140626,-1.7444255002707243,4.310361445182561,1.5673498544871807
1667857279508879600,11.496879638671874,-1.844244887894392,4.523721579529345,1.8070169810011982
1667857279518900700,11.506900634765625,-2.3546973327636715,4.543945160129666,1.8295605289816856
1667857279528920600,11.516920654296875,-3.0367396854817867,4.263795801101625,1.7125494757995008
1667857279538941700,11.526941650390626,-4.313474608767033,3.8445740714699026,1.496781111267209
1667857279548961500,11.53696142578125,-5.974053951093554,3.169427323484421,1.2122988376013935
1667857279558983000,11.54698291015625,-7.700949055370688,2.3438676034525034,0.7119160974562168
1667857279569002800,11.557002685546875,-8.86098067624867,1.7247431869402527,0.3336228828012943
1667857279579024000,11.56702392578125,-9.196244311994313,1.0865455289065837,-0.15937164678871632
1667857279589044000,11.5770439453125,-8.606743464851379,0.40941345232278104,-0.6445616401076316
1667857279599064800,11.58706494140625,-7.356428346458077,-0.37455841204077,-0.8522465052969753
1667857279609085000,11.5970849609375,-6.294387144210934,-1.0806500411272049,-0.7391311443790793
1667857279619105800,11.607105712890625,-5.791084571096301,-1.4993822336763143,-0.653445057656616
1667857279629126000,11.6171259765625,-5.446995239338278,-1.7705179729044436,-0.6378000370182096
1667857279639146800,11.627146728515624,-5.121211964121461,-1.9124176758885383,-0.7425833306595683
1667857279649166800,11.637166748046875,-4.693962703117728,-2.0023568900108337,-0.885210909526795
1667857279659187700,11.647187744140625,-4.085878736057877,-2.0668658948004244,-0.8213106842853128
1667857279669208800,11.657208740234376,-3.365561890003085,-2.070247938454151,-0.4522317265689373
1667857279679228700,11.667228759765624,-2.6404391049712896,-2.0247195284664627,-0.2304313883960247
1667857279689249800,11.677249755859375,-1.9724621024847029,-1.981453218191862,-0.30249884574115277
1667857279699270000,11.687269775390625,-1.3387655552625655,-2.0252327386856077,-0.43106414311677216
1667857279709290800,11.697290771484376,-0.76855042334795,-2.1045453448534013,-0.579602845723927
1667857279719310800,11.707310791015624,-0.22904373342990875,-2.1149659088417887,-0.6406712085403502
1667857279729331700,11.717331787109375,0.18566636399626732,-2.1357737190708517,-0.6874465498492122
1667857279739351800,11.727351806640625,0.5587170018225908,-2.1095020904779433,-0.6306858210988342
1667857279749372700,11.73737255859375,1.0180050766438244,-2.1018308251976965,-0.598230389304459
1667857279759392800,11.747392822265626,1.3181067981153727,-1.9561215007975696,-0.5243643215721473
1667857279769413600,11.75741357421875,1.5155413413166998,-1.739862137877941,-0.48948622920811174
1667857279779433700,11.767433837890625,1.8330752591043709,-1.5786910404518246,-0.4225511297827586
1667857279789454600,11.77745458984375,2.1052678139090535,-1.471256793910265,-0.27787834535613654
1667857279799474700,11.787474609375,2.2485510802060364,-1.3759993073746561,-0.19680442860424519
1667857279809495800,11.797495849609374,2.4476304680049417,-1.3129896012321114,-0.14996099049523473
1667857279819515600,11.807515625,2.655596926614642,-1.2641823157042265,-0.07159954757243395
1667857279829536800,11.817536865234375,2.8580653723299503,-1.313325993579626,-0.05552088475711643
1667857279839556600,11.827556640625,3.072926851150393,-1.3457052913978695,-0.058551612488832325
1667857279849577700,11.83757763671875,3.2376661624521015,-1.2833768455177545,-0.11046228912584483
1667857279859597600,11.84759765625,3.361760744154453,-1.1870412083566189,-0.13304266198538242
1667857279869618700,11.85761865234375,3.5286335603535175,-1.0507277810722588,-0.14152794706225394
1667857279879638800,11.867638671875,3.705117669984698,-0.8238380108058452,-0.09840067993216216
1667857279889659600,11.87765966796875,3.8086645536988972,-0.5803875663608312,-0.08773059816211462
1667857279899679700,11.8876796875,3.9195331586033104,-0.3192030200436711,-0.1397602798026055
1667857279909700600,11.89770068359375,3.9770325768917796,-0.007943067958950997,-0.11210296900495886
1667857279919721700,11.9077216796875,3.817711783507466,0.40587037288844585,-0.032673458459228276
1667857279929741600,11.917741455078126,3.6238977688908576,0.7857246993802487,-0.11922315800739451
1667857279939763000,11.927762939453125,3.5601772841304538,1.0821187985055147,-0.2233511478114873
1667857279949782800,11.93778271484375,3.802735748171806,1.334142863897979,-0.24786351164691148
1667857279959804000,11.947803955078125,3.953957990774512,1.379233466990292,-0.3572440699506551
1667857279969823700,11.95782373046875,3.957391472354531,1.436338040742278,-0.33281452556047586
1667857279979844900,11.967844970703124,4.04900125003755,1.5401871222734451,-0.16914799458943305
1667857279989864700,11.97786474609375,3.8899277094125746,1.6346341692090034,-0.18448186691943555
1667857279999885800,11.9878857421875,3.4540573350578545,1.8325217168748378,-0.30400888497792183
1667857280009906000,11.997906005859376,3.0943817271113394,1.9694260957896708,-0.44913668316304683
1667857280019926800,12.0079267578125,2.9588088890612125,2.048572697740793,-0.4764970203081146
1667857280029947000,12.01794677734375,2.9495728586822745,2.125406784965843,-0.5467917688922956
1667857280039967700,12.0279677734375,3.0386931576371192,2.18762855560109,-0.6333513870462775
1667857280049987800,12.03798779296875,3.1036674418509005,2.223216440202296,-0.6769033093292266
1667857280060008700,12.0480087890625,3.005298253035545,2.2291971220470965,-0.7066404951408505
1667857280070028300,12.0580283203125,2.8191297847360373,2.217214569438994,-0.6790451436635107
1667857280080049200,12.068049072265625,2.557665544694662,2.180007851464301,-0.5911086476657539
1667857280090069200,12.0780693359375,2.195827790278196,2.1498975214913485,-0.5004046597160399
1667857280100090400,12.08809033203125,1.8057295715391635,2.1771832955628634,-0.4291987145710736
1667857280110110200,12.098110107421874,1.4674153160512446,2.1998802805393933,-0.3923257951280102
1667857280120131300,12.10813134765625,1.183435877341032,2.1376642089925704,-0.38451625388823446
1667857280130151200,12.118151123046875,0.833985895332694,2.007928260402381,-0.37103812896013255
1667857280140172300,12.12817236328125,0.5196235933184623,1.8369671519763766,-0.382517773547396
1667857280150193200,12.138193115234374,0.236387666451931,1.6770729426182807,-0.39977826655842363
1667857280160213200,12.148213134765625,0.009376900154352188,1.5268872034564613,-0.3313503712920472
1667857280170234000,12.158234130859375,-0.042163317468762396,1.3424946587882935,-0.16767635113429277
1667857280180254200,12.168254150390625,0.07291267599761486,1.2257201177757233,-0.046319450767524535
1667857280190275000,12.178275146484374,0.24825229176878927,1.170756866901368,-0.0034662513384595512
1667857280200295200,12.188295166015624,0.4142500786989927,1.1530448307305574,-0.003258088480494916
1667857280210316300,12.19831640625,0.4710433945447206,1.1618433464750646,0.014525186295621096
1667857280220336000,12.208336181640625,0.40093759266138074,1.1743727923762053,0.02788885453119874
1667857280230357200,12.218357177734376,0.3265536750674248,1.17324042734541,-0.0053343467652797695
1667857280240377000,12.228377197265624,0.2898708348363638,1.1084330971963703,0.03364290627958253
1667857280250398200,12.238398193359375,0.2703822905123234,0.9602152971066534,0.08924112145607359
1667857280260418300,12.248418212890625,0.29967560501396656,0.8108299876075238,0.16429792420975864
1667857280270439400,12.258439453125,0.2902560347616672,0.705591278348863,0.2544856514667161
1667857280280459300,12.268459228515624,0.27986849626004695,0.6477625550407916,0.33132498112246395
1667857280290480400,12.27848046875,0.26621231135129925,0.592799596427381,0.3946765960378572
1667857280300500500,12.28850048828125,0.22638065170049665,0.5453568772509694,0.42048714645765717
1667857280310521300,12.298521240234376,0.2243272263020277,0.45293921725116665,0.3937170668233186
1667857280320541400,12.30854150390625,0.3186883485198021,0.3798056650444865,0.3828551522755995
1667857280330562300,12.318562255859375,0.4624737191200256,0.29822971705459056,0.3897960574546829
1667857280340582400,12.32858251953125,0.6494073265731334,0.1458644418966025,0.3941882645316422
1667857280350603300,12.338603271484375,0.9033224664092063,-0.03701411801204085,0.3768312523435801
1667857280360623400,12.348623291015626,1.079151911523938,-0.1116239533163607,0.34575112749040127
1667857280370644200,12.358644287109374,1.354225574722886,-0.1777022532492876,0.33939109093919395
1667857280380664300,12.368664306640625,1.5717413674443959,-0.393139486131072,0.42799847193583845
1667857280390685400,12.378685546875,1.728632887855172,-0.3090232060085982,0.3624504064220935
1667857280400705300,12.388705322265626,1.8960785355061291,-0.08543350020088254,0.28512170408051457
1667857280410726400,12.398726318359374,2.0851766275167463,0.13072064877860248,0.23270165314925834
1667857280420747300,12.408747314453125,2.1247148571789265,0.292722497940436,0.16386618172898887
1667857280430767400,12.418767333984375,2.0359592998832463,0.4055675905495882,0.11064544540671631
1667857280440788200,12.428788330078126,1.8790186796337365,0.4017615493301302,0.11682459069937468
1667857280450808300,12.438808349609374,1.710505110490322,0.33586496263965965,0.06267283887099474
1667857280460829200,12.4488291015625,1.6638550029963255,0.21881964186169206,0.013241905019432305
1667857280470849300,12.458849365234375,1.717536324301362,0.08699315073303877,-0.0234265961590223
1667857280480870100,12.4688701171875,1.6732967850804328,-0.03199139447920024,-0.09742315840320662
1667857280490890200,12.47889013671875,1.745770485138893,-0.1625228773612529,-0.16182775297025218
1667857280500911400,12.488911376953125,2.055585206851363,-0.25108948795609176,-0.10875975952427834
1667857280510931200,12.49893115234375,2.3396581690639255,-0.2670389714337885,-0.08755425521451979
1667857280520952300,12.508952392578125,2.530138655343652,-0.1898113548465073,-0.15200520967394113
1667857280530972200,12.51897216796875,2.660110020124912,-0.03324592458494007,-0.1777718113541603
