time,seconds_elapsed,z,y,x
1667857268065450800,0.05345068359375,0.025978637859225273,0.025990258902311325,-0.03500782698392868
1667857268075470600,0.063470703125,0.016406970098614693,0.0013991622254252434,-0.042197033762931824
1667857268085491700,0.07349169921875,-0.006449093576520681,-0.001488424837589264,-0.04255189374089241
1667857268095511600,0.083511474609375,-0.013788499869406223,0.018543606624007225,-0.04465579241514206
1667857268105532700,0.09353271484375,-0.009573032148182392,0.024891486391425133,-0.059387706220149994
1667857268115552800,0.103552734375,-0.0007433223072439432,0.001628507161512971,-0.08473967015743256
1667857268125573600,0.11357373046875,0.0039633335545659065,-0.018402161076664925,-0.10724619776010513
1667857268135593700,0.12359375,0.0044288537465035915,-0.021940968930721283,-0.12267575412988663
1667857268145614600,0.133614501953125,0.008487029932439327,-0.022776370868086815,-0.13480155169963837
1667857268155634700,0.143634765625,0.012740097939968109,-0.02498519793152809,-0.13804741203784943
1667857268165655600,0.153655517578125,0.01498432643711567,-0.03080758824944496,-0.13944409787654877
1667857268175675600,0.163675537109375,0.014236245304346085,-0.030237937346100807,-0.1274428367614746
1667857268185696500,0.173696533203125,0.022537600249052048,-0.03217040374875069,-0.11175482720136642
1667857268195716600,0.183716552734375,0.0267640370875597,-0.044787127524614334,-0.0965452492237091
1667857268205737500,0.193737548828125,0.032067202031612396,-0.08323533833026886,-0.07883656769990921
1667857268215757600,0.203757568359375,0.03351729363203049,-0.1206682026386261,-0.06988701969385147
1667857268225778700,0.21377880859375,0.04065832868218422,-0.15552593767642975,-0.06628537178039551
1667857268235798500,0.223798583984375,0.03628621622920036,-0.17786799371242523,-0.07059196382761002
1667857268245819600,0.233819580078125,0.023987092077732086,-0.18449252843856812,-0.08622812479734421
1667857268255839500,0.243839599609375,0.0001637843088246882,-0.13323652744293213,-0.09500563889741898
1667857268265860600,0.253860595703125,-0.017819860950112343,-0.003085695207118988,-0.09165199100971222
1667857268275880400,0.26388037109375,-0.025484971702098846,0.1350143849849701,-0.08803142607212067
1667857268285901600,0.273901611328125,-0.013490877114236355,0.22387413680553436,-0.09863174706697464
1667857268295921700,0.283921630859375,0.00580692058429122,0.2753533124923706,-0.12143160402774811
1667857268305942500,0.293942626953125,0.02893158420920372,0.2566129267215729,-0.16962450742721558
1667857268315962600,0.303962646484375,0.050328753888607025,0.15900248289108276,-0.23986777663230896
1667857268325983500,0.3139833984375,0.061116453260183334,0.032382864505052567,-0.3398958742618561
1667857268336004600,0.324004638671875,0.06161899119615555,-0.05568893626332283,-0.445218026638031
1667857268346024400,0.3340244140625,0.06055069714784622,-0.11947330087423325,-0.5484879016876221
1667857268356045800,0.3440458984375,0.06336405873298645,-0.20169813930988312,-0.6462616324424744
1667857268366065400,0.3540654296875,0.06058454513549805,-0.33593714237213135,-0.7228254675865173
1667857268376086800,0.364086669921875,0.037529561668634415,-0.43574443459510803,-0.7682294249534607
1667857268386106600,0.374106689453125,-0.00042411108734086156,-0.4130036234855652,-0.7850751280784607
1667857268396127700,0.384127685546875,-0.04468025639653206,-0.28607791662216187,-0.7925846576690674
1667857268406147800,0.39414794921875,-0.08970044553279877,-0.12075719982385635,-0.8012733459472656
1667857268416168700,0.404168701171875,-0.13018953800201416,0.05016075074672699,-0.8164142370223999
1667857268426188800,0.414188720703125,-0.15290184319019318,0.15352173149585724,-0.8236150145530701
1667857268436209700,0.424209716796875,-0.1495787501335144,0.21199382841587067,-0.8152462840080261
1667857268446229800,0.434229736328125,-0.1294727474451065,0.2552104890346527,-0.7894700169563293
1667857268456250600,0.444250732421875,-0.0790037214756012,0.29418665170669556,-0.7632834315299988
1667857268466270700,0.454270751953125,0.008798518218100071,0.25522908568382263,-0.7195906639099121
1667857268476291600,0.46429150390625,0.11266446113586426,0.18795816600322723,-0.6383890509605408
1667857268486311700,0.474311767578125,0.20245283842086792,0.09194955229759216,-0.5524898171424866
1667857268496332500,0.48433251953125,0.270591139793396,0.03008805215358734,-0.46323126554489136
1667857268506352600,0.4943525390625,0.3233163058757782,-0.012556970119476318,-0.38722285628318787
1667857268516373800,0.504373779296875,0.36155158281326294,-0.02472255751490593,-0.3278309106826782
1667857268526393600,0.5143935546875,0.36463382840156555,-0.05569276213645935,-0.27949222922325134
1667857268536414700,0.524414794921875,0.3402736186981201,-0.12705588340759277,-0.27924031019210815
1667857268546434600,0.5344345703125,0.29026955366134644,-0.17950429022312164,-0.3050852119922638
1667857268556455700,0.54445556640625,0.2559025287628174,-0.14380088448524475,-0.3567180335521698
1667857268566475500,0.5544755859375,0.24944306910037994,-0.05614975839853287,-0.43601474165916443
1667857268576496600,0.56449658203125,0.2585255205631256,0.05227471888065338,-0.5511980652809143
1667857268586516700,0.574516845703125,0.26348811388015747,0.16156840324401855,-0.6891034841537476
1667857268596537600,0.58453759765625,0.25668346881866455,0.30936506390571594,-0.8233158588409424
1667857268606557700,0.5945576171875,0.2727077007293701,0.49189233779907227,-0.9343397617340088
1667857268616578600,0.60457861328125,0.3267914354801178,0.7108169794082642,-0.9745984673500061
1667857268626598700,0.6145986328125,0.3925853371620178,0.930389940738678,-0.9172411561012268
1667857268636619500,0.62461962890625,0.44044873118400574,1.069129228591919,-0.7891409993171692
1667857268646640600,0.634640625,0.4684376120567322,1.0697400569915771,-0.646952211856842
1667857268656660500,0.644660400390625,0.47404834628105164,0.9748031497001648,-0.5236198902130127
1667857268666681600,0.654681640625,0.4240972697734833,0.7492562532424927,-0.4131110608577728
1667857268676701400,0.664701416015625,0.30693602561950684,0.47654590010643005,-0.297620952129364
1667857268686722600,0.67472265625,0.11366156488656998,0.24025486409664154,-0.16167986392974854
1667857268696742700,0.68474267578125,-0.11277396976947784,0.146211177110672,-0.04673277214169502
1667857268706763500,0.694763427734375,-0.34110769629478455,0.19562238454818726,0.03241752088069916
1667857268716783600,0.70478369140625,-0.5475476980209351,0.3367438316345215,0.07528375834226608
1667857268726804500,0.714804443359375,-0.7393385767936707,0.48619508743286133,0.05246507376432419
1667857268736824600,0.724824462890625,-0.8821764588356018,0.6369366645812988,-0.050808850675821304
1667857268746845700,0.734845703125,-0.9744627475738525,0.8062337040901184,-0.20021679997444153
1667857268756865500,0.744865478515625,-1.0468271970748901,0.682316780090332,-0.37749865651130676
1667857268766886700,0.75488671875,-1.0458223819732666,0.4812442362308502,-0.5501231551170349
1667857268776906800,0.76490673828125,-0.954408586025238,0.2535330355167389,-0.6993554830551147
1667857268786927600,0.774927734375,-0.8087418079376221,0.03933216631412506,-0.7616965770721436
1667857268796947700,0.78494775390625,-0.6064467430114746,-0.1542349010705948,-0.7193813323974609
1667857268806968600,0.794968505859375,-0.3800286054611206,-0.2361154556274414,-0.5860746502876282
1667857268816988700,0.80498876953125,-0.1492670476436615,-0.15815088152885437,-0.47320055961608887
1667857268827009800,0.815009765625,0.01770697347819805,0.09123148024082184,-0.4269660711288452
1667857268837029600,0.825029541015625,0.05607007443904877,0.2588157057762146,-0.4232376515865326
1667857268847050800,0.83505078125,0.04393628239631653,0.3229369521141052,-0.44808417558670044
1667857268857070600,0.845070556640625,0.046748045831918716,0.3471868932247162,-0.49852925539016724
1667857268867091700,0.855091796875,0.054870303720235825,0.3390195071697235,-0.5707284808158875
1667857268877111600,0.865111572265625,0.03165392950177193,0.24943450093269348,-0.6728937029838562
1667857268887132700,0.875132568359375,-0.01894582435488701,0.11911691725254059,-0.7875577807426453
1667857268897152800,0.88515283203125,-0.07649913430213928,0.023338723927736282,-0.8736476898193359
1667857268907173600,0.895173583984375,-0.11810579895973206,-0.04769796505570412,-0.9011279940605164
1667857268917193700,0.90519384765625,-0.15020248293876648,-0.08909361064434052,-0.8672664761543274
1667857268927214600,0.915214599609375,-0.170497864484787,-0.13485832512378693,-0.7527633309364319
1667857268937234700,0.925234619140625,-0.1827087253332138,-0.17675331234931946,-0.5866542458534241
1667857268947255600,0.935255615234375,-0.1716848760843277,-0.213981494307518,-0.4185781478881836
1667857268957276700,0.945276611328125,-0.14884985983371735,-0.22846002876758575,-0.2828916907310486
1667857268967296500,0.955296630859375,-0.1269664168357849,-0.2430112659931183,-0.19884364306926727
1667857268977317600,0.965317626953125,-0.08638810366392136,-0.2276427000761032,-0.15628233551979065
1667857268987337500,0.97533740234375,-0.03819432482123375,-0.16395550966262817,-0.12457148730754852
1667857268997358600,0.985358642578125,0.016524845734238625,-0.09673359245061874,-0.09437869489192963
1667857269007378700,0.995378662109375,0.05310344696044922,-0.06876200437545776,-0.05951782688498497
1667857269017399600,1.005399658203125,0.057602059096097946,-0.06131580471992493,-0.03456693887710571
1667857269027419600,1.015419677734375,0.042731765657663345,-0.07946498692035675,-0.02617824450135231
1667857269037440500,1.0254404296875,0.005359095986932516,-0.11618704348802567,-0.03333469480276108
1667857269047460600,1.035460693359375,-0.02081649750471115,-0.13946984708309174,-0.026694804430007935
1667857269057481000,1.04548095703125,-0.024166220799088478,-0.15239736437797546,0.005839969031512737
1667857269067501000,1.0555009765625,-0.023854035884141922,-0.15965460240840912,0.06373239308595657
1667857269077522000,1.06552197265625,-0.03099050745368004,-0.16015101969242096,0.13518446683883667
1667857269087542000,1.0755419921875,-0.03719397261738777,-0.15654876828193665,0.2074756771326065
1667857269097563100,1.085563232421875,-0.044924598187208176,-0.15903723239898682,0.2542402446269989
1667857269107583000,1.0955830078125,-0.04210738465189934,-0.18190047144889832,0.2707862854003906
1667857269117604000,1.10560400390625,-0.03641674295067787,-0.19236190617084503,0.26693668961524963
1667857269127624000,1.1156240234375,-0.01973567344248295,-0.18836238980293274,0.2241879552602768
1667857269137645000,1.12564501953125,-0.0034227457363158464,-0.1466250717639923,0.1725897490978241
1667857269147665000,1.135664794921875,0.0059879538603127,-0.10943073034286499,0.14455311000347137
1667857269157686000,1.14568603515625,0.02473714016377926,-0.07700487971305847,0.15646223723888397
1667857269167706000,1.1557060546875,0.05182792618870735,-0.041517771780490875,0.20270825922489166
1667857269177727000,1.16572705078125,0.07577506452798843,-0.04707792028784752,0.2640456557273865
1667857269187747000,1.1757470703125,0.08663909137248993,-0.0701870247721672,0.3310486972332001
1667857269197768000,1.185767822265625,0.09642328321933746,-0.09599252790212631,0.36695876717567444
1667857269207788000,1.1957880859375,0.09551802277565002,-0.11242826282978058,0.3696404695510864
1667857269217809000,1.205808837890625,0.08171938359737396,-0.10588300973176956,0.34631943702697754
1667857269227829000,1.2158291015625,0.0700247660279274,-0.08760281652212143,0.3094419240951538
1667857269237849900,1.225849853515625,0.06317431479692459,-0.06447353214025497,0.2874055802822113
1667857269247870000,1.235869873046875,0.05604833737015724,-0.05596749112010002,0.28418949246406555
1667857269257890800,1.245890869140625,0.05036621540784836,-0.05601383000612259,0.29891785979270935
1667857269267912000,1.255911865234375,0.05375459045171738,-0.06419894099235535,0.327496737241745
1667857269277932000,1.26593212890625,0.059943243861198425,-0.04858989268541336,0.35541439056396484
1667857269287953000,1.275952880859375,0.06624992191791534,-0.03828565776348114,0.37918907403945923
1667857269297973000,1.285972900390625,0.06285358965396881,-0.04979024827480316,0.40330588817596436
1667857269307993900,1.295993896484375,0.05150146037340164,-0.06462716311216354,0.42372438311576843
1667857269318014000,1.306013916015625,0.05462188646197319,-0.0789288729429245,0.44667312502861023
1667857269328034800,1.316034912109375,0.05889669060707092,-0.09744243323802948,0.4740943908691406
1667857269338055000,1.326054931640625,0.05833263322710991,-0.11594634503126144,0.5094351172447205
1667857269348076000,1.336075927734375,0.06068325415253639,-0.10024896264076233,0.5378802418708801
1667857269358096000,1.346095947265625,0.07087037712335587,-0.0710897445678711,0.5557900071144104
1667857269368117000,1.356116943359375,0.07561696320772171,-0.04931030794978142,0.5431013703346252
1667857269378136800,1.36613671875,0.07698263227939606,-0.04254188388586044,0.5275620818138123
1667857269388158200,1.376158203125,0.07707396149635315,-0.06032266467809677,0.5093839764595032
1667857269398178000,1.386177978515625,0.06776488572359085,-0.07035346329212189,0.49244949221611023
1667857269408199200,1.39619921875,0.06386259943246841,-0.07419716566801071,0.4648667275905609
1667857269418219000,1.406218994140625,0.05480918660759926,-0.07434337586164474,0.4445643723011017
1667857269428240100,1.416240234375,0.04747798666357994,-0.044897906482219696,0.4270731508731842
1667857269438260000,1.426260009765625,0.04495570436120033,-0.015142938122153282,0.42042112350463867
1667857269448281000,1.436281005859375,0.048714857548475266,-0.007583757862448692,0.4190697968006134
1667857269458301200,1.44630126953125,0.0525178536772728,-0.006348583847284317,0.42182162404060364
1667857269468322000,1.456322021484375,0.06470540910959244,-0.006355947349220514,0.4346165657043457
1667857269478342100,1.466342041015625,0.06618212908506393,-0.013677775859832764,0.4459240734577179
1667857269488363000,1.476363037109375,0.06979389488697052,-0.04048081487417221,0.4446163475513458
1667857269498383000,1.486383056640625,0.07709841430187225,-0.06697047501802444,0.43947699666023254
1667857269508404000,1.496404052734375,0.09623044729232788,-0.06520364433526993,0.43386951088905334
1667857269518424000,1.506424072265625,0.10903359204530716,-0.04757218807935715,0.42931923270225525
1667857269528445000,1.51644482421875,0.12068255990743637,-0.025130150839686394,0.429719477891922
1667857269538465000,1.526465087890625,0.11689155548810959,-0.00901536364108324,0.4228661060333252
1667857269548486000,1.53648583984375,0.10110165178775787,-0.01483961846679449,0.4146477282047272
1667857269558506000,1.546506103515625,0.08856801688671112,-0.04169546440243721,0.39733052253723145
1667857269568527000,1.556527099609375,0.0883965864777565,-0.07553539425134659,0.37369784712791443
1667857269578547000,1.566546875,0.08528681099414825,-0.08671428263187408,0.3425593674182892
1667857269588568000,1.576568115234375,0.07819585502147675,-0.09551952034235,0.311931312084198
1667857269598588000,1.586587890625,0.06861992180347443,-0.08368390053510666,0.27828308939933777
1667857269608609000,1.596609130859375,0.057024843990802765,-0.06539461016654968,0.24610580503940582
1667857269618628900,1.60662890625,0.05205724760890007,-0.051382649689912796,0.21327728033065796
1667857269628650000,1.61664990234375,0.04330766201019287,-0.04529237747192383,0.1744699776172638
1667857269638670000,1.626670166015625,0.04197022318840027,-0.03639262542128563,0.12482652813196182
1667857269648691000,1.63669091796875,0.041886359453201294,-0.031198635697364807,0.06828400492668152
1667857269658711800,1.6467119140625,0.03878777101635933,-0.03024655394256115,0.025402313098311424
1667857269668732000,1.65673193359375,0.028447484597563744,-0.031697552651166916,-0.020900722593069077
1667857269678753000,1.6667529296875,0.012249073013663292,-0.027836237102746964,-0.06682346761226654
1667857269688772900,1.67677294921875,-0.01696919836103916,-0.01817992702126503,-0.12323777377605438
1667857269698794000,1.6867939453125,-0.05576426163315773,-0.0032683569006621838,-0.1870196908712387
1667857269708813800,1.696813720703125,-0.09270497411489487,0.001378326676785946,-0.2579638957977295
1667857269718835000,1.7068349609375,-0.11334740370512009,0.0038928831927478313,-0.3285379111766815
1667857269728854800,1.716854736328125,-0.12855222821235657,0.031212089583277702,-0.3943988084793091
1667857269738876200,1.726876220703125,-0.1497991979122162,0.0528729110956192,-0.4504735469818115
1667857269748896000,1.73689599609375,-0.180124893784523,0.049148108810186386,-0.5060577392578125
1667857269758917000,1.746917236328125,-0.20475487411022186,0.025890987366437912,-0.560192346572876
1667857269768937000,1.75693701171875,-0.2228097766637802,0.008540227077901363,-0.5980555415153503
1667857269778958000,1.7669580078125,-0.24939396977424622,-0.023598000407218933,-0.6186891794204712
1667857269788978200,1.776978271484375,-0.25956422090530396,-0.04222025349736214,-0.6222860813140869
1667857269798999000,1.7869990234375,-0.25686192512512207,-0.03892166167497635,-0.6142444014549255
1667857269809019100,1.79701904296875,-0.23918505012989044,-0.05293096601963043,-0.6044915914535522
1667857269819040000,1.8070400390625,-0.22782719135284424,-0.07613828778266907,-0.6243574023246765
1667857269829060000,1.81706005859375,-0.22187550365924835,-0.13258756697177887,-0.693456768989563
1667857269839081000,1.8270810546875,-0.2377665936946869,-0.16758497059345245,-0.8022873401641846
1667857269849101000,1.83710107421875,-0.2833118736743927,-0.2527669072151184,-0.9501312375068665
1667857269859122000,1.847121826171875,-0.3389197289943695,-0.384855717420578,-1.0994219779968262
1667857269869142000,1.85714208984375,-0.34087711572647095,-0.46838873624801636,-1.098549723625183
1667857269879163100,1.8671630859375,-0.3225569725036621,-0.4473668038845062,-0.8635969161987305
1667857269889183000,1.877182861328125,-0.29060065746307373,-0.4978656768798828,-0.46775510907173157
1667857269899204000,1.8872041015625,-0.230245441198349,-0.5797712206840515,-0.08735398948192596
1667857269909224000,1.897223876953125,-0.1412610560655594,-0.642527163028717,0.12357733398675919
1667857269919245000,1.9072451171875,-0.0670587345957756,-0.60345858335495,0.11023782938718796
1667857269929265000,1.917264892578125,-0.04104740545153618,-0.41997408866882324,-0.15165023505687714
1667857269939286000,1.9272861328125,-0.04727520793676376,-0.20432886481285095,-0.6157217025756836
1667857269949306000,1.93730615234375,-0.050575438886880875,-0.023647192865610123,-1.1561356782913208
1667857269959327000,1.947326904296875,0.013860806822776794,0.12829147279262543,-1.5377824306488037
1667857269969347000,1.95734716796875,0.12055227905511856,0.23043981194496155,-1.608649492263794
1667857269979368000,1.967367919921875,0.22161763906478882,0.29236921668052673,-1.4147127866744995
1667857269989388000,1.977387939453125,0.30375245213508606,0.3208805024623871,-1.0955123901367188
1667857269999409000,1.987408935546875,0.3699767589569092,0.2989051342010498,-0.7719249725341797
1667857270009429000,1.997428955078125,0.4463619291782379,0.1942712366580963,-0.5063046813011169
1667857270019449900,2.007449951171875,0.5067467093467712,0.03696444258093834,-0.3232984244823456
1667857270029470000,2.017469970703125,0.5541335940361023,-0.13691562414169312,-0.20568585395812988
1667857270039490800,2.02749072265625,0.5706326365470886,-0.3019255995750427,-0.15175338089466095
1667857270049511000,2.037510986328125,0.5565329790115356,-0.5731604695320129,-0.1820225566625595
1667857270059532300,2.0475322265625,0.5043967962265015,-0.7599641680717468,-0.278651624917984
1667857270069552400,2.057552490234375,0.3964290916919708,-0.8883042335510254,-0.4051600396633148
1667857270079573500,2.067573486328125,0.23354564607143402,-0.8903465867042542,-0.5215319395065308
1667857270089593300,2.07759326171875,0.04780150577425957,-0.7956798076629639,-0.6153563261032104
1667857270099614500,2.087614501953125,-0.1198391541838646,-0.6585805416107178,-0.6354802846908569
1667857270109634300,2.09763427734375,-0.17663660645484924,-0.5112139582633972,-0.54315584897995
1667857270119655400,2.107655517578125,-0.16393892467021942,-0.41205620765686035,-0.33092400431632996
1667857270129676500,2.117676513671875,-0.1987360715866089,-0.32729196548461914,-0.06594013422727585
1667857270139696600,2.127696533203125,-0.2560001313686371,-0.26218992471694946,0.16063840687274933
1667857270149717500,2.137717529296875,-0.30109161138534546,-0.23510132730007172,0.34128257632255554
1667857270159737600,2.147737548828125,-0.35649573802948,-0.200241357088089,0.4349110722541809
1667857270169758500,2.157758544921875,-0.4011516273021698,-0.1768849790096283,0.4006333649158478
1667857270179778600,2.167778564453125,-0.4276796281337738,-0.14180955290794373,0.30357474088668823
1667857270189799400,2.17779931640625,-0.3930647671222687,-0.09711777418851852,0.18977230787277222
1667857270199819500,2.187819580078125,-0.2951571047306061,-0.0812959372997284,0.07967723906040192
1667857270209840600,2.197840576171875,-0.16007445752620697,-0.035026926547288895,0.006727694999426603
1667857270219860500,2.207860595703125,-0.016411565244197845,-0.004711100831627846,-0.02956053800880909
1667857270229881600,2.217881591796875,0.12310674786567688,0.04919000715017319,-0.010930175893008709
1667857270239901400,2.2279013671875,0.2457418590784073,0.05414588749408722,0.05819030478596687
1667857270249922600,2.237922607421875,0.34343788027763367,0.0015523259062319994,0.15073950588703156
1667857270259942700,2.247942626953125,0.41407689452171326,-0.06279550492763519,0.25269755721092224
1667857270269963500,2.257963623046875,0.4603510797023773,-0.12717987596988678,0.34643638134002686
1667857270279983600,2.267983642578125,0.5029008984565735,-0.16202867031097412,0.44993746280670166
1667857270290004500,2.27800439453125,0.5459564328193665,-0.16231997311115265,0.5685458779335022
1667857270300024600,2.288024658203125,0.5613561868667603,-0.17808136343955994,0.6836615204811096
1667857270310045400,2.29804541015625,0.5374349355697632,-0.1949368268251419,0.76993328332901
1667857270320065500,2.3080654296875,0.4919564127922058,-0.18528738617897034,0.8092202544212341
1667857270330086400,2.31808642578125,0.4377720057964325,-0.1256181001663208,0.7978309392929077
1667857270340106500,2.3281064453125,0.3799534738063812,-0.05651146173477173,0.7395881414413452
1667857270350127400,2.33812744140625,0.3230273723602295,-0.0030298305209726095,0.6569399833679199
1667857270360147500,2.3481474609375,0.2791483402252197,0.028553130105137825,0.5705374479293823
1667857270370168300,2.358168212890625,0.24764828383922577,0.009053151123225689,0.5013010501861572
1667857270380188400,2.3681884765625,0.2299869954586029,-0.03265754505991936,0.4639902114868164
1667857270390209500,2.37820947265625,0.21719560027122498,-0.06547857820987701,0.4647389352321625
1667857270400229400,2.3882294921875,0.20846575498580933,-0.09024491161108017,0.5053279399871826
1667857270410250500,2.39825048828125,0.20643752813339233,-0.10899452120065689,0.5825198888778687
1667857270420270300,2.408270263671875,0.22808343172073364,-0.11024992913007736,0.6931287050247192
1667857270430291500,2.41829150390625,0.2628844380378723,-0.10367662459611893,0.8134437203407288
1667857270440311600,2.4283115234375,0.31933361291885376,-0.10841918736696243,0.920802652835846
1667857270450332400,2.43833251953125,0.37606140971183777,-0.12376151233911514,0.9994267225265503
1667857270460352500,2.4483525390625,0.4110124707221985,-0.10960894078016281,1.0383623838424683
1667857270470373400,2.458373291015625,0.4189230799674988,-0.08045888692140579,1.0334163904190063
1667857270480393500,2.4683935546875,0.4087231755256653,-0.049426402896642685,0.9874345064163208
1667857270490414300,2.478414306640625,0.39940571784973145,-0.007819557562470436,0.921394407749176
1667857270500434400,2.488434326171875,0.39183276891708374,0.023036891594529152,0.8433065414428711
1667857270510455300,2.498455322265625,0.3852252662181854,0.025304369628429413,0.7581375241279602
1667857270520475400,2.508475341796875,0.37519821524620056,0.012367798946797848,0.6811250448226929
1667857270530496500,2.51849658203125,0.36213418841362,-0.021580863744020462,0.6198832988739014
1667857270540516400,2.528516357421875,0.3578994870185852,-0.06497707217931747,0.5809124708175659
1667857270550537500,2.538537353515625,0.3541271686553955,-0.09768183529376984,0.5503805875778198
1667857270560557600,2.5485576171875,0.3477105498313904,-0.1416652649641037,0.5189107656478882
1667857270570578700,2.55857861328125,0.34173911809921265,-0.21914494037628174,0.49129757285118103
1667857270580598500,2.5685986328125,0.3398173749446869,-0.23427969217300415,0.48179781436920166
1667857270590619600,2.57861962890625,0.3322077989578247,-0.2273533195257187,0.4966656267642975
1667857270600639500,2.588639404296875,0.31862303614616394,-0.22805505990982056,0.5144486427307129
1667857270610660600,2.59866064453125,0.2961655855178833,-0.2278795838356018,0.5335007905960083
1667857270620680400,2.608680419921875,0.2684415578842163,-0.22669874131679535,0.5471007823944092
1667857270630701600,2.61870166015625,0.23997440934181213,-0.22668051719665527,0.5488282442092896
1667857270640721700,2.6287216796875,0.2131635695695877,-0.2292320877313614,0.544749915599823
1667857270650742500,2.638742431640625,0.18503274023532867,-0.26500803232192993,0.5213534235954285
1667857270660762600,2.6487626953125,0.15767700970172882,-0.3246002495288849,0.48007732629776
1667857270670783500,2.658783447265625,0.12643148005008698,-0.38110533356666565,0.4084495007991791
1667857270680803600,2.668803466796875,0.09795323014259338,-0.42853596806526184,0.31372857093811035
1667857270690824400,2.678824462890625,0.061278872191905975,-0.4761635661125183,0.20447984337806702
1667857270700844500,2.688844482421875,0.022763969376683235,-0.49495747685432434,0.10386401414871216
1667857270710865400,2.698865478515625,-0.02223876118659973,-0.47210150957107544,0.027183404192328453
1667857270720886500,2.708886474609375,-0.06797322630882263,-0.46315038204193115,-0.023153003305196762
1667857270730906400,2.71890625,-0.10890369117259979,-0.44479161500930786,-0.05091230571269989
1667857270740926500,2.728926513671875,-0.15683285892009735,-0.3912317156791687,-0.05488414317369461
1667857270750947600,2.738947509765625,-0.2035747617483139,-0.30492594838142395,-0.06544425338506699
1667857270760968400,2.748968505859375,-0.25062641501426697,-0.19381354749202728,-0.0805550292134285
1667857270770988500,2.758988525390625,-0.29985031485557556,-0.09348329901695251,-0.10407533496618271
1667857270781009400,2.769009521484375,-0.35775142908096313,-0.012304289266467094,-0.13906580209732056
1667857270791029500,2.779029541015625,-0.3972080945968628,0.049140747636556625,-0.1695864051580429
1667857270801050400,2.78905029296875,-0.40594246983528137,0.07879557460546494,-0.19112205505371094
1667857270811070500,2.799070556640625,-0.39563456177711487,0.07292728126049042,-0.19555321335792542
1667857270821091300,2.80909130859375,-0.3884868919849396,-0.010120464488863945,-0.18151435256004333
1667857270831111400,2.819111328125,-0.38521188497543335,-0.12276622653007507,-0.14468276500701904
1667857270841132300,2.82913232421875,-0.38512668013572693,-0.18777024745941162,-0.07981642335653305
1667857270851152400,2.83915234375,-0.3736690580844879,-0.2183295637369156,0.0049112942069768906
1667857270861173500,2.849173583984375,-0.340342253446579,-0.1909317672252655,0.09615971893072128
1667857270871193300,2.859193359375,-0.27169132232666016,-0.0758611336350441,0.18496723473072052
1667857270881214500,2.86921435546875,-0.17458686232566833,0.09308847784996033,0.2479398101568222
1667857270891234300,2.879234375,-0.05121498182415962,0.27882853150367737,0.277092307806015
1667857270901255400,2.88925537109375,0.05778633430600166,0.4891015887260437,0.2718677222728729
1667857270911275300,2.899275146484375,0.10055127739906311,0.6907891035079956,0.22627203166484833
1667857270921296600,2.909296630859375,0.10318434238433838,0.7979302406311035,0.17198508977890015
1667857270931316500,2.91931640625,0.10725879669189453,0.78993821144104,0.12292496860027313
1667857270941337600,2.929337646484375,0.12338823080062866,0.696630597114563,0.07374463975429535
1667857270951357700,2.939357666015625,0.13072243332862854,0.5596113801002502,0.020270025357604027
1667857270961378600,2.949378662109375,0.11613337695598602,0.4245598018169403,-0.014014444313943386
1667857270971398700,2.959398681640625,0.07871879637241364,0.31139466166496277,-0.009219501167535782
1667857270981419500,2.96941943359375,0.047488439828157425,0.25148072838783264,0.034029167145490646
1667857270991439600,2.979439697265625,0.041857168078422546,0.2645377218723297,0.10547579824924469
1667857271001460500,2.98946044921875,0.07873022556304932,0.3583158850669861,0.18892142176628113
1667857271011480600,2.99948046875,0.1526499092578888,0.49365049600601196,0.24896375834941864
1667857271021501400,3.00950146484375,0.23419883847236633,0.6088985204696655,0.26764532923698425
1667857271031521500,3.019521484375,0.32219889760017395,0.6641101241111755,0.24672168493270874
1667857271041542700,3.029542724609375,0.4077116847038269,0.5767057538032532,0.20718412101268768
1667857271051562500,3.0395625,0.48956313729286194,0.43845313787460327,0.16264423727989197
1667857271061584000,3.049583984375,0.5539077520370483,0.2556487023830414,0.12731686234474182
1667857271071603700,3.059603759765625,0.5849146246910095,0.031185554340481758,0.09276717156171799
1667857271081624800,3.069624755859375,0.587487518787384,-0.19659940898418427,0.04849132522940636
1667857271091644700,3.079644775390625,0.5556862354278564,-0.4012881815433502,-0.02764584869146347
1667857271101666000,3.089666015625,0.5027846693992615,-0.5471687316894531,-0.12219232320785522
1667857271111685600,3.099685546875,0.41858696937561035,-0.6431841254234314,-0.23388341069221497
1667857271121707000,3.10970703125,0.32500001788139343,-0.6863478422164917,-0.34959375858306885
1667857271131727000,3.11972705078125,0.2202010303735733,-0.7082919478416443,-0.4550993740558624
1667857271141748000,3.129748046875,0.1124170571565628,-0.6695842146873474,-0.5488431453704834
1667857271151768000,3.13976806640625,0.006345581728965044,-0.5742334127426147,-0.6039988398551941
1667857271161789000,3.149788818359375,-0.08471880853176117,-0.4476802349090576,-0.6180265545845032
1667857271171809000,3.15980908203125,-0.15973292291164398,-0.29323166608810425,-0.577549397945404
1667857271181830000,3.169829833984375,-0.22973331809043884,-0.14551837742328644,-0.51762455701828
1667857271191850000,3.17985009765625,-0.28149884939193726,0.02241136133670807,-0.46499738097190857
1667857271201870800,3.189870849609375,-0.3040901720523834,0.17699533700942993,-0.443337619304657
1667857271211891000,3.199890869140625,-0.2846176326274872,0.30044496059417725,-0.41961392760276794
1667857271221911800,3.209911865234375,-0.24348004162311554,0.4383098781108856,-0.3980441689491272
1667857271231932000,3.219931884765625,-0.19972096383571625,0.5617048740386963,-0.3614690899848938
1667857271241953000,3.229953125,-0.16947996616363525,0.6101022362709045,-0.2953752875328064
1667857271251972900,3.239972900390625,-0.1516336053609848,0.5996975898742676,-0.20742079615592957
1667857271261994000,3.249993896484375,-0.14535947144031525,0.5809886455535889,-0.11706585437059402
1667857271272013800,3.260013916015625,-0.1321454644203186,0.5724009275436401,-0.06210032105445862
1667857271282035000,3.270034912109375,-0.09978698194026947,0.5846375823020935,-0.047889430075883865
1667857271292054800,3.2800546875,-0.059837087988853455,0.5998379588127136,-0.06568723917007446
1667857271302076000,3.290075927734375,-0.02808288484811783,0.5845770239830017,-0.10495075583457947
1667857271312096000,3.300095947265625,-0.01808343082666397,0.5467571020126343,-0.15249422192573547
1667857271322116900,3.310116943359375,-0.018588099628686905,0.5381683707237244,-0.17266899347305298
1667857271332137700,3.3201376953125,-0.019286595284938812,0.5155187845230103,-0.14958220720291138
1667857271342157800,3.33015771484375,-0.041093889623880386,0.49417221546173096,-0.08261462301015854
1667857271352178700,3.3401787109375,-0.07160859555006027,0.4076017439365387,0.0010774387046694756
1667857271362198800,3.35019873046875,-0.1252925992012024,0.2939777076244354,0.0818101018667221
1667857271372220000,3.360219970703125,-0.19296622276306152,0.20589949190616608,0.15276113152503967
1667857271382239700,3.37023974609375,-0.27444857358932495,0.158104807138443,0.199043408036232
1667857271392260900,3.3802607421875,-0.34732288122177124,0.14594125747680664,0.21666626632213593
1667857271402280700,3.39028076171875,-0.3861919939517975,0.13838374614715576,0.20144417881965637
1667857271412301800,3.4003017578125,-0.3854134976863861,0.10211508721113205,0.16318877041339874
1667857271422322000,3.410322021484375,-0.3606197237968445,0.08819154649972916,0.11550300568342209
1667857271432342800,3.4203427734375,-0.3173254132270813,0.09701725095510483,0.07719750702381134
1667857271442363000,3.43036279296875,-0.27737584710121155,0.11890630424022675,0.04962366819381714
1667857271452383700,3.4403837890625,-0.24252115190029144,0.18828220665454865,0.03552766516804695
1667857271462403800,3.45040380859375,-0.21072886884212494,0.30786240100860596,0.03450767695903778
1667857271472424700,3.4604248046875,-0.16956105828285217,0.45060333609580994,0.030260654166340828
1667857271482444800,3.47044482421875,-0.10906042903661728,0.5928728580474854,0.0039840443059802055
1667857271492466000,3.4804658203125,-0.03269284963607788,0.6837618350982666,-0.04733911156654358
1667857271502485800,3.49048583984375,0.0449896939098835,0.7338601350784302,-0.09660119563341141
1667857271512507000,3.5005068359375,0.1168166995048523,0.7538765072822571,-0.11704306304454803
1667857271522527000,3.51052685546875,0.165798619389534,0.747149646282196,-0.10543327778577805
1667857271532547800,3.5205478515625,0.20380713045597076,0.6897606253623962,-0.06639167666435242
1667857271542568000,3.53056787109375,0.21072842180728912,0.5267575979232788,-0.0018028330523520708
1667857271552589000,3.540589111328125,0.20799896121025085,0.2366250455379486,0.0888691395521164
1667857271562609000,3.55060888671875,0.23760107159614563,-0.10210134834051132,0.11404693126678467
1667857271572630000,3.560630126953125,0.238626167178154,-0.4356667101383209,0.0767352283000946
1667857271582649900,3.57064990234375,0.20133471488952637,-0.590146005153656,-0.04923202469944954
1667857271592671000,3.5806708984375,0.13895408809185028,-0.5652379989624023,-0.25459739565849304
1667857271602690800,3.59069091796875,0.08507807552814484,-0.43797531723976135,-0.4845014214515686
1667857271612712000,3.6007119140625,0.047745365649461746,-0.29913419485092163,-0.674873948097229
1667857271622732000,3.61073193359375,0.02134971134364605,-0.20583246648311615,-0.7878710627555847
1667857271632753000,3.6207529296875,0.00743879284709692,-0.09320145845413208,-0.7975003123283386
1667857271642773000,3.63077294921875,0.002814479637891054,0.01915384642779827,-0.7329775094985962
1667857271652793900,3.6407939453125,0.014105047099292278,0.0456371046602726,-0.6062180995941162
1667857271662814000,3.65081396484375,0.04392419755458832,-0.027796102687716484,-0.4480982720851898
1667857271672834800,3.660834716796875,0.07291775941848755,-0.18260885775089264,-0.29696226119995117
1667857271682855000,3.67085498046875,0.0938589945435524,-0.3522580564022064,-0.1787211149930954
1667857271692875800,3.680875732421875,0.10811924934387207,-0.47909072041511536,-0.1233600303530693
1667857271702895900,3.690895751953125,0.11852208524942398,-0.5793384909629822,-0.1226300597190857
1667857271712916700,3.700916748046875,0.13230782747268677,-0.6635028123855591,-0.15969347953796387
1667857271722936800,3.710936767578125,0.14632244408130646,-0.666663408279419,-0.20506122708320618
1667857271732958000,3.7209580078125,0.1659114807844162,-0.6543311476707458,-0.2115143984556198
1667857271742977800,3.730977783203125,0.09139648824930191,-0.745931088924408,-0.21729132533073425
1667857271752999000,3.7409990234375,-0.5454471111297607,-0.31879159808158875,-0.19231247901916504
1667857271763018800,3.751018798828125,-1.5031379461288452,1.399749517440796,0.005293551366776228
1667857271773039900,3.761039794921875,-1.8445625305175781,3.1133008003234863,0.4971259832382202
1667857271783060700,3.771060791015625,-1.5536894798278809,3.9636030197143555,1.204921007156372
1667857271793080800,3.781080810546875,-1.081965446472168,3.8826496601104736,1.8976826667785645
1667857271803101700,3.791101806640625,-0.6877869963645935,2.9440343379974365,2.4565393924713135
1667857271813121800,3.801121826171875,-0.31354740262031555,1.3971818685531616,2.660646915435791
1667857271823142700,3.811142578125,0.07344745099544525,0.1365436464548111,2.3055477142333984
1667857271833162800,3.821162841796875,0.5162084698677063,-0.9720916152000427,1.597230076789856
1667857271843183900,3.831183837890625,0.9080350995063782,-1.7759186029434204,0.716759979724884
1667857271853203700,3.84120361328125,1.1032850742340088,-2.0237395763397217,0.013720544055104256
1667857271863224800,3.851224853515625,0.9827691316604614,-1.537101149559021,-0.44983646273612976
1667857271873244700,3.86124462890625,0.6470662355422974,-0.541463315486908,-0.6690941452980042
1667857271883266000,3.87126611328125,0.4050227105617523,0.17119723558425903,-0.5416272878646851
1667857271893285600,3.88128564453125,0.30098289251327515,0.5543649792671204,-0.14244821667671204
1667857271903307000,3.89130712890625,0.2264154553413391,0.7279143929481506,0.30459266901016235
1667857271913327000,3.9013271484375,0.18781189620494843,0.6538609862327576,0.6735230088233948
1667857271923348000,3.911347900390625,0.1976032704114914,0.3571072816848755,0.9519911408424377
1667857271933368000,3.9213681640625,0.19838307797908783,0.028952350839972496,1.1111886501312256
1667857271943389000,3.931388916015625,0.18575197458267212,-0.21511277556419373,1.1417737007141113
1667857271953409000,3.941408935546875,0.21983613073825836,-0.3095828592777252,1.062848448753357
1667857271963430000,3.951429931640625,0.29910269379615784,-0.2849792540073395,0.9278538823127747
1667857271973450000,3.961449951171875,0.364757776260376,-0.20158624649047852,0.7687180638313293
1667857271983470800,3.971470947265625,0.4013506770133972,-0.07024181634187698,0.6113271117210388
1667857271993491000,3.981490966796875,0.41222259402275085,0.1030808761715889,0.47527599334716797
1667857272003511800,3.99151171875,0.37553462386131287,0.2415037304162979,0.3597051799297333
1667857272013532000,4.001531982421875,0.3016760051250458,0.36249861121177673,0.26009276509284973
1667857272023552800,4.011552734375,0.2128252387046814,0.45218268036842346,0.17384816706180573
1667857272033572900,4.02157275390625,0.12318477779626846,0.5071399807929993,0.08886779099702835
1667857272043594000,4.031593994140625,0.05661161616444588,0.5548795461654663,0.017779234796762466
1667857272053613800,4.04161376953125,0.0026470348238945007,0.5938839316368103,-0.013552512042224407
1667857272063634000,4.051634033203125,-0.05403168871998787,0.5814991593360901,-0.009939934127032757
1667857272073654000,4.061654052734375,-0.10129156708717346,0.5229596495628357,0.041105374693870544
1667857272083675100,4.071675048828125,-0.13235414028167725,0.3968035876750946,0.13806147873401642
1667857272093695000,4.081695068359375,-0.1069195419549942,0.19351211190223694,0.25897470116615295
1667857272103716000,4.091716064453125,-0.04007020592689514,-0.0022739011328667402,0.42532452940940857
1667857272113736000,4.10173583984375,0.06737560778856277,-0.1725679188966751,0.6362372636795044
1667857272123757000,4.111757080078125,0.2098451405763626,-0.30054906010627747,0.86041259765625
1667857272133777200,4.121777099609375,0.3190653324127197,-0.4150961637496948,1.0573409795761108
1667857272143798000,4.131798095703125,0.3728761076927185,-0.4793449342250824,1.1945792436599731
1667857272153818000,4.141818115234375,0.38338419795036316,-0.49727171659469604,1.2135655879974365
1667857272163839000,4.1518388671875,0.39537349343299866,-0.4719250798225403,1.0700217485427856
1667857272173859000,4.161859130859375,0.3997707962989807,-0.4059314727783203,0.8041972517967224
1667857272183880200,4.171880126953125,0.3904856741428375,-0.31574884057044983,0.46144551038742065
1667857272193900000,4.181900146484375,0.3796161413192749,-0.16131937503814697,0.11951538920402527
1667857272203921200,4.191921142578125,0.38191765546798706,0.02732589840888977,-0.1356111764907837
1667857272213941000,4.20194091796875,0.38776925206184387,0.18166020512580872,-0.27435430884361267
1667857272223962000,4.211962158203125,0.36731910705566406,0.27200397849082947,-0.2819001078605652
1667857272233983000,4.22198291015625,0.31618553400039673,0.297455370426178,-0.18042153120040894
1667857272244003000,4.232003173828125,0.24591989815235138,0.2437165230512619,-0.0016880047041922808
1667857272254024000,4.24202392578125,0.16746263206005096,0.11701842397451401,0.20509138703346252
1667857272264044000,4.2520439453125,0.0871368944644928,-0.05921519547700882,0.38886868953704834
1667857272274065000,4.26206494140625,0.014607483521103859,-0.21655942499637604,0.5212348699569702
1667857272284085000,4.2720849609375,-0.03675796836614609,-0.34250912070274353,0.5906967520713806
1667857272294106000,4.282106201171875,-0.06468166410923004,-0.42622116208076477,0.5841026306152344
1667857272304126000,4.2921259765625,-0.07929549366235733,-0.4715300500392914,0.5252779126167297
1667857272314147000,4.30214697265625,-0.08693951368331909,-0.4795733094215393,0.42277854681015015
1667857272324167000,4.3121669921875,-0.0850910097360611,-0.4672932028770447,0.3072511553764343
1667857272334188000,4.32218798828125,-0.062182944267988205,-0.4883144497871399,0.19989365339279175
1667857272344208100,4.3322080078125,-0.013917679898440838,-0.4849575459957123,0.12416718900203705
1667857272354229000,4.34222900390625,0.04077303037047386,-0.4306880533695221,0.07819435745477676
1667857272364249000,4.3522490234375,0.10105793923139572,-0.28613701462745667,0.08582884073257446
1667857272374270000,4.36227001953125,0.1385180950164795,-0.0545329824090004,0.16521106660366058
1667857272384290000,4.3722900390625,0.16016799211502075,0.09229933470487595,0.2749176025390625
1667857272394311000,4.382310791015625,0.1872348189353943,0.13814328610897064,0.39263927936553955
1667857272404331000,4.3923310546875,0.22524797916412354,0.14130233228206635,0.49404793977737427
1667857272414352000,4.402351806640625,0.26100262999534607,0.12316485494375229,0.5684058666229248
1667857272424372000,4.4123720703125,0.2874363660812378,0.09796123206615448,0.5868647694587708
1667857272434392800,4.422392822265625,0.3018304705619812,0.07887089997529984,0.560322642326355
1667857272444413000,4.432412841796875,0.3118481934070587,0.0782751515507698,0.49993011355400085
1667857272454433800,4.442433837890625,0.3099454641342163,0.08536788821220398,0.40895572304725647
1667857272464454000,4.452453857421875,0.2957628071308136,0.12121377140283585,0.2995208203792572
1667857272474475300,4.462475341796875,0.2769663333892822,0.18009404838085175,0.19590437412261963
1667857272484494800,4.472494873046875,0.2500060796737671,0.2451055347919464,0.10561442375183105
1667857272494516200,4.48251611328125,0.23004119098186493,0.2799518406391144,0.03295845165848732
1667857272504535800,4.492535888671875,0.21924234926700592,0.28813815116882324,-0.028279870748519897
1667857272514557200,4.50255712890625,0.22546535730361938,0.27440235018730164,-0.07218847423791885
1667857272524577000,4.512576904296875,0.24193620681762695,0.2522336542606354,-0.1005420833826065
1667857272534598100,4.52259814453125,0.2639126181602478,0.2249639630317688,-0.11857754737138748
1667857272544618200,4.5326181640625,0.2813587188720703,0.19766868650913239,-0.13123074173927307
1667857272554639000,4.54263916015625,0.30023065209388733,0.1876251995563507,-0.13756947219371796
1667857272564659200,4.5526591796875,0.30426958203315735,0.18904785811901093,-0.1316836178302765
1667857272574680000,4.56268017578125,0.29175302386283875,0.20534704625606537,-0.11305562406778336
1667857272584700200,4.5727001953125,0.2627253830432892,0.21468381583690643,-0.08332009613513947
1667857272594721000,4.582720947265625,0.217439666390419,0.1998147815465927,-0.049970269203186035
1667857272604741000,4.5927412109375,0.16294419765472412,0.1498701274394989,-0.013252733275294304
1667857272614762000,4.602761962890625,0.10118815302848816,0.08062295615673065,0.009407445788383484
1667857272624782000,4.612781982421875,0.03824327513575554,-0.004220562055706978,0.014170509763062
1667857272634803000,4.622802978515625,-0.010500781238079071,-0.08777036517858505,-0.0035169057082384825
1667857272644823000,4.632822998046875,-0.04756133258342743,-0.14608345925807953,-0.0357733778655529
1667857272654844200,4.64284423828125,-0.07263856381177902,-0.17681865394115448,-0.07044367492198944
1667857272664864000,4.652864013671875,-0.09572257846593857,-0.1901315301656723,-0.09854402393102646
1667857272674885000,4.662885009765625,-0.12421783804893494,-0.19414879381656647,-0.1211116686463356
1667857272684906000,4.672906005859375,-0.15418478846549988,-0.19255276024341583,-0.14211788773536682
1667857272694926000,4.682926025390625,-0.1830730438232422,-0.19008615612983704,-0.16182465851306915
1667857272704947000,4.692947021484375,-0.206342414021492,-0.1998429149389267,-0.1943138986825943
1667857272714967000,4.702967041015625,-0.22420521080493927,-0.17960211634635925,-0.24223661422729492
1667857272724988000,4.71298779296875,-0.23380936682224274,-0.12267198413610458,-0.2851744592189789
1667857272735008000,4.723008056640625,-0.23469243943691254,-0.06051057204604149,-0.32400885224342346
1667857272745028900,4.73302880859375,-0.23871514201164246,-0.018049929291009903,-0.3583337962627411
1667857272755049000,4.743049072265625,-0.23944944143295288,0.010076368227601051,-0.3981870412826538
1667857272765070000,4.753070068359375,-0.23462672531604767,0.045653536915779114,-0.42481598258018494
1667857272775090000,4.76308984375,-0.22777174413204193,0.0733615979552269,-0.44190308451652527
1667857272785111000,4.773111083984375,-0.21646928787231445,0.092501200735569,-0.45133814215660095
1667857272795131000,4.783130859375,-0.20394547283649445,0.10542091727256775,-0.45733997225761414
1667857272805152000,4.793152099609375,-0.1951032429933548,0.10109328478574753,-0.46074962615966797
1667857272815171800,4.803171875,-0.18704642355442047,0.09629300981760025,-0.4543776214122772
1667857272825193000,4.81319287109375,-0.1782720983028412,0.09657210856676102,-0.44998154044151306
1667857272835213000,4.823213134765625,-0.16534826159477234,0.0806916356086731,-0.4387938976287842
1667857272845234000,4.83323388671875,-0.14566802978515625,0.06056426092982292,-0.4242892563343048
1667857272855254000,4.84325390625,-0.1227319985628128,0.03443426638841629,-0.4040642976760864
1667857272865275100,4.853275146484375,-0.1075248122215271,0.016775110736489296,-0.3739207684993744
1667857272875295000,4.863294921875,-0.10488682985305786,0.014570266008377075,-0.3282288610935211
1667857272885316000,4.873316162109375,-0.1114770919084549,0.0018145237118005753,-0.26665499806404114
1667857272895336000,4.8833359375,-0.12373804301023483,-0.026124969124794006,-0.2219942808151245
1667857272905357000,4.893357177734375,-0.13192646205425262,-0.03834301605820656,-0.1934976726770401
1667857272915377200,4.903377197265625,-0.13192962110042572,-0.03409383445978165,-0.19920803606510162
1667857272925398000,4.91339794921875,-0.13318556547164917,0.02161523327231407,-0.23451994359493256
1667857272935418000,4.923418212890625,-0.13290338218212128,0.12862177193164825,-0.28071802854537964
1667857272945439000,4.93343896484375,-0.11902990937232971,0.26127302646636963,-0.31074783205986023
1667857272955459000,4.943458984375,-0.0883760079741478,0.37863215804100037,-0.3314721882343292
1667857272965480200,4.953480224609375,-0.04557660594582558,0.4966154992580414,-0.3372419476509094
1667857272975500000,4.9635,0.005998401902616024,0.6322344541549683,-0.3451312780380249
1667857272985521200,4.973521240234375,0.06972571462392807,0.7520011067390442,-0.3484937846660614
1667857272995541000,4.983541015625,0.14634574949741364,0.7840195894241333,-0.35405194759368896
1667857273005562000,4.99356201171875,0.2362668514251709,0.7289313077926636,-0.38219118118286133
1667857273015582200,5.003582275390625,0.3060641586780548,0.5266510844230652,-0.454889178276062
1667857273025603000,5.01360302734375,0.2968863546848297,0.3815937638282776,-0.5226578116416931
1667857273035623200,5.023623046875,0.2195633053779602,0.2111736238002777,-0.5504681468009949
1667857273045644000,5.03364404296875,0.0958983451128006,0.1391151398420334,-0.5627266764640808
1667857273055665000,5.043664794921875,-0.06392736732959747,0.1700306385755539,-0.5997725129127502
1667857273065685500,5.053685546875,-0.2150774747133255,0.168152317404747,-0.6946194171905518
1667857273075706400,5.063706298828125,-0.3076915144920349,0.0007741968147456646,-0.8656353950500488
1667857273085726500,5.0737265625,-0.3533215820789337,-0.3587184548377991,-1.0838111639022827
1667857273095747600,5.08374755859375,-0.3933901786804199,-0.7127228379249573,-1.3022295236587524
1667857273105767400,5.093767333984375,-0.4534553587436676,-0.9532449245452881,-1.4728094339370728
1667857273115788500,5.10378857421875,-0.5111430883407593,-1.0802116394042969,-1.6415953636169434
1667857273125808400,5.113808349609375,-0.5611159801483154,-0.9847274422645569,-1.7985436916351318
1667857273135829500,5.12382958984375,-0.6613827347755432,-0.8796241283416748,-1.9253509044647217
1667857273145849300,5.133849365234375,-0.7290030717849731,-0.7436921000480652,-1.9645923376083374
1667857273155870500,5.143870361328125,-0.7391600608825684,-0.7631570100784302,-1.9478294849395752
1667857273165890600,5.153890625,-0.6646059155464172,-0.7666742205619812,-1.8709027767181396
1667857273175911400,5.163911376953125,-0.5032053589820862,-0.6286430358886719,-1.7291922569274902
1667857273185931500,5.173931640625,-0.3539799451828003,-0.4167778789997101,-1.5384377241134644
1667857273195952400,5.183952392578125,-0.2305857092142105,-0.07353139668703079,-1.3491528034210205
1667857273205972500,5.193972412109375,-0.11570386588573456,0.15045270323753357,-1.137431025505066
1667857273215993300,5.203993408203125,0.007870354689657688,0.3129972815513611,-0.9283498525619507
1667857273226013400,5.214013427734375,0.13641367852687836,0.3769964873790741,-0.7246239185333252
1667857273236034300,5.224034423828125,0.1974765509366989,0.33326953649520874,-0.553419291973114
1667857273246054400,5.234054443359375,0.16704753041267395,0.33878523111343384,-0.4477599561214447
1667857273256075300,5.2440751953125,0.14574190974235535,0.40246713161468506,-0.39122912287712097
1667857273266095400,5.254095458984375,0.19063082337379456,0.4922071397304535,-0.3668918311595917
1667857273276116500,5.264116455078125,0.25772273540496826,0.5119118690490723,-0.36721071600914
1667857273286136300,5.27413623046875,0.2956746518611908,0.4468547999858856,-0.3907567858695984
1667857273296157400,5.284157470703125,0.3038390874862671,0.37704384326934814,-0.4534200131893158
1667857273306177300,5.29417724609375,0.30309179425239563,0.3734608292579651,-0.5211924314498901
1667857273316198400,5.304198486328125,0.315433144569397,0.30589181184768677,-0.5609290599822998
1667857273326218200,5.31421826171875,0.3196958005428314,0.19827908277511597,-0.5905228853225708
1667857273336239400,5.3242392578125,0.29065945744514465,0.07477071136236191,-0.6204522252082825
1667857273346259500,5.334259521484375,0.20109841227531433,-0.11790099740028381,-0.7069029211997986
1667857273356280300,5.3442802734375,0.08189404755830765,-0.3136858344078064,-0.8926610946655273
1667857273366300400,5.354300537109375,0.000974433496594429,-0.42094624042510986,-1.1134177446365356
1667857273376321300,5.3643212890625,-0.028600802645087242,-0.4346424639225006,-1.2835942506790161
1667857273386341400,5.37434130859375,-0.02372242510318756,-0.39620959758758545,-1.324197769165039
1667857273396362200,5.3843623046875,-0.040901731699705124,-0.25199705362319946,-1.1641446352005005
1667857273406382300,5.39438232421875,-0.09768164902925491,0.009422561153769493,-0.832667350769043
1667857273416403200,5.4044033203125,-0.2232397049665451,0.16267593204975128,-0.4454747438430786
1667857273426424600,5.414424560546875,-0.3917224705219269,0.24901002645492554,-0.07172776013612747
1667857273436444400,5.4244443359375,-0.5438349843025208,0.2921541929244995,0.2364051192998886
1667857273446465500,5.434465576171875,-0.6344298720359802,0.29890769720077515,0.4517424702644348
1667857273456485600,5.444485595703125,-0.6415441036224365,0.27973994612693787,0.5723022818565369
1667857273466506500,5.454506591796875,-0.5804820656776428,0.2263672649860382,0.6054983139038086
1667857273476526600,5.464526611328125,-0.48521336913108826,0.13115088641643524,0.5762956142425537
1667857273486547500,5.47454736328125,-0.37340933084487915,0.054956257343292236,0.522765576839447
1667857273496567600,5.484567626953125,-0.26233482360839844,-0.04285752773284912,0.45981690287590027
1667857273506588400,5.49458837890625,-0.17823271453380585,-0.1593327522277832,0.412837952375412
1667857273516608500,5.5046083984375,-0.10364753007888794,-0.2478111982345581,0.37471070885658264
1667857273526629400,5.51462939453125,-0.030133899301290512,-0.32630467414855957,0.35327571630477905
1667857273536649500,5.5246494140625,0.02119341865181923,-0.4004732072353363,0.36965006589889526
1667857273546670300,5.53467041015625,0.032242607325315475,-0.47691231966018677,0.44216716289520264
1667857273556690400,5.5446904296875,0.04734243080019951,-0.5129165053367615,0.5322661399841309
1667857273566711600,5.554711669921875,0.05127698555588722,-0.5337562561035156,0.6291213035583496
1667857273576731400,5.5647314453125,0.03598792478442192,-0.531704306602478,0.7199888229370117
1667857273586752500,5.57475244140625,0.011827727779746056,-0.4942155182361603,0.7815789580345154
1667857273596772400,5.5847724609375,-0.043212536722421646,-0.4625629186630249,0.7951744794845581
1667857273606793500,5.59479345703125,-0.11808997392654419,-0.440480500459671,0.7904497981071472
1667857273616813300,5.604813232421875,-0.19806301593780518,-0.41088438034057617,0.7641029357910156
1667857273626834400,5.61483447265625,-0.268459677696228,-0.35108017921447754,0.7341695427894592
1667857273636854500,5.6248544921875,-0.313739538192749,-0.2640664577484131,0.7294067144393921
1667857273646875400,5.63487548828125,-0.33870747685432434,-0.1904793083667755,0.7636395692825317
1667857273656895500,5.6448955078125,-0.349525511264801,-0.11883627623319626,0.8470204472541809
1667857273666916400,5.654916259765625,-0.36573243141174316,-0.056464776396751404,0.9619534611701965
1667857273676936400,5.6649365234375,-0.38248389959335327,-0.01993805170059204,1.0910875797271729
1667857273686957300,5.674957275390625,-0.38653564453125,-0.015107344835996628,1.2172670364379883
1667857273696977400,5.684977294921875,-0.37121301889419556,-0.01075948029756546,1.3155537843704224
1667857273706998300,5.694998291015625,-0.33317720890045166,-0.0073543633334338665,1.3956818580627441
1667857273717018400,5.705018310546875,-0.2757216989994049,0.015353953465819359,1.4593302011489868
1667857273727039200,5.715039306640625,-0.21311290562152863,0.026177305728197098,1.5082663297653198
1667857273737059300,5.725059326171875,-0.15319372713565826,0.021744146943092346,1.5432435274124146
1667857273747080400,5.73508056640625,-0.10328475385904312,0.02165413275361061,1.5592923164367676
1667857273757100300,5.745100341796875,-0.05931646749377251,0.04478219896554947,1.560906171798706
1667857273767121400,5.755121337890625,-0.025131598114967346,0.042891886085271835,1.5516881942749023
1667857273777142300,5.765142333984375,0.004694700241088867,0.028928212821483612,1.537401795387268
1667857273787162400,5.775162353515625,0.029097244143486023,0.027394231408834457,1.524031400680542
1667857273797183500,5.78518359375,0.06505981087684631,0.04819922149181366,1.521702766418457
1667857273807203300,5.795203369140625,0.11121798306703568,0.064780592918396,1.505592703819275
1667857273817224400,5.805224365234375,0.15416766703128815,0.07007803022861481,1.478963017463684
1667857273827244500,5.81524462890625,0.19313263893127441,0.0753345787525177,1.412611722946167
1667857273837265400,5.825265380859375,0.22749310731887817,0.06417857855558395,1.3022470474243164
1667857273847285500,5.835285400390625,0.254253089427948,0.023347795009613037,1.1546812057495117
1667857273857306400,5.845306396484375,0.268821120262146,-0.02237662859261036,0.9605275392532349
1667857273867326500,5.855326416015625,0.27376365661621094,-0.05522618815302849,0.7508137226104736
1667857273877347600,5.86534765625,0.2684466242790222,-0.07375553995370865,0.5368603467941284
1667857273887367400,5.875367431640625,0.26093170046806335,-0.09147435426712036,0.3342430889606476
1667857273897388500,5.885388427734375,0.2362300008535385,-0.09621617197990417,0.15296228229999542
1667857273907408400,5.895408447265625,0.21535293757915497,-0.1063830554485321,-0.01128418743610382
1667857273917429500,5.905429443359375,0.2024148851633072,-0.11963462084531784,-0.17013007402420044
1667857273927449300,5.915449462890625,0.2014867663383484,-0.125109001994133,-0.30367347598075867
1667857273937470500,5.925470458984375,0.1971147358417511,-0.11977684497833252,-0.41262704133987427
1667857273947490600,5.935490478515625,0.18882858753204346,-0.13547778129577637,-0.4938494563102722
1667857273957511400,5.945511474609375,0.16992729902267456,-0.15312372148036957,-0.5515875816345215
1667857273967531500,5.955531494140625,0.14764755964279175,-0.16609251499176025,-0.5884382724761963
1667857273977552400,5.965552490234375,0.11826255917549133,-0.17914588749408722,-0.6207733750343323
1667857273987572500,5.975572509765625,0.09112095832824707,-0.16041001677513123,-0.6356867551803589
1667857273997593300,5.98559326171875,0.05903681740164757,-0.13292084634304047,-0.6343076825141907
1667857274007613400,5.995613525390625,0.022037256509065628,-0.11311491578817368,-0.6279179453849792
1667857274017634300,6.00563427734375,-0.008638863451778889,-0.09079138934612274,-0.6250348091125488
1667857274027654400,6.015654296875,-0.04088841378688812,-0.07671205699443817,-0.6146799325942993
1667857274037675300,6.02567529296875,-0.05965682491660118,-0.060446031391620636,-0.5928143858909607
1667857274047695400,6.0356953125,-0.07040880620479584,-0.05086904019117355,-0.5565261840820312
1667857274057716500,6.045716552734375,-0.07639938592910767,-0.05273427069187164,-0.5096191167831421
1667857274067735800,6.05573583984375,-0.08242824673652649,-0.05902811884880066,-0.4689513146877289
1667857274077757000,6.0657568359375,-0.09456787258386612,-0.05675520375370979,-0.44752037525177
1667857274087777000,6.075777099609375,-0.10450811684131622,-0.0582582913339138,-0.4535362124443054
1667857274097798000,6.0857978515625,-0.11686035245656967,-0.04586382955312729,-0.48685741424560547
1667857274107818800,6.09581884765625,-0.13861678540706635,-0.03527430444955826,-0.5400370359420776
1667857274117838800,6.1058388671875,-0.15839923918247223,0.0004885958041995764,-0.5960502028465271
1667857274127859000,6.11585888671875,-0.17373424768447876,0.037932638078927994,-0.6348705887794495
1667857274137879800,6.1258798828125,-0.1819044053554535,0.05465936288237572,-0.6505951881408691
1667857274147901000,6.13590087890625,-0.18534493446350098,0.06692614406347275,-0.6399062871932983
1667857274157920800,6.145920654296875,-0.1841244101524353,0.07760222256183624,-0.6078077554702759
1667857274167942000,6.15594189453125,-0.17837198078632355,0.06944309920072556,-0.5555634498596191
1667857274177961700,6.165961669921875,-0.1736174076795578,0.04900131747126579,-0.49438774585723877
1667857274187982800,6.17598291015625,-0.16079695522785187,0.023783845826983452,-0.4395863115787506
1667857274198002700,6.186002685546875,-0.15666307508945465,0.0003988028038293123,-0.38211187720298767
1667857274208023800,6.19602392578125,-0.15087470412254333,-0.018839873373508453,-0.33325323462486267
1667857274218044000,6.2060439453125,-0.1413256675004959,-0.040456220507621765,-0.2917364239692688
1667857274228065000,6.21606494140625,-0.1313779652118683,-0.06579646468162537,-0.26765134930610657
1667857274238084900,6.2260849609375,-0.12280648201704025,-0.08587104082107544,-0.24535007774829865
1667857274248106000,6.23610595703125,-0.11636696010828018,-0.08930225670337677,-0.22384372353553772
1667857274258126000,6.2461259765625,-0.10921216756105423,-0.08368712663650513,-0.1965693086385727
1667857274268147000,6.25614697265625,-0.10142215341329575,-0.06814571470022202,-0.17031772434711456
1667857274278167000,6.2661669921875,-0.0969075933098793,-0.052080199122428894,-0.13935315608978271
1667857274288188000,6.27618798828125,-0.10448641330003738,-0.058163922280073166,-0.11758794635534286
1667857274298208000,6.2862080078125,-0.10717228055000305,-0.08878429234027863,-0.10489967465400696
1667857274308228900,6.296228759765625,-0.11246024817228317,-0.10728473961353302,-0.10488183051347733
1667857274318249000,6.3062490234375,-0.1121746152639389,-0.1196170225739479,-0.10657274723052979
1667857274328270000,6.31627001953125,-0.10998522490262985,-0.11700872331857681,-0.10817783325910568
1667857274338290000,6.3262900390625,-0.10041719675064087,-0.09385159611701965,-0.10603149980306625
1667857274348311000,6.33631103515625,-0.07927889376878738,-0.0678815171122551,-0.09772376716136932
1667857274358331000,6.346330810546875,-0.04122263938188553,-0.049479369074106216,-0.08236542344093323
1667857274368352000,6.35635205078125,-0.005093131214380264,-0.044056639075279236,-0.05568907409906387
1667857274378371800,6.366371826171875,0.013373108580708504,-0.08969760686159134,-0.03792640566825867
1667857274388393000,6.37639306640625,0.019281065091490746,-0.1261879801750183,-0.021959155797958374
1667857274398413000,6.3864130859375,0.007094094529747963,-0.14362215995788574,-0.031348347663879395
1667857274408434000,6.396433837890625,-0.027452431619167328,-0.17781580984592438,-0.07977260649204254
1667857274418454000,6.4064541015625,-0.0731416717171669,-0.22279298305511475,-0.17941422760486603
1667857274428475000,6.416474853515625,-0.13171043992042542,-0.210765078663826,-0.3241301476955414
1667857274438496000,6.42649609375,-0.18595832586288452,-0.16349856555461884,-0.5118347406387329
1667857274448515800,6.436515869140625,-0.2052297592163086,-0.1373620331287384,-0.6970162987709045
1667857274458537000,6.446536865234375,-0.18728992342948914,-0.11263883858919144,-0.8559654951095581
1667857274468556800,6.456556884765625,-0.1504506766796112,-0.0961618646979332,-0.9687586426734924
1667857274478578000,6.466577880859375,-0.11344994604587555,-0.08123631775379181,-1.0074741840362549
1667857274488597800,6.47659765625,-0.0699368268251419,-0.078186996281147,-0.9767096638679504
1667857274498619000,6.486618896484375,-0.014316722750663757,-0.062410347163677216,-0.9075290560722351
1667857274508639000,6.496638916015625,0.04691627249121666,-0.04992331936955452,-0.8283612728118896
1667857274518659800,6.506659912109375,0.1026039868593216,-0.048462677747011185,-0.7444791793823242
1667857274528680000,6.516679931640625,0.14783138036727905,-0.08350641280412674,-0.6532145142555237
1667857274538700800,6.52670068359375,0.17624050378799438,-0.10949915647506714,-0.5549815893173218
1667857274548721000,6.536720947265625,0.1891339272260666,-0.12063249945640564,-0.4637318551540375
1667857274558741800,6.54674169921875,0.20465587079524994,-0.21148814260959625,-0.40682101249694824
1667857274568761900,6.556761962890625,0.23235301673412323,-0.35485514998435974,-0.3837742805480957
1667857274578782700,6.56678271484375,0.27053818106651306,-0.48585188388824463,-0.413606733083725
1667857274588802800,6.576802734375,0.30914655327796936,-0.5969997048377991,-0.49977996945381165
1667857274598823700,6.58682373046875,0.3590623736381531,-0.6579996347427368,-0.6269506812095642
1667857274608843800,6.59684375,0.4266744554042816,-0.7056334614753723,-0.7512297630310059
1667857274618865000,6.606864990234375,0.5012637376785278,-0.7307286858558655,-0.8633119463920593
1667857274628884700,6.616884765625,0.5554444193840027,-0.7083807587623596,-0.9423934817314148
1667857274638906000,6.626906005859375,0.5432725548744202,-0.6877644062042236,-0.9805688261985779
1667857274648926000,6.636926025390625,0.43230584263801575,-0.6853238940238953,-0.9715511202812195
1667857274658947000,6.646947021484375,0.2587078809738159,-0.6985953450202942,-0.9319723844528198
1667857274668967000,6.656966796875,0.09631578624248505,-0.7408154606819153,-0.8688722252845764
1667857274678988000,6.666988037109375,0.01261470839381218,-0.8195907473564148,-0.7856794595718384
1667857274689007900,6.6770078125,0.018784720450639725,-0.9196515679359436,-0.6489990949630737
1667857274699029000,6.687029052734375,0.07566153258085251,-0.9866617918014526,-0.4898394048213959
1667857274709049000,6.697049072265625,-0.028288833796977997,-1.0676935911178589,-0.4402633309364319
1667857274719070000,6.707070068359375,-0.7079176902770996,-0.38389942049980164,-0.4061228036880493
1667857274729090000,6.717090087890625,-1.773867130279541,0.9640704393386841,-0.1701592653989792
1667857274739111000,6.72711083984375,-2.414634943008423,2.3229246139526367,0.2919309139251709
1667857274749131000,6.737131103515625,-2.20463228225708,2.9437882900238037,0.9149550795555115
1667857274759151900,6.74715185546875,-1.510407567024231,2.9068214893341064,1.4131526947021484
1667857274769173000,6.757173095703125,-0.7757065296173096,2.173978805541992,1.6413203477859497
1667857274779192800,6.76719287109375,-0.14192767441272736,0.8010162711143494,1.5629717111587524
1667857274789214000,6.7772138671875,0.47025206685066223,-0.713487982749939,1.1325936317443848
1667857274799233800,6.78723388671875,1.04373300075531,-1.7359144687652588,0.5150666236877441
1667857274809255000,6.7972548828125,1.417850136756897,-2.1217479705810547,-0.1311112642288208
1667857274819275000,6.80727490234375,1.436779499053955,-2.058029890060425,-0.6479907035827637
1667857274829295900,6.8172958984375,1.2059705257415771,-1.5598336458206177,-0.9184712171554565
1667857274839316000,6.82731591796875,0.8657959699630737,-0.6573127508163452,-0.8491252064704895
1667857274849336800,6.8373369140625,0.504741907119751,0.41552624106407166,-0.5008657574653625
1667857274859357000,6.84735693359375,0.23006819188594818,1.221047043800354,0.011437385343015194
1667857274869377800,6.857377685546875,0.1310710459947586,1.583351492881775,0.5345432162284851
1667857274879398000,6.86739794921875,0.1931423544883728,1.4512693881988525,0.9644080400466919
1667857274889418800,6.877418701171875,0.3471100926399231,0.9647985696792603,1.2746849060058594
1667857274899438800,6.88743896484375,0.49882620573043823,0.34482887387275696,1.4885460138320923
1667857274909459700,6.897459716796875,0.5598684549331665,-0.13377952575683594,1.5913422107696533
1667857274919479800,6.907479736328125,0.4990626275539398,-0.4780721366405487,1.5540707111358643
1667857274929501000,6.9175009765625,0.33153942227363586,-0.6561813950538635,1.3978984355926514
1667857274939520800,6.927520751953125,0.1076572835445404,-0.6070430874824524,1.1422942876815796
1667857274949542000,6.9375419921875,-0.11730632185935974,-0.4049887955188751,0.8581874966621399
1667857274959561700,6.947561767578125,-0.3168366253376007,-0.2083762288093567,0.6466277837753296
1667857274969582800,6.957582763671875,-0.45959165692329407,-0.09351036697626114,0.5976434350013733
1667857274979602700,6.967602783203125,-0.5358052253723145,-0.06074263155460358,0.7075098156929016
1667857274989623800,6.977623779296875,-0.5446383953094482,-0.06894809752702713,0.9215264916419983
1667857274999644000,6.987643798828125,-0.5171204805374146,-0.05820787325501442,1.1744366884231567
1667857275009665000,6.9976650390625,-0.4555274248123169,-0.07915257662534714,1.3906009197235107
1667857275019684900,7.007684814453125,-0.32588422298431396,-0.08955089002847672,1.5210835933685303
1667857275029706000,7.0177060546875,-0.13789857923984528,-0.04263930767774582,1.5564967393875122
1667857275039726000,7.02772607421875,0.07245403528213501,0.06435224413871765,1.5128072500228882
1667857275049747000,7.037746826171875,0.2681005299091339,0.2317473590373993,1.4188798666000366
1667857275059767000,7.04776708984375,0.43126022815704346,0.44524264335632324,1.297197699546814
1667857275069788200,7.0577880859375,0.575952410697937,0.6980014443397522,1.1474851369857788
1667857275079808000,7.06780810546875,0.7032429575920105,0.9269059896469116,0.9556775093078613
1667857275089829000,7.0778291015625,0.8106815218925476,1.1004492044448853,0.7421838641166687
1667857275099850200,7.087850341796875,0.890876054763794,1.2030662298202515,0.542436957359314
1667857275109870000,7.0978701171875,0.9374701380729675,1.2355072498321533,0.3711405396461487
1667857275119891200,7.10789111328125,0.9298753142356873,1.1559025049209595,0.24444255232810974
1667857275129911300,7.117911376953125,0.8654528856277466,1.0399911403656006,0.15638592839241028
1667857275139932200,7.12793212890625,0.746920108795166,0.9124979972839355,0.07278236746788025
1667857275149952300,7.1379521484375,0.6243817210197449,0.754889190196991,0.037586554884910583
1667857275159973000,7.14797314453125,0.500690758228302,0.611434280872345,0.05767406150698662
1667857275169993200,7.1579931640625,0.3723096251487732,0.49188604950904846,0.11492829769849777
1667857275180014000,7.16801416015625,0.2346242368221283,0.4152293801307678,0.20156742632389069
1667857275190034200,7.1780341796875,0.10154207795858383,0.33428579568862915,0.31083959341049194
1667857275200055000,7.188054931640625,-0.03270270302891731,0.20172859728336334,0.4267059564590454
1667857275210075100,7.1980751953125,-0.16123192012310028,0.0653289332985878,0.5530639290809631
1667857275220096000,7.208095947265625,-0.2685595452785492,-0.06218806654214859,0.6726492047309875
1667857275230116000,7.2181162109375,-0.34005263447761536,-0.17703822255134583,0.7679315209388733
1667857275240137200,7.22813720703125,-0.36444827914237976,-0.262696236371994,0.8260555863380432
1667857275250157000,7.238156982421875,-0.350041925907135,-0.33048486709594727,0.8470532298088074
1667857275260178200,7.24817822265625,-0.3057405948638916,-0.415016233921051,0.8181594610214233
1667857275270198000,7.258197998046875,-0.21870209276676178,-0.5021136403083801,0.7468187212944031
1667857275280219100,7.26821923828125,-0.1167251393198967,-0.5097424983978271,0.6524471640586853
1667857275290239000,7.278239013671875,-0.04161067679524422,-0.43999987840652466,0.5568865537643433
1667857275300260000,7.288260009765625,0.017258496955037117,-0.3526604473590851,0.4692837595939636
1667857275310280200,7.2982802734375,0.054790426045656204,-0.23289252817630768,0.3929269313812256
1667857275320301000,7.308301025390625,0.07202127575874329,-0.08321909606456757,0.3307749330997467
1667857275330321200,7.318321044921875,0.06992696225643158,0.06194714829325676,0.2712221145629883
1667857275340342000,7.328342041015625,0.050621114671230316,0.1573619395494461,0.19951000809669495
1667857275350362000,7.338362060546875,0.026595143601298332,0.26039832830429077,0.11154872924089432
1667857275360383000,7.348383056640625,-0.005539046134799719,0.406356543302536,0.010595982894301414
1667857275370403000,7.358403076171875,-0.044697102159261703,0.540440022945404,-0.08941450715065002
1667857275380424000,7.368423828125,-0.0743006020784378,0.6132540702819824,-0.1592944860458374
1667857275390445000,7.378445068359375,-0.09167320281267166,0.6144269704818726,-0.19715851545333862
1667857275400465000,7.38846484375,-0.09761792421340942,0.5580154657363892,-0.19529268145561218
1667857275410486300,7.398486328125,-0.09123911708593369,0.48777544498443604,-0.14141161739826202
1667857275420506000,7.408506103515625,-0.07965979725122452,0.4191742241382599,-0.05544206127524376
1667857275430527200,7.41852734375,-0.08489637076854706,0.3540434241294861,0.04381368309259415
1667857275440547300,7.42854736328125,-0.08488010615110397,0.2810591459274292,0.13494345545768738
1667857275450568200,7.438568115234375,-0.06940527260303497,0.19976215064525604,0.21810677647590637
1667857275460588300,7.44858837890625,-0.04303106293082237,0.12753412127494812,0.29540377855300903
1667857275470609200,7.458609130859375,-0.02356708236038685,0.09019207209348679,0.34875166416168213
1667857275480629200,7.468629150390625,-0.016412897035479546,0.08027543127536774,0.38316336274147034
1667857275490650000,7.478650146484375,-0.015163607895374298,0.08391863852739334,0.40302178263664246
1667857275500670200,7.488670166015625,-0.0246614720672369,0.07891200482845306,0.3891501724720001
1667857275510691000,7.498691162109375,-0.02899203822016716,0.08893560618162155,0.35150346159935
1667857275520711200,7.508711181640625,-0.03563634306192398,0.10450542718172073,0.3079640865325928
1667857275530732000,7.51873193359375,-0.042499840259552,0.09544029831886292,0.2598745822906494
1667857275540752100,7.528752197265625,-0.04691309854388237,0.07188872992992401,0.21865877509117126
1667857275550773200,7.538773193359375,-0.0387989804148674,0.05761844664812088,0.19580325484275818
1667857275560793000,7.54879296875,-0.027960550040006638,0.03659326210618019,0.18840156495571136
1667857275570814200,7.558814208984375,-0.023133303970098495,-0.01275724358856678,0.1872904896736145
1667857275580834000,7.568833984375,-0.0063588679768145084,-0.05361245200037956,0.1952180713415146
1667857275590855200,7.578855224609375,-0.0006684918771497905,-0.06409119069576263,0.2055673897266388
1667857275600875300,7.588875244140625,0.0015604936052113771,-0.05032830685377121,0.20309442281723022
1667857275610896100,7.598896240234375,-0.0077722882851958275,-0.019658813253045082,0.19760911166667938
1667857275620916200,7.608916259765625,-0.01760963723063469,-0.007219923660159111,0.1731678992509842
1667857275630937000,7.61893701171875,-0.01586952805519104,0.013888290151953697,0.13666954636573792
1667857275640957200,7.628957275390625,-0.006710684392601252,0.044288963079452515,0.10022206604480743
1667857275650978000,7.63897802734375,0.0034998750779777765,0.08699807524681091,0.07560407370328903
1667857275660999200,7.648999267578125,0.0036573989782482386,0.12272633612155914,0.059049930423498154
1667857275671019000,7.65901904296875,-0.004238341003656387,0.126266211271286,0.048583172261714935
1667857275681040100,7.6690400390625,-0.005995444022119045,0.12170318514108658,0.03938924893736839
1667857275691060000,7.67906005859375,0.001094689592719078,0.09408727288246155,0.03509330376982689
1667857275701081000,7.6890810546875,0.0019419428426772356,0.04546679928898811,0.026473937556147575
1667857275711101000,7.699100830078125,0.00643016817048192,0.04017243534326553,0.02439640648663044
1667857275721122000,7.7091220703125,-0.0015666410326957703,0.0560510978102684,0.025847891345620155
1667857275731142100,7.71914208984375,-0.02069959044456482,0.03699937462806702,0.013559800572693348
1667857275741163000,7.7291630859375,-0.03884745016694069,-0.000924758380278945,-0.0055599575862288475
1667857275751183000,7.73918310546875,-0.04414181411266327,-0.0383797213435173,-0.03797595202922821
1667857275761204000,7.749203857421875,-0.05171841382980347,-0.0690377801656723,-0.08220565319061279
1667857275771224000,7.75922412109375,-0.07245591282844543,-0.08123531937599182,-0.13537247478961945
1667857275781245000,7.769244873046875,-0.09382788836956024,-0.0759706124663353,-0.18821656703948975
1667857275791265000,7.77926513671875,-0.11093790084123611,-0.05354786291718483,-0.22941966354846954
1667857275801286100,7.7892861328125,-0.12026095390319824,-0.033218685537576675,-0.2534322738647461
1667857275811306000,7.799305908203125,-0.1183037981390953,-0.005429930053651333,-0.26001161336898804
1667857275821327000,7.8093271484375,-0.1105872094631195,0.010860652662813663,-0.24738040566444397
1667857275831347200,7.81934716796875,-0.10416925698518753,0.007940497249364853,-0.22609056532382965
1667857275841368300,7.829368408203125,-0.09667526930570602,-0.016231324523687363,-0.19957420229911804
1667857275851388200,7.83938818359375,-0.09208477288484573,-0.04388665407896042,-0.17995283007621765
1667857275861409300,7.8494091796875,-0.0969327911734581,-0.06663058698177338,-0.17381371557712555
1667857275871429000,7.85942919921875,-0.09420038759708405,-0.08299810439348221,-0.1713705211877823
1667857275881450200,7.8694501953125,-0.09302825480699539,-0.08845485746860504,-0.16800540685653687
1667857275891470000,7.879469970703125,-0.08776850998401642,-0.08701221644878387,-0.1628955900669098
1667857275901491200,7.8894912109375,-0.07519818097352982,-0.08948218077421188,-0.1590021550655365
1667857275911511300,7.89951123046875,-0.068636953830719,-0.10622254014015198,-0.15043343603610992
1667857275921532200,7.9095322265625,-0.06353193521499634,-0.13023945689201355,-0.16477961838245392
1667857275931552300,7.91955224609375,-0.07062766700983047,-0.13164374232292175,-0.18944421410560608
1667857275941573000,7.929572998046875,-0.08382195234298706,-0.10285517573356628,-0.22571411728858948
1667857275951594200,7.93959423828125,-0.09090942144393921,-0.07217077165842056,-0.2740113437175751
1667857275961614000,7.949614013671875,-0.08950047194957733,-0.03615241125226021,-0.3364742696285248
1667857275971635200,7.95963525390625,-0.08813826739788055,-0.004510329104959965,-0.40384531021118164
1667857275981655000,7.969655029296875,-0.08717022091150284,0.02842772752046585,-0.45996809005737305
1667857275991676200,7.97967626953125,-0.08580375462770462,0.04296379163861275,-0.48276180028915405
1667857276001696000,7.989696044921875,-0.07847646623849869,0.028860395774245262,-0.4973647892475128
1667857276011717000,7.999717041015625,-0.06127750501036644,0.02011137828230858,-0.5108014941215515
1667857276021737200,8.0097373046875,-0.03717588260769844,0.026675650849938393,-0.5275604724884033
1667857276031758000,8.019758056640624,-0.018373169004917145,0.013956127688288689,-0.5384355187416077
1667857276041778200,8.029778076171874,0.009467735886573792,-0.019424157217144966,-0.5452486872673035
1667857276051799000,8.039799072265625,0.047339752316474915,-0.05775929242372513,-0.5449743866920471
1667857276061819400,8.0498193359375,0.08593446016311646,-0.09503863751888275,-0.5355841517448425
1667857276071840300,8.05984033203125,0.1139887347817421,-0.1174163743853569,-0.531589925289154
1667857276081860400,8.0698603515625,0.12399673461914062,-0.14945600926876068,-0.5389182567596436
1667857276091881500,8.079881591796875,0.1335470825433731,-0.15462999045848846,-0.5555757880210876
1667857276101901300,8.0899013671875,0.1482069343328476,-0.13751940429210663,-0.5864167213439941
1667857276111922400,8.09992236328125,0.16324074566364288,-0.14473123848438263,-0.6301242709159851
1667857276121942500,8.109942626953124,0.17175590991973877,-0.18880781531333923,-0.6608149409294128
1667857276131963400,8.11996337890625,0.1625208705663681,-0.23281335830688477,-0.6696699261665344
1667857276141983500,8.1299833984375,0.12166055291891098,-0.2390386462211609,-0.6766338348388672
1667857276152004600,8.140004638671876,0.05262236297130585,-0.19568239152431488,-0.6764444708824158
1667857276162024400,8.1500244140625,-0.013115704990923405,-0.19627968966960907,-0.6676301956176758
1667857276172045600,8.160045654296875,-0.06079481169581413,-0.26501375436782837,-0.6612652540206909
1667857276182065400,8.1700654296875,-0.11059145629405975,-0.3671877384185791,-0.6858373880386353
1667857276192086500,8.18008642578125,-0.14145803451538086,-0.39020249247550964,-0.727475106716156
1667857276202106400,8.1901064453125,-0.12103200703859329,-0.335683673620224,-0.7825043201446533
1667857276212127500,8.20012744140625,-0.12714342772960663,-0.23363375663757324,-0.8841979503631592
1667857276222148400,8.2101484375,-0.27796876430511475,-0.13022828102111816,-1.0298863649368286
1667857276232168400,8.22016845703125,-0.5858219265937805,0.0026895448099821806,-1.1944444179534912
1667857276242189300,8.230189208984376,-0.9165778756141663,0.16682104766368866,-1.3360782861709595
1667857276252209400,8.24020947265625,-1.1492105722427368,0.1257135570049286,-1.415334701538086
1667857276262230300,8.250230224609375,-1.1944019794464111,-0.17451657354831696,-1.3558590412139893
1667857276272250400,8.26025048828125,-1.1185120344161987,-0.4465116262435913,-1.182453989982605
1667857276282271500,8.270271484375,-1.1780667304992676,-0.5031347274780273,-1.107357382774353
1667857276292291300,8.280291259765624,-1.130159854888916,-0.4486280679702759,-0.7558848857879639
1667857276302312400,8.2903125,-0.7391839027404785,-0.3545195758342743,-0.3664855659008026
1667857276312332300,8.300332275390625,-0.402787983417511,-0.1406499296426773,-0.12925758957862854
1667857276322353400,8.310353515625,-0.23462124168872833,-0.13841214776039124,-0.5019497275352478
1667857276332373500,8.32037353515625,-0.0418400764465332,-0.024574801325798035,-1.270126461982727
1667857276342394400,8.330394287109375,0.15155890583992004,0.1262112259864807,-1.9082027673721313
1667857276352414500,8.34041455078125,0.26768097281455994,0.24045391380786896,-2.13956880569458
1667857276362435300,8.350435302734375,0.3061060905456543,0.4035692811012268,-1.9267293214797974
1667857276372455400,8.360455322265626,0.23913824558258057,0.5881463289260864,-1.5166633129119873
1667857276382476300,8.370476318359374,0.20025381445884705,0.6839979290962219,-1.1116522550582886
1667857276392496400,8.380496337890625,0.21899020671844482,0.6983230710029602,-0.7993894219398499
1667857276402517200,8.390517333984375,0.25491729378700256,0.6055947542190552,-0.6679027080535889
1667857276412537300,8.400537353515626,0.30750566720962524,0.4930112361907959,-0.6911515593528748
1667857276422558200,8.41055810546875,0.3429732620716095,0.4680459201335907,-0.8229854702949524
1667857276432578300,8.420578369140625,0.38055816292762756,0.48103761672973633,-0.9975115060806274
1667857276442599400,8.430599365234375,0.4443390965461731,0.5848724842071533,-1.154819130897522
1667857276452619300,8.440619384765625,0.49429041147232056,0.6791430115699768,-1.2663089036941528
1667857276462640400,8.450640380859374,0.5254377126693726,0.7599136233329773,-1.342281460762024
1667857276472660200,8.46066015625,0.5792340636253357,0.8736391663551331,-1.3520288467407227
1667857276482681600,8.470681640625,0.6889320015907288,0.9478960037231445,-1.2732123136520386
1667857276492702500,8.480702392578126,0.8122363686561584,0.8885703682899475,-1.116204857826233
1667857276502722600,8.49072265625,0.9034249186515808,0.7494567632675171,-0.8885924816131592
1667857276512743400,8.500743408203125,0.9321657419204712,0.6759303212165833,-0.5249173045158386
1667857276522763500,8.510763427734375,0.9639519453048706,0.5890011191368103,-0.05063753202557564
1667857276532784400,8.520784423828125,1.0015974044799805,0.3150393068790436,0.4481501579284668
1667857276542804500,8.530804443359376,1.0067847967147827,-0.14177767932415009,0.8992646932601929
1667857276552825300,8.540825439453124,0.9658746123313904,-0.6115826964378357,1.2942324876785278
1667857276562845400,8.550845458984375,0.9194648265838623,-1.0489611625671387,1.6065502166748047
1667857276572866600,8.560866455078125,0.8747732639312744,-1.5060433149337769,1.8279739618301392
1667857276582886400,8.570886474609376,0.8465300798416138,-1.8743677139282227,1.985959529876709
1667857276592907500,8.580907470703124,0.8396135568618774,-2.169445514678955,2.084364891052246
1667857276602927400,8.59092724609375,0.825021505355835,-2.117172956466675,1.8412843942642212
1667857276612948500,8.600948486328125,0.795118510723114,-1.5584862232208252,1.3994468450546265
1667857276622968300,8.61096826171875,0.8208428025245667,-1.2486622333526611,0.9890283346176147
1667857276632989400,8.620989501953124,0.8974044322967529,-1.1458629369735718,0.5948562622070312
1667857276643009500,8.631009521484375,0.9529945254325867,-1.0004252195358276,0.2242264598608017
1667857276653030400,8.641030517578125,0.947661817073822,-0.8716334104537964,-0.08380113542079926
1667857276663050500,8.651050537109375,0.8616526126861572,-0.7363706827163696,-0.33544591069221497
1667857276673071400,8.6610712890625,0.7003700137138367,-0.6042677760124207,-0.5425692200660706
1667857276683091500,8.671091552734374,0.5134966969490051,-0.49825647473335266,-0.7029181718826294
1667857276693112300,8.6811123046875,0.34395644068717957,-0.38392457365989685,-0.7949700951576233
1667857276703132400,8.69113232421875,0.21808700263500214,-0.24912799894809723,-0.7940008640289307
1667857276713153300,8.7011533203125,0.11002099514007568,-0.12706626951694489,-0.7097927927970886
1667857276723173400,8.71117333984375,0.008671746589243412,-0.03434234857559204,-0.5570708513259888
1667857276733194200,8.7211943359375,-0.10100415349006653,-0.007623921148478985,-0.36953505873680115
1667857276743214300,8.73121435546875,-0.2062118798494339,-0.03954135999083519,-0.15699385106563568
1667857276753235500,8.7412353515625,-0.29301711916923523,-0.07062257826328278,0.0674014464020729
1667857276763256300,8.75125634765625,-0.3531269133090973,-0.09943496435880661,0.2877506613731384
1667857276773276400,8.7612763671875,-0.38205280900001526,-0.17118610441684723,0.4970647394657135
1667857276783297300,8.77129736328125,-0.38052740693092346,-0.26437368988990784,0.6822354197502136
1667857276793317400,8.7813173828125,-0.3583342134952545,-0.32912683486938477,0.8381538987159729
1667857276803338200,8.791338134765626,-0.3403451144695282,-0.3181304335594177,0.9780099391937256
1667857276813358300,8.8013583984375,-0.3277246654033661,-0.26631543040275574,1.120842456817627
1667857276823379500,8.81137939453125,-0.30783209204673767,-0.24520723521709442,1.2399274110794067
1667857276833399300,8.8213994140625,-0.27855223417282104,-0.2251427173614502,1.325474500656128
1667857276843420400,8.83142041015625,-0.24125726521015167,-0.16759078204631805,1.3847497701644897
1667857276853440300,8.841440185546874,-0.19197200238704681,-0.07184641063213348,1.4136801958084106
1667857276863461400,8.85146142578125,-0.12637263536453247,0.05010849982500076,1.4303210973739624
1667857276873481500,8.8614814453125,-0.04652174562215805,0.19719994068145752,1.4403071403503418
1667857276883502600,8.871502685546876,0.03761298581957817,0.3620850443840027,1.4487165212631226
1667857276893522400,8.8815224609375,0.12258300930261612,0.5658312439918518,1.4688165187835693
1667857276903543600,8.89154345703125,0.20336754620075226,0.7498977184295654,1.4962186813354492
1667857276913563400,8.9015634765625,0.26656487584114075,0.8460455536842346,1.5116738080978394
1667857276923584500,8.91158447265625,0.3074268698692322,0.9026721119880676,1.51936674118042
1667857276933604400,8.921604248046876,0.3207259178161621,0.9212015867233276,1.4946850538253784
1667857276943625500,8.93162548828125,0.30864396691322327,0.864198625087738,1.4122909307479858
1667857276953645600,8.9416455078125,0.29501259326934814,0.7891364097595215,1.2893567085266113
1667857276963666400,8.95166650390625,0.2868610918521881,0.6394135355949402,1.1236193180084229
1667857276973686500,8.9616865234375,0.26400718092918396,0.37392541766166687,0.9393948316574097
1667857276983707400,8.971707275390624,0.23796024918556213,0.1575375348329544,0.7623353600502014
1667857276993727500,8.9817275390625,0.22541196644306183,0.04207539185881615,0.6110853552818298
1667857277003748400,8.991748291015625,0.21705017983913422,-0.03835553303360939,0.4788666069507599
1667857277013768400,9.0017685546875,0.2003236562013626,-0.10667414218187332,0.3586674928665161
1667857277023789300,9.011789306640624,0.15740494430065155,-0.15163807570934296,0.2396525740623474
1667857277033810400,9.021810546875,0.10271851718425751,-0.13194559514522552,0.12767677009105682
1667857277043830300,9.031830322265625,0.05740208551287651,-0.09858085215091705,0.027372175827622414
1667857277053851400,9.041851318359376,0.028432486578822136,-0.07094709575176239,-0.07418694347143173
1667857277063870700,9.05187060546875,0.015047024935483932,-0.05098512023687363,-0.17353849112987518
1667857277073891600,9.0618916015625,0.022170182317495346,-0.02795596979558468,-0.25733858346939087
1667857277083911700,9.07191162109375,0.04448888450860977,0.0006070318631827831,-0.3125382363796234
1667857277093932500,9.0819326171875,0.07304356247186661,-0.02016375958919525,-0.35214927792549133
1667857277103952600,9.09195263671875,0.09628593176603317,-0.07221390306949615,-0.3714282512664795
1667857277113973500,9.101973388671874,0.09607740491628647,-0.1560121327638626,-0.37592872977256775
1667857277123993600,9.11199365234375,0.0755617693066597,-0.22258031368255615,-0.38120007514953613
1667857277134014700,9.1220146484375,0.04084000363945961,-0.23136767745018005,-0.39603015780448914
1667857277144034600,9.13203466796875,-0.008647034876048565,-0.22547049820423126,-0.4245820641517639
1667857277154055700,9.1420556640625,-0.06962143629789352,-0.200124129652977,-0.46488553285598755
1667857277164075500,9.152075439453125,-0.13172365725040436,-0.14242619276046753,-0.5142859816551208
1667857277174096600,9.1620966796875,-0.20351742208003998,-0.08096521347761154,-0.577637791633606
1667857277184116500,9.172116455078125,-0.2803940176963806,-0.0184350423514843,-0.6480467915534973
1667857277194137600,9.1821376953125,-0.3623583912849426,0.07096967101097107,-0.7183476090431213
1667857277204157700,9.19215771484375,-0.4361978769302368,0.15982921421527863,-0.7753875851631165
1667857277214178600,9.202178466796875,-0.4884062111377716,0.23441582918167114,-0.818675696849823
1667857277224198700,9.21219873046875,-0.5195196866989136,0.2862255573272705,-0.8331778049468994
1667857277234219500,9.222219482421876,-0.5301946997642517,0.31697094440460205,-0.8284821510314941
1667857277244239600,9.232239501953124,-0.5250552892684937,0.3341047167778015,-0.8073711395263672
1667857277254260500,9.242260498046875,-0.5033433437347412,0.3355729281902313,-0.7689284086227417
1667857277264282600,9.25228271484375,-0.4638095796108246,0.2997189164161682,-0.7186676859855652
1667857277274302700,9.262302734375,-0.413636714220047,0.2416747808456421,-0.6602405905723572
1667857277284323600,9.272323486328125,-0.3519405424594879,0.17538270354270935,-0.5932525396347046
1667857277294343700,9.28234375,-0.2835790812969208,0.11359468847513199,-0.5260602235794067
1667857277304364800,9.29236474609375,-0.21674372255802155,0.06652215868234634,-0.4561171233654022
1667857277314384600,9.302384521484376,-0.16394363343715668,0.016513856127858162,-0.3872475028038025
1667857277324405800,9.31240576171875,-0.13267359137535095,-0.050740547478199005,-0.321231484413147
1667857277334425600,9.322425537109375,-0.12190882861614227,-0.10229934751987457,-0.2650419771671295
1667857277344446700,9.33244677734375,-0.11565148085355759,-0.12158393859863281,-0.22960886359214783
1667857277354466600,9.342466552734376,-0.10814163088798523,-0.13453249633312225,-0.21071480214595795
1667857277364487700,9.35248779296875,-0.09303811937570572,-0.14276115596294403,-0.20508766174316406
1667857277374507800,9.3625078125,-0.06567174196243286,-0.1428745985031128,-0.21888203918933868
1667857277384528600,9.372528564453125,-0.029138881713151932,-0.13538730144500732,-0.24628429114818573
1667857277394548700,9.382548828125,0.008892391808331013,-0.13092277944087982,-0.2888495922088623
1667857277404569600,9.392569580078124,0.048946134746074677,-0.13269037008285522,-0.3448713421821594
1667857277414589700,9.402589599609374,0.08237946033477783,-0.11881875991821289,-0.4087100028991699
1667857277424610600,9.412610595703125,0.11074592173099518,-0.10568889230489731,-0.4758877158164978
1667857277434630700,9.422630615234375,0.13383658230304718,-0.10980986803770065,-0.5324239730834961
1667857277444651500,9.432651611328126,0.15241605043411255,-0.10947312414646149,-0.5750178694725037
1667857277454671600,9.442671630859374,0.16402876377105713,-0.10690370202064514,-0.6006355881690979
1667857277464692500,9.4526923828125,0.1543886661529541,-0.09941383451223373,-0.6175128817558289
1667857277474713600,9.462713623046875,0.13406740128993988,-0.07000374794006348,-0.625434935092926
1667857277484733700,9.472733642578126,0.09919699281454086,-0.02145514450967312,-0.6331574320793152
1667857277494754600,9.482754638671874,0.06582038849592209,0.031220048666000366,-0.6343420147895813
1667857277504774700,9.492774658203125,0.037034764885902405,0.059248458594083786,-0.6358801126480103
1667857277514795500,9.50279541015625,0.021506402641534805,0.07320795208215714,-0.6328456997871399
1667857277524815600,9.512815673828126,0.0093418313190341,0.044204231351614,-0.629953920841217
1667857277534836500,9.52283642578125,0.003938544075936079,-0.020037073642015457,-0.6104409098625183
1667857277544856600,9.532856689453125,0.00273283408023417,-0.12093357741832733,-0.5771889686584473
1667857277554877400,9.54287744140625,-0.01454548817127943,-0.23037192225456238,-0.5750944018363953
1667857277564897500,9.5528974609375,-0.03673934191465378,-0.3014119267463684,-0.5455244779586792
1667857277574918400,9.56291845703125,-0.02236333303153515,-0.3174254894256592,-0.45629048347473145
1667857277584938500,9.5729384765625,0.053029242902994156,-0.32036787271499634,-0.35993778705596924
1667857277594959600,9.582959716796875,0.18000157177448273,-0.3947920501232147,-0.3448520302772522
1667857277604979500,9.5929794921875,0.32119399309158325,-0.4697486460208893,-0.403312623500824
1667857277615000800,9.603000732421876,0.46236738562583923,-0.27032527327537537,-0.5056374073028564
1667857277625020400,9.6130205078125,0.5698879957199097,-0.23307253420352936,-0.6661038994789124
1667857277635041800,9.623041748046875,0.6124101281166077,-0.28357192873954773,-0.8413934111595154
1667857277645061400,9.633061279296875,0.5594452023506165,-0.27322012186050415,-1.0163624286651611
1667857277655082800,9.643082763671876,0.41379159688949585,-0.11853549629449844,-1.1754990816116333
1667857277665102800,9.653102783203124,0.16249218583106995,0.005546627566218376,-1.3316378593444824
1667857277675123700,9.663123779296875,-0.06776338070631027,-0.02619345858693123,-1.485734224319458
1667857277685143800,9.673143798828125,-0.17397691309452057,-0.11115476489067078,-1.5937963724136353
1667857277695164700,9.68316455078125,-0.15298667550086975,-0.0648684874176979,-1.6350754499435425
1667857277705184800,9.693184814453126,-0.09196524322032928,0.00711498036980629,-1.6332319974899292
1667857277715205600,9.70320556640625,-0.07966916263103485,0.05038895085453987,-1.5832401514053345
1667857277725226800,9.713226806640625,-0.14603480696678162,0.10411836951971054,-1.473758339881897
1667857277735246600,9.72324658203125,-0.26516973972320557,0.02969047799706459,-1.2814754247665405
1667857277745267700,9.733267822265624,-0.4023447632789612,-0.24140565097332,-1.0038421154022217
1667857277755287600,9.74328759765625,-0.5241854190826416,-0.47933006286621094,-0.6761931777000427
1667857277765308700,9.75330859375,-0.6891456842422485,-0.5773016214370728,-0.45510774850845337
1667857277775328500,9.76332861328125,-1.1042249202728271,-0.49514710903167725,-0.294307678937912
1667857277785349600,9.773349609375,-1.8588247299194336,0.4389839470386505,0.06608078628778458
1667857277795369700,9.78336962890625,-2.562096118927002,2.3580853939056396,0.5846344232559204
1667857277805390600,9.793390625,-2.766101598739624,3.2541637420654297,1.3248356580734253
1667857277815410700,9.80341064453125,-2.23779559135437,3.3475723266601562,1.858652949333191
1667857277825431600,9.813431640625,-1.3778609037399292,1.5966323614120483,1.7843332290649414
1667857277835451600,9.82345166015625,-0.5619152188301086,-0.7262651324272156,1.2108055353164673
1667857277845472500,9.833472412109375,0.19661357998847961,-1.9300942420959473,0.6291932463645935
1667857277855492600,9.84349267578125,0.6714496612548828,-2.3772904872894287,0.22539040446281433
1667857277865513500,9.853513427734375,0.9604722857475281,-2.956522226333618,0.08708155900239944
1667857277875533600,9.863533447265626,1.0156663656234741,-3.0543212890625,0.04204617813229561
1667857277885554400,9.873554443359374,0.8315301537513733,-2.7569308280944824,0.020774662494659424
1667857277895574500,9.883574462890625,0.5357533693313599,-2.056643009185791,-0.026525208726525307
1667857277905595600,9.893595703125,0.24328821897506714,-1.013810396194458,-0.10156124085187912
1667857277915615500,9.903615478515626,-0.03602784126996994,0.2850097715854645,-0.12311580032110214
1667857277925636600,9.91363671875,-0.27602970600128174,1.3193904161453247,0.00910997111350298
1667857277935656400,9.923656494140625,-0.4116716980934143,1.6851963996887207,0.24296027421951294
1667857277945677600,9.933677490234375,-0.3995286524295807,1.4991400241851807,0.43408945202827454
1667857277955697700,9.94369775390625,-0.25554805994033813,0.872374951839447,0.5478799343109131
1667857277965718500,9.953718505859374,-0.10802318155765533,0.15574902296066284,0.6600776314735413
1667857277975739600,9.96373974609375,-0.09737852960824966,-0.45047271251678467,0.8448445796966553
1667857277985759500,9.973759521484375,-0.17888128757476807,-0.9608572721481323,1.085801362991333
1667857277995780600,9.983780517578126,-0.20592035353183746,-1.2783920764923096,1.4018341302871704
1667857278005800700,9.99380078125,-0.19173942506313324,-1.313522219657898,1.7522733211517334
1667857278015821600,10.003821533203125,-0.21382369101047516,-1.0329509973526,2.0543718338012695
1667857278025841700,10.013841552734375,-0.3056677281856537,-0.6501492261886597,2.1608757972717285
1667857278035862800,10.02386279296875,-0.41885343194007874,-0.24278542399406433,1.9921605587005615
1667857278045882600,10.033882568359376,-0.4686060845851898,0.14048044383525848,1.6851983070373535
1667857278055903700,10.04390380859375,-0.45595499873161316,0.26816728711128235,1.2704272270202637
1667857278065923800,10.053923828125,-0.40460869669914246,0.2599567770957947,0.8405545353889465
1667857278075945200,10.0639453125,-0.33747440576553345,0.22731415927410126,0.51617431640625
1667857278085964800,10.07396484375,-0.26604828238487244,0.2331225425004959,0.3823421597480774
1667857278095986200,10.083986083984374,-0.2483680695295334,0.3002419173717499,0.45116063952445984
1667857278106006300,10.09400634765625,-0.2357041835784912,0.22558870911598206,0.6234365105628967
1667857278116027100,10.104027099609375,-0.1838873326778412,0.22994963824748993,0.8498963117599487
1667857278126047200,10.114047119140626,-0.1247251033782959,0.31041568517684937,1.0973871946334839
1667857278136068000,10.124068115234374,-0.07870142161846161,0.39485493302345276,1.279155969619751
1667857278146088200,10.134088134765625,-0.0069582778960466385,0.4245157241821289,1.3928098678588867
1667857278156109000,10.144109130859375,0.09388311952352524,0.4035646319389343,1.4490119218826294
1667857278166129200,10.154129150390625,0.2120846062898636,0.3750074803829193,1.4578710794448853
1667857278176150000,10.16414990234375,0.3105424642562866,0.3851999342441559,1.4297734498977661
1667857278186170000,10.174170166015625,0.40124833583831787,0.443193256855011,1.3759820461273193
1667857278196191000,10.18419091796875,0.4769361615180969,0.5595301985740662,1.2743980884552002
1667857278206211000,10.194211181640625,0.5142107009887695,0.7384707927703857,1.1079312562942505
1667857278216232000,10.20423193359375,0.5111390352249146,0.9390350580215454,0.8690001368522644
1667857278226253000,10.214253173828125,0.47046956419944763,1.08881413936615,0.5645673274993896
1667857278236273200,10.224273193359375,0.40571320056915283,1.1440142393112183,0.2217782586812973
1667857278246294000,10.2342939453125,0.32023003697395325,1.11515212059021,-0.11146895587444305
1667857278256314000,10.244314208984376,0.20908300578594208,0.9851869940757751,-0.41030651330947876
1667857278266335000,10.2543349609375,0.07933520525693893,0.7603127956390381,-0.6607174277305603
1667857278276355000,10.26435498046875,-0.03288641571998596,0.5143227577209473,-0.8261932134628296
1667857278286376000,10.2743759765625,-0.12843531370162964,0.31324005126953125,-0.905241072177887
1667857278296396000,10.28439599609375,-0.20295456051826477,0.22022674977779388,-0.8892924189567566
1667857278306417000,10.2944169921875,-0.27167046070098877,0.22025460004806519,-0.8130117058753967
1667857278316437000,10.30443701171875,-0.33779221773147583,0.24666836857795715,-0.681789219379425
1667857278326457900,10.314457763671875,-0.40896379947662354,0.30565786361694336,-0.539681077003479
1667857278336478000,10.32447802734375,-0.47788721323013306,0.34246090054512024,-0.4077787399291992
1667857278346499000,10.3344990234375,-0.525438666343689,0.33143728971481323,-0.30551111698150635
1667857278356519000,10.344518798828124,-0.519904613494873,0.3129456341266632,-0.25256025791168213
1667857278366540000,10.3545400390625,-0.46065154671669006,0.2867569029331207,-0.24033832550048828
1667857278376559900,10.364559814453125,-0.3702644109725952,0.22452977299690247,-0.28095710277557373
1667857278386581000,10.3745810546875,-0.28890007734298706,0.12150321155786514,-0.36234796047210693
1667857278396601000,10.38460107421875,-0.20260033011436462,0.02864171750843525,-0.4553830921649933
1667857278406622000,10.3946220703125,-0.11637458950281143,-0.04913541302084923,-0.5255424976348877
1667857278416642000,10.40464208984375,-0.032079942524433136,-0.11606597900390625,-0.5447569489479065
1667857278426663000,10.414662841796876,0.027684137225151062,-0.18213166296482086,-0.4899303615093231
1667857278436683000,10.42468310546875,0.05414664000272751,-0.22312863171100616,-0.3554284870624542
1667857278446703900,10.434703857421875,0.05179225280880928,-0.24229596555233002,-0.14683391153812408
1667857278456725200,10.444725341796875,0.04326694458723068,-0.22786535322666168,0.12138929963111877
1667857278466745000,10.4547451171875,0.05151393264532089,-0.1860198974609375,0.3917401134967804
1667857278476766200,10.46476611328125,0.07772582769393921,-0.09608308970928192,0.6269265413284302
1667857278486786000,10.4747861328125,0.09269977360963821,0.0076065887697041035,0.7784839272499084
1667857278496807200,10.48480712890625,0.08362052589654922,0.09417556971311569,0.8067824244499207
1667857278506827000,10.494826904296875,0.05891108140349388,0.1889582872390747,0.722207248210907
1667857278516848000,10.50484814453125,0.047086913138628006,0.2869005501270294,0.5562739372253418
1667857278526868200,10.5148681640625,0.053914494812488556,0.3679864704608917,0.36799511313438416
1667857278536889000,10.52488916015625,0.08567401766777039,0.4193606972694397,0.1961868554353714
1667857278546909200,10.5349091796875,0.12729792296886444,0.4487723112106323,0.0687672421336174
1667857278556930000,10.544929931640626,0.16427405178546906,0.4495318531990051,-0.014597692526876926
1667857278566950100,10.5549501953125,0.1919480264186859,0.42043212056159973,-0.06121154874563217
1667857278576971000,10.564970947265625,0.2229411005973816,0.3815497159957886,-0.07590553909540176
1667857278586991000,10.5749912109375,0.2582574486732483,0.3043060898780823,-0.07551386952400208
1667857278597012000,10.585011962890626,0.299746572971344,0.19496707618236542,-0.07366270571947098
1667857278607032000,10.595031982421874,0.336684912443161,0.07789035141468048,-0.07540469616651535
1667857278617053000,10.605052978515625,0.35543274879455566,-0.023379012942314148,-0.08647838979959488
1667857278627073000,10.615072998046875,0.347903311252594,-0.1083487868309021,-0.10916071385145187
1667857278637094100,10.62509423828125,0.3099343776702881,-0.16178138554096222,-0.12897808849811554
1667857278647114000,10.635114013671876,0.2473205178976059,-0.1854901760816574,-0.14198151230812073
1667857278657135000,10.645135009765625,0.16420699656009674,-0.1705535650253296,-0.13543972373008728
1667857278667155000,10.655155029296875,0.08181747049093246,-0.15669739246368408,-0.10212525725364685
1667857278677176000,10.665176025390625,0.021688347682356834,-0.13032543659210205,-0.04817973077297211
1667857278687197000,10.675197021484376,-0.017316892743110657,-0.0823904275894165,0.02511408179998398
1667857278697217000,10.685217041015624,-0.04219480976462364,-0.051961153745651245,0.10342752933502197
1667857278707238000,10.69523779296875,-0.06319072842597961,-0.05577414110302925,0.1715012937784195
1667857278717258000,10.705258056640625,-0.08028316497802734,-0.0717049092054367,0.2106548249721527
1667857278727278800,10.71527880859375,-0.09062259644269943,-0.06551633030176163,0.22769278287887573
1667857278737299000,10.725298828125,-0.09195311367511749,-0.05062286555767059,0.213010773062706
1667857278747320000,10.735320068359375,-0.08800753951072693,-0.0429995059967041,0.17190617322921753
1667857278757340000,10.74533984375,-0.08289507031440735,-0.037841230630874634,0.1125890463590622
1667857278767361000,10.755361083984376,-0.07088159769773483,-0.04001839831471443,0.04437793046236038
1667857278777380900,10.765380859375,-0.061332039535045624,-0.050916850566864014,-0.014233184047043324
1667857278787402000,10.775402099609375,-0.06095023453235626,-0.05791962146759033,-0.06362184882164001
1667857278797421800,10.785421875,-0.06230178847908974,-0.06925669312477112,-0.10006587952375412
1667857278807443200,10.795443115234375,-0.0695202425122261,-0.06627266854047775,-0.11066502332687378
1667857278817463000,10.805463134765626,-0.08485152572393417,-0.06211227551102638,-0.10213412344455719
1667857278827484200,10.815484130859375,-0.09540393948554993,-0.07322399318218231,-0.08863087743520737
1667857278837504000,10.82550390625,-0.0979781523346901,-0.08820906281471252,-0.07775319367647171
1667857278847525000,10.835525146484375,-0.09486106783151627,-0.10959646105766296,-0.06570032238960266
1667857278857545200,10.845545166015626,-0.09149935841560364,-0.1256076544523239,-0.054587218910455704
1667857278867566000,10.855566162109374,-0.09052965044975281,-0.10206581652164459,-0.04321647435426712
1667857278877586200,10.865586181640625,-0.08182457834482193,-0.04087010398507118,-0.022796154022216797
1667857278887607000,10.87560693359375,-0.06769829243421555,0.0024263763334602118,-0.012927185744047165
1667857278897627100,10.885627197265626,-0.05383520573377609,0.02362886629998684,-0.022243455052375793
1667857278907648000,10.89564794921875,-0.04496113583445549,0.02235543541610241,-0.04588933289051056
1667857278917668000,10.905668212890625,-0.045521996915340424,0.007238267920911312,-0.07140028476715088
1667857278927689000,10.91568896484375,-0.056686412543058395,0.00992367509752512,-0.10299833118915558
1667857278937710000,10.9257099609375,-0.07492534071207047,0.0267974641174078,-0.13406649231910706
1667857278947730200,10.935730224609374,-0.0873490497469902,0.04991774260997772,-0.1639157235622406
1667857278957751000,10.9457509765625,-0.09820836037397385,0.06398829072713852,-0.18453870713710785
1667857278967771100,10.955771240234375,-0.10151266306638718,0.06999319791793823,-0.20650026202201843
1667857278977792000,10.9657919921875,-0.09456633776426315,0.07359698414802551,-0.2180759608745575
1667857278987812000,10.97581201171875,-0.08719591051340103,0.07959532737731934,-0.23388150334358215
1667857278997833000,10.9858330078125,-0.08451943099498749,0.0839003250002861,-0.23340293765068054
1667857279007853000,10.99585302734375,-0.0821213349699974,0.06206606328487396,-0.23088380694389343
1667857279017874000,11.0058740234375,-0.09182589501142502,0.026583971455693245,-0.22806857526302338
1667857279027894000,11.01589404296875,-0.11054262518882751,0.031240135431289673,-0.22031237185001373
1667857279037915000,11.025914794921874,-0.13476140797138214,0.053933728486299515,-0.20733611285686493
1667857279047935000,11.03593505859375,-0.15667001903057098,0.07365764677524567,-0.18947568535804749
1667857279057956000,11.0459560546875,-0.17647142708301544,0.06602369993925095,-0.17892131209373474
1667857279067976700,11.055976806640626,-0.18883803486824036,0.05512074753642082,-0.16127298772335052
1667857279077997600,11.06599755859375,-0.18808409571647644,0.05047139897942543,-0.1460580825805664
1667857279088017700,11.076017578125,-0.1782202571630478,0.060719963163137436,-0.12654896080493927
1667857279098038800,11.086038818359375,-0.17536002397537231,0.07504937052726746,-0.10927516967058182
1667857279108058600,11.09605859375,-0.17081880569458008,0.06353838741779327,-0.1128680408000946
1667857279118079700,11.106079833984374,-0.16834312677383423,0.02254328317940235,-0.15289880335330963
1667857279128099600,11.116099609375,-0.17584316432476044,-0.06804017722606659,-0.23081502318382263
1667857279138120700,11.12612060546875,-0.1842489093542099,-0.11148752272129059,-0.3413737714290619
1667857279148140500,11.136140625,-0.19346638023853302,-0.06791918724775314,-0.4619666039943695
1667857279158161700,11.14616162109375,-0.21500656008720398,-0.014074600301682949,-0.5537484288215637
1667857279168182800,11.156182861328125,-0.2501559257507324,0.008270368911325932,-0.6125802993774414
1667857279178202600,11.16620263671875,-0.27930501103401184,0.03398798406124115,-0.6292929649353027
1667857279188223700,11.1762236328125,-0.2773466408252716,0.048681460320949554,-0.6233446002006531
1667857279198243600,11.18624365234375,-0.25554415583610535,0.07365764677524567,-0.5969822406768799
1667857279208264700,11.1962646484375,-0.23264946043491364,0.14605826139450073,-0.5441457629203796
1667857279218284800,11.206284912109375,-0.21841832995414734,0.29990774393081665,-0.4660957157611847
1667857279228306000,11.216305908203125,-0.22963841259479523,0.46901649236679077,-0.3826417624950409
1667857279238325800,11.22632568359375,-0.2473585605621338,0.5376890301704407,-0.31524354219436646
1667857279248347000,11.236346923828124,-0.23096580803394318,0.48604992032051086,-0.27109479904174805
1667857279258366700,11.24636669921875,-0.17710204422473907,0.35986214876174927,-0.24435080587863922
1667857279268387800,11.256387939453125,-0.12540632486343384,0.2163044959306717,-0.2393849641084671
1667857279278408000,11.266407958984376,-0.10753332078456879,0.09103900194168091,-0.2654559910297394
1667857279288428800,11.2764287109375,-0.04966145381331444,0.0034114394802600145,-0.3006865680217743
1667857279298449000,11.286448974609375,0.044534821063280106,-0.022357840090990067,-0.3131469786167145
1667857279308469800,11.2964697265625,0.11431127041578293,-0.0196984950453043,-0.28117823600769043
1667857279318489900,11.30648974609375,0.1605951488018036,-0.01994803175330162,-0.25428539514541626
1667857279328510700,11.3165107421875,0.21353673934936523,-0.01219550333917141,-0.24436195194721222
1667857279338530800,11.32653076171875,0.284232497215271,-0.0006120845209807158,-0.3049643337726593
1667857279348551700,11.3365517578125,0.3512660264968872,0.032313231378793716,-0.5185344815254211
1667857279358571800,11.34657177734375,0.36996063590049744,0.09781581163406372,-0.8818055987358093
1667857279368592600,11.356592529296876,0.31843510270118713,0.23862536251544952,-1.274053931236267
1667857279378612700,11.36661279296875,0.2477041780948639,0.44368425011634827,-1.5373857021331787
1667857279388633900,11.3766337890625,0.20747916400432587,0.5348717570304871,-1.6505659818649292
1667857279398653700,11.38665380859375,0.182962104678154,0.45791465044021606,-1.678572416305542
1667857279408674800,11.3966748046875,0.15215007960796356,0.32027459144592285,-1.6744110584259033
1667857279418694700,11.406694580078126,0.10778634250164032,0.1875876486301422,-1.6276158094406128
1667857279428715800,11.4167158203125,0.048104457557201385,0.09545280784368515,-1.5202287435531616
1667857279438736600,11.426736572265625,0.01094883307814598,0.048474639654159546,-1.35983407497406
1667857279448756700,11.4367568359375,0.014035403728485107,0.038998205214738846,-1.1829897165298462
1667857279458777600,11.446777587890624,0.047366730868816376,0.0301224235445261,-1.0644029378890991
1667857279468797700,11.456797607421874,0.13850031793117523,0.08995988965034485,-1.0329341888427734
1667857279478818600,11.466818603515625,0.25243860483169556,0.22163961827754974,-1.0998599529266357
1667857279488838700,11.476838623046875,0.3338474929332733,0.21543395519256592,-1.2601509094238281
1667857279498859500,11.486859619140626,0.40878191590309143,0.01676666922867298,-1.491415023803711
1667857279508879600,11.496879638671874,0.49068617820739746,-0.31140512228012085,-1.7266680002212524
1667857279518900700,11.506900634765625,0.5801446437835693,-0.718530535697937,-1.897190809249878
1667857279528920600,11.516920654296875,0.6664223074913025,-1.0679547786712646,-1.945702314376831
1667857279538941700,11.526941650390626,0.7429392337799072,-1.2799581289291382,-1.8363550901412964
1667857279548961500,11.53696142578125,0.7435969114303589,-1.3051152229309082,-1.5815755128860474
1667857279558983000,11.54698291015625,0.6742279529571533,-1.1482266187667847,-1.240897536277771
1667857279569002800,11.557002685546875,0.5546678900718689,-0.9391171932220459,-0.8915407061576843
1667857279579024000,11.56702392578125,0.4226648509502411,-0.7271122336387634,-0.6105194091796875
1667857279589044000,11.5770439453125,0.2882630228996277,-0.59408038854599,-0.4439837634563446
1667857279599064800,11.58706494140625,0.17838604748249054,-0.5283581018447876,-0.37590163946151733
1667857279609085000,11.5970849609375,0.11935050785541534,-0.4726462662220001,-0.35784533619880676
1667857279619105800,11.607105712890625,0.10683578252792358,-0.42213913798332214,-0.346398264169693
1667857279629126000,11.6171259765625,0.09474305063486099,-0.3491208553314209,-0.31257301568984985
1667857279639146800,11.627146728515624,0.04525432735681534,-0.2922455966472626,-0.23465023934841156
1667857279649166800,11.637166748046875,-0.029488252475857735,-0.28601160645484924,-0.1041727066040039
1667857279659187700,11.647187744140625,-0.09218945354223251,-0.3307068943977356,0.06020398437976837
1667857279669208800,11.657208740234376,-0.12893791496753693,-0.3738766014575958,0.24717308580875397
1667857279679228700,11.667228759765624,-0.16234327852725983,-0.37596210837364197,0.43181270360946655
1667857279689249800,11.677249755859375,-0.20340976119041443,-0.3368484377861023,0.5908600091934204
1667857279699270000,11.687269775390625,-0.25911855697631836,-0.29665520787239075,0.7059117555618286
1667857279709290800,11.697290771484376,-0.30723837018013,-0.23636415600776672,0.7618358731269836
1667857279719310800,11.707310791015624,-0.34119316935539246,-0.15599128603935242,0.7688969373703003
1667857279729331700,11.717331787109375,-0.35664117336273193,-0.0504678413271904,0.746099591255188
1667857279739351800,11.727351806640625,-0.3651939332485199,0.0367264486849308,0.6920946836471558
1667857279749372700,11.73737255859375,-0.37650102376937866,0.11716492474079132,0.6269740462303162
1667857279759392800,11.747392822265626,-0.37642085552215576,0.2189786434173584,0.5792301893234253
1667857279769413600,11.75741357421875,-0.36861154437065125,0.2997356951236725,0.5525658130645752
1667857279779433700,11.767433837890625,-0.3562065362930298,0.34199661016464233,0.5330663919448853
1667857279789454600,11.77745458984375,-0.3285979926586151,0.36119720339775085,0.5361692905426025
1667857279799474700,11.787474609375,-0.3037877380847931,0.36709317564964294,0.5702527165412903
1667857279809495800,11.797495849609374,-0.2830395996570587,0.3465602397918701,0.6131658554077148
1667857279819515600,11.807515625,-0.2714593708515167,0.31172290444374084,0.6766334772109985
1667857279829536800,11.817536865234375,-0.2703711688518524,0.2761995494365692,0.7484252452850342
1667857279839556600,11.827556640625,-0.28530699014663696,0.28237035870552063,0.8382121324539185
1667857279849577700,11.83757763671875,-0.30841293931007385,0.2725988030433655,0.9303566217422485
1667857279859597600,11.84759765625,-0.33169081807136536,0.2617429494857788,1.0278429985046387
1667857279869618700,11.85761865234375,-0.3479742109775543,0.24482299387454987,1.1260563135147095
1667857279879638800,11.867638671875,-0.3548257350921631,0.2453620284795761,1.2266844511032104
1667857279889659600,11.87765966796875,-0.3533579111099243,0.24452055990695953,1.3304235935211182
1667857279899679700,11.8876796875,-0.35331690311431885,0.22652824223041534,1.4359748363494873
1667857279909700600,11.89770068359375,-0.3428882956504822,0.21100099384784698,1.5419042110443115
1667857279919721700,11.9077216796875,-0.32678282260894775,0.25957223773002625,1.651619553565979
1667857279929741600,11.917741455078126,-0.30523478984832764,0.2844524681568146,1.7515474557876587
1667857279939763000,11.927762939453125,-0.29150593280792236,0.4096609950065613,1.7622038125991821
1667857279949782800,11.93778271484375,-0.22009633481502533,0.4438926577568054,1.6904802322387695
1667857279959804000,11.947803955078125,-0.1765078455209732,0.40873199701309204,1.6446059942245483
1667857279969823700,11.95782373046875,-0.12355861067771912,0.38619285821914673,1.5793527364730835
1667857279979844900,11.967844970703124,-0.06803037226200104,0.37111565470695496,1.4991230964660645
1667857279989864700,11.97786474609375,-0.01876056008040905,0.35168203711509705,1.4322141408920288
1667857279999885800,11.9878857421875,0.03223578259348869,0.34649020433425903,1.3686285018920898
1667857280009906000,11.997906005859376,0.08313950896263123,0.2929217517375946,1.3007444143295288
1667857280019926800,12.0079267578125,0.12379825115203857,0.15010438859462738,1.2067571878433228
1667857280029947000,12.01794677734375,0.15418840944766998,0.00538627477362752,1.0428509712219238
1667857280039967700,12.0279677734375,0.18158647418022156,-0.10821086168289185,0.8091269731521606
1667857280049987800,12.03798779296875,0.19437150657176971,-0.15413422882556915,0.5474927425384521
1667857280060008700,12.0480087890625,0.19638778269290924,-0.17503391206264496,0.2959316670894623
1667857280070028300,12.0580283203125,0.1917608082294464,-0.2032148689031601,0.06811515986919403
1667857280080049200,12.068049072265625,0.18746593594551086,-0.2397230863571167,-0.1245616152882576
1667857280090069200,12.0780693359375,0.17701135575771332,-0.26631179451942444,-0.27735432982444763
1667857280100090400,12.08809033203125,0.17513568699359894,-0.28071895241737366,-0.39345911145210266
1667857280110110200,12.098110107421874,0.1746545135974884,-0.30194082856178284,-0.48033103346824646
1667857280120131300,12.10813134765625,0.18298062682151794,-0.3190676271915436,-0.5352243781089783
1667857280130151200,12.118151123046875,0.18889205157756805,-0.31751248240470886,-0.547410249710083
1667857280140172300,12.12817236328125,0.17901518940925598,-0.29313817620277405,-0.5315543413162231
1667857280150193200,12.138193115234374,0.15550237894058228,-0.2788306474685669,-0.48099029064178467
1667857280160213200,12.148213134765625,0.12325681746006012,-0.261707603931427,-0.41552498936653137
1667857280170234000,12.158234130859375,0.09008040279150009,-0.22155363857746124,-0.349137544631958
1667857280180254200,12.168254150390625,0.04952525720000267,-0.15631870925426483,-0.29811590909957886
1667857280190275000,12.178275146484374,0.017965083941817284,-0.0825360119342804,-0.2786465287208557
1667857280200295200,12.188295166015624,-0.012670056894421577,-0.009174715727567673,-0.27987876534461975
1667857280210316300,12.19831640625,-0.0361095555126667,0.07289587706327438,-0.3049772381782532
1667857280220336000,12.208336181640625,-0.054720789194107056,0.16227476298809052,-0.3271256983280182
1667857280230357200,12.218357177734376,-0.06462129950523376,0.22893831133842468,-0.35458317399024963
1667857280240377000,12.228377197265624,-0.07522308081388474,0.281030535697937,-0.36623290181159973
1667857280250398200,12.238398193359375,-0.08522666990756989,0.3163738250732422,-0.3654997646808624
1667857280260418300,12.248418212890625,-0.09627878665924072,0.3270355463027954,-0.3472701609134674
1667857280270439400,12.258439453125,-0.10092902928590775,0.3333973288536072,-0.3251723647117615
1667857280280459300,12.268459228515624,-0.10073834657669067,0.3268488645553589,-0.2979266345500946
1667857280290480400,12.27848046875,-0.10140200704336166,0.30523166060447693,-0.25072067975997925
1667857280300500500,12.28850048828125,-0.10718266665935516,0.28425952792167664,-0.20161357522010803
1667857280310521300,12.298521240234376,-0.12356653809547424,0.2801683843135834,-0.15273718535900116
1667857280320541400,12.30854150390625,-0.13604609668254852,0.28540951013565063,-0.11564840376377106
1667857280330562300,12.318562255859375,-0.14274488389492035,0.29100489616394043,-0.10657442361116409
1667857280340582400,12.32858251953125,-0.15078416466712952,0.28441542387008667,-0.11964042484760284
1667857280350603300,12.338603271484375,-0.15731430053710938,0.2671400010585785,-0.14400792121887207
1667857280360623400,12.348623291015626,-0.14946143329143524,0.23597276210784912,-0.17947350442409515
