time,seconds_elapsed,z,y,x
1667857268026622200,0.014622314453125,0.031927838921546936,0.027531227096915245,0.03233370557427406
1667857268036642300,0.024642333984375,0.0202818363904953,0.010804710909724236,0.0011235876008868217
1667857268046663200,0.0346630859375,0.01480504497885704,0.027903003618121147,-0.018874088302254677
1667857268056683500,0.04468359375,0.0222640261054039,0.046015430241823196,-0.03183303028345108
1667857268066704400,0.054704345703125,0.025859294459223747,0.02641003578901291,-0.03561525046825409
1667857268076724500,0.064724365234375,0.012958142906427383,0.0016205335268750787,-0.041195906698703766
1667857268086745600,0.07474560546875,-0.008009723387658596,0.0036695697344839573,-0.0431879498064518
1667857268096765400,0.084765380859375,-0.013578127138316631,0.024164725095033646,-0.04682662710547447
1667857268106786800,0.094786865234375,-0.008293882943689823,0.027890220284461975,-0.06266551464796066
1667857268116806400,0.104806396484375,-0.0008886968716979027,0.002115881536155939,-0.08724648505449295
1667857268126827800,0.114827880859375,0.005083441734313965,-0.019272763282060623,-0.10975313186645508
1667857268136847600,0.12484765625,0.0051289820112288,-0.017586451023817062,-0.12615260481834412
1667857268146868700,0.13486865234375,0.009847836568951607,-0.018856778740882874,-0.1347775161266327
1667857268156889600,0.1448896484375,0.013719541020691395,-0.02166188508272171,-0.13973845541477203
1667857268166909700,0.15490966796875,0.016116119921207428,-0.029222866520285606,-0.13602468371391296
1667857268176930600,0.1649306640625,0.017645839601755142,-0.02731710858643055,-0.12747140228748322
1667857268186950700,0.17495068359375,0.02370612882077694,-0.02793096750974655,-0.11075208336114883
1667857268196971800,0.1849716796875,0.027882231399416924,-0.046546727418899536,-0.09479867666959763
1667857268206991600,0.19499169921875,0.03363519161939621,-0.08568907529115677,-0.07721409201622009
1667857268217012700,0.2050126953125,0.03572710603475571,-0.12211046367883682,-0.06778384000062943
1667857268227032600,0.215032470703125,0.040348220616579056,-0.15749268233776093,-0.06659580767154694
1667857268237053700,0.2250537109375,0.03808906301856041,-0.17517314851284027,-0.07638851553201675
1667857268247073500,0.235073486328125,0.021443506702780724,-0.1783313900232315,-0.08882121741771698
1667857268257094700,0.2450947265625,-0.0021883193403482437,-0.11527013033628464,-0.09369053691625595
1667857268267114800,0.25511474609375,-0.02095028944313526,0.01612330973148346,-0.09056798368692398
1667857268277135600,0.265135498046875,-0.025013474747538567,0.15352217853069305,-0.08835569769144058
1667857268287155700,0.27515576171875,-0.011028416454792023,0.23474539816379547,-0.09901978820562363
1667857268297176600,0.285176513671875,0.009554356336593628,0.27808594703674316,-0.12794597446918488
1667857268307196700,0.29519677734375,0.03277632221579552,0.25164180994033813,-0.17774522304534912
1667857268317217500,0.305217529296875,0.05300489440560341,0.14750982820987701,-0.2532048225402832
1667857268327237600,0.315237548828125,0.060978930443525314,0.022898390889167786,-0.3544912338256836
1667857268337258500,0.325258544921875,0.060377057641744614,-0.059963200241327286,-0.4583345353603363
1667857268347278600,0.335278564453125,0.06163433566689491,-0.12554380297660828,-0.5623704195022583
1667857268357299500,0.345299560546875,0.06535930186510086,-0.2141876518726349,-0.6561693549156189
1667857268367319600,0.355319580078125,0.059232961386442184,-0.34798645973205566,-0.7311820387840271
1667857268377340700,0.365340576171875,0.036254409700632095,-0.4362231194972992,-0.769580602645874
1667857268387360500,0.375360595703125,-0.007305849809199572,-0.3965398967266083,-0.7850479483604431
1667857268397381600,0.385381591796875,-0.05121897906064987,-0.26553845405578613,-0.7939647436141968
1667857268407401500,0.3954013671875,-0.09471558779478073,-0.09459175169467926,-0.8028181791305542
1667857268417422600,0.405422607421875,-0.13283315300941467,0.06881368160247803,-0.8157520890235901
1667857268427442400,0.4154423828125,-0.1507735252380371,0.16284963488578796,-0.8240262269973755
1667857268437463600,0.425463623046875,-0.1491308957338333,0.2204146683216095,-0.8147174119949341
1667857268447483600,0.435483642578125,-0.12465857714414597,0.2659296691417694,-0.7871326804161072
1667857268457504500,0.44550439453125,-0.07174529135227203,0.2966114282608032,-0.7599478960037231
1667857268467524600,0.455524658203125,0.02207707241177559,0.24937254190444946,-0.7096258997917175
1667857268477545500,0.46554541015625,0.12445138394832611,0.17989306151866913,-0.6278796195983887
1667857268487566600,0.475566650390625,0.21431122720241547,0.08404164016246796,-0.5419532656669617
1667857268497586700,0.485586669921875,0.2783847451210022,0.02514956146478653,-0.4539901316165924
1667857268507607800,0.49560791015625,0.3309265375137329,-0.013382118195295334,-0.38174256682395935
1667857268517627600,0.505627685546875,0.3657897114753723,-0.026330141350626945,-0.31808236241340637
1667857268527648800,0.515648681640625,0.3646882176399231,-0.060561347752809525,-0.2798263132572174
1667857268537668600,0.525668701171875,0.3366813361644745,-0.13394129276275635,-0.2799203395843506
1667857268547689700,0.535689697265625,0.28492122888565063,-0.17794443666934967,-0.3129611015319824
1667857268557709600,0.54570947265625,0.25310415029525757,-0.13236336410045624,-0.3644418716430664
1667857268567730700,0.555730712890625,0.2511097192764282,-0.03923076018691063,-0.44720014929771423
1667857268577750800,0.565750732421875,0.2604401111602783,0.06800860911607742,-0.5675960779190063
1667857268587771600,0.575771728515625,0.2659885287284851,0.17987123131752014,-0.7070623636245728
1667857268597791700,0.585791748046875,0.2566051483154297,0.33500781655311584,-0.8370943665504456
1667857268607812600,0.5958125,0.2750400900840759,0.5204834342002869,-0.9461750388145447
1667857268617832700,0.605832763671875,0.3352786600589752,0.7411025762557983,-0.9706708192825317
1667857268627853600,0.615853515625,0.40187394618988037,0.957501232624054,-0.9042374491691589
1667857268637873700,0.625873779296875,0.4504300057888031,1.0790486335754395,-0.7732312679290771
1667857268647894500,0.63589453125,0.4705052077770233,1.0675376653671265,-0.6317960619926453
1667857268657914600,0.64591455078125,0.47212493419647217,0.9539235234260559,-0.5077739953994751
1667857268667935500,0.655935546875,0.4158613979816437,0.7172864675521851,-0.40053996443748474
1667857268677955600,0.66595556640625,0.28629007935523987,0.4454227387905121,-0.2807408571243286
1667857268687976700,0.675976806640625,0.08415642380714417,0.22445973753929138,-0.1450517326593399
1667857268697996500,0.68599658203125,-0.14113901555538177,0.1482216864824295,-0.03406555950641632
1667857268708017700,0.696017578125,-0.3685151934623718,0.21152129769325256,0.0363558754324913
1667857268718037500,0.70603759765625,-0.5734363794326782,0.36189377307891846,0.07479967176914215
1667857268728058600,0.71605859375,-0.7622062563896179,0.5002825260162354,0.042579684406518936
1667857268738078700,0.72607861328125,-0.8948876261711121,0.6733299493789673,-0.06532574445009232
1667857268748099600,0.736099609375,-0.9849256277084351,0.8044730424880981,-0.22231721878051758
1667857268758119700,0.74611962890625,-1.0507011413574219,0.6608287692070007,-0.39906641840934753
1667857268768140500,0.756140625,-1.0383174419403076,0.4594306945800781,-0.5692427158355713
1667857268778160600,0.76616064453125,-0.9401800036430359,0.2275037318468094,-0.7129319310188293
1667857268788181500,0.776181396484375,-0.7858045697212219,0.017616810277104378,-0.7612483501434326
1667857268798202600,0.78620263671875,-0.5772721171379089,-0.17001967132091522,-0.7055158615112305
1667857268808222500,0.796222412109375,-0.3515135645866394,-0.23146678507328033,-0.5706735849380493
1667857268818243600,0.80624365234375,-0.11972959339618683,-0.12980566918849945,-0.4626994729042053
1667857268828263400,0.816263427734375,0.027696609497070312,0.12630094587802887,-0.4254242777824402
1667857268838284500,0.826284423828125,0.05724145099520683,0.27451756596565247,-0.4245116114616394
1667857268848304400,0.836304443359375,0.045881204307079315,0.33278462290763855,-0.44992348551750183
1667857268858325800,0.84632568359375,0.04760986194014549,0.350347101688385,-0.5072967410087585
1667857268868345600,0.856345703125,0.05505260080099106,0.33493512868881226,-0.5823715329170227
1667857268878366700,0.86636669921875,0.028085963800549507,0.23612092435359955,-0.6879813075065613
1667857268888386800,0.87638671875,-0.026619892567396164,0.10908947139978409,-0.7984812259674072
1667857268898407700,0.88640771484375,-0.08176969736814499,0.016349945217370987,-0.8818549513816833
1667857268908427800,0.896427734375,-0.12407027930021286,-0.05380624160170555,-0.9016382098197937
1667857268918448600,0.90644873046875,-0.15362071990966797,-0.09186014533042908,-0.8588880896568298
1667857268928468700,0.91646875,-0.17343969643115997,-0.13415087759494781,-0.7358982563018799
1667857268938489600,0.926489501953125,-0.1816803216934204,-0.18188831210136414,-0.5643286108970642
1667857268948509700,0.936509765625,-0.16592824459075928,-0.21216285228729248,-0.3993827998638153
1667857268958530600,0.946530517578125,-0.14441630244255066,-0.22558172047138214,-0.2676737904548645
1667857268968550700,0.956550537109375,-0.12348012626171112,-0.24030500650405884,-0.1934211254119873
1667857268978571800,0.96657177734375,-0.0815446600317955,-0.21763378381729126,-0.1512204110622406
1667857268988591600,0.976591552734375,-0.03099227137863636,-0.15413551032543182,-0.12144387513399124
1667857268998612700,0.98661279296875,0.02424568496644497,-0.08652424067258835,-0.09260556846857071
1667857269008632600,0.996632568359375,0.0555865615606308,-0.06254087388515472,-0.056116264313459396
1667857269018653700,1.00665380859375,0.059009257704019547,-0.06162581220269203,-0.031040474772453308
1667857269028673500,1.016673583984375,0.03621126711368561,-0.0801294595003128,-0.02641110122203827
1667857269038694700,1.026694580078125,0.0003081277245655656,-0.11597160995006561,-0.033956900238990784
1667857269048714800,1.03671484375,-0.02153724990785122,-0.1393805295228958,-0.022660572081804276
1667857269058734800,1.04673486328125,-0.022460568696260452,-0.15175916254520416,0.012782108038663864
1667857269068755000,1.0567548828125,-0.02165842428803444,-0.15714114904403687,0.07568623870611191
1667857269078775800,1.06677587890625,-0.035175297409296036,-0.1584668755531311,0.14543336629867554
1667857269088796000,1.0767958984375,-0.03993942588567734,-0.1524188369512558,0.2135184109210968
1667857269098816800,1.086816650390625,-0.043000198900699615,-0.15823304653167725,0.2613764703273773
1667857269108836900,1.0968369140625,-0.03969361633062363,-0.180966317653656,0.2747846841812134
1667857269118858000,1.10685791015625,-0.03181811794638634,-0.19152842462062836,0.2631394863128662
1667857269128879000,1.116879150390625,-0.017666878178715706,-0.1796105057001114,0.21889053285121918
1667857269138899200,1.126899169921875,-0.0016588830621913075,-0.13911980390548706,0.16921086609363556
1667857269148920000,1.136920166015625,0.008919192478060722,-0.10582390427589417,0.14426636695861816
1667857269158940200,1.146940185546875,0.027302194386720657,-0.06827652454376221,0.15905410051345825
1667857269168961000,1.1569609375,0.054241668432950974,-0.03844992071390152,0.20850980281829834
1667857269178981000,1.166981201171875,0.07711289077997208,-0.04814968630671501,0.2739314138889313
1667857269189002000,1.177001953125,0.09045160561800003,-0.07137831300497055,0.3376195728778839
1667857269199022000,1.18702197265625,0.09840566664934158,-0.09491745382547379,0.36889442801475525
1667857269209043000,1.19704296875,0.09546633809804916,-0.10955019295215607,0.36805444955825806
1667857269219063000,1.20706298828125,0.0792016088962555,-0.1013425961136818,0.3436601758003235
1667857269229084000,1.217083984375,0.06788238137960434,-0.08072733879089355,0.3073951005935669
1667857269239104000,1.22710400390625,0.060140300542116165,-0.05897623300552368,0.2822926640510559
1667857269249125000,1.237125,0.05570827051997185,-0.053762298077344894,0.28587594628334045
1667857269259145000,1.24714501953125,0.05151911824941635,-0.05414126440882683,0.3043593764305115
1667857269269166000,1.257166015625,0.05404219776391983,-0.06053977459669113,0.33229193091392517
1667857269279186000,1.26718603515625,0.06149105727672577,-0.0452154166996479,0.35819169878959656
1667857269289207000,1.27720703125,0.06632602959871292,-0.03858760744333267,0.3814072608947754
1667857269299227000,1.287226806640625,0.061113689094781876,-0.04899151250720024,0.40402042865753174
1667857269309248000,1.297248046875,0.050387538969516754,-0.06334728002548218,0.42529937624931335
1667857269319268000,1.30726806640625,0.05507363751530647,-0.0780777558684349,0.4512369632720947
1667857269329289000,1.3172890625,0.05982045829296112,-0.09902191907167435,0.4782818853855133
1667857269339309000,1.32730908203125,0.06039516627788544,-0.11331190913915634,0.5113588571548462
1667857269349330000,1.337329833984375,0.06387431919574738,-0.0926191508769989,0.5407633781433105
1667857269359350000,1.34735009765625,0.07290829718112946,-0.06320639699697495,0.5526346564292908
1667857269369371000,1.357370849609375,0.07455013692378998,-0.044739775359630585,0.5380847454071045
1667857269379391000,1.367390869140625,0.07691342383623123,-0.038551654666662216,0.5278846025466919
1667857269389411800,1.377411865234375,0.07562099397182465,-0.059598080813884735,0.507844865322113
1667857269399432000,1.387431884765625,0.06728076934814453,-0.06737131625413895,0.48744821548461914
1667857269409452800,1.397452880859375,0.06197548657655716,-0.07142385095357895,0.46114179491996765
1667857269419473000,1.407472900390625,0.05347361043095589,-0.07168776541948318,0.43969881534576416
1667857269429494000,1.417493896484375,0.04613180831074715,-0.036973729729652405,0.426932692527771
1667857269439513900,1.427513916015625,0.049257028847932816,-0.01101776398718357,0.4194374680519104
1667857269449535000,1.437534912109375,0.04982028529047966,-0.00621022516861558,0.41807499527931213
1667857269459556000,1.44755615234375,0.054785750806331635,-0.005839779507368803,0.4243837594985962
1667857269469576000,1.457575927734375,0.06427060067653656,-0.0051894355565309525,0.4360462725162506
1667857269479597000,1.46759716796875,0.06536941975355148,-0.013194099068641663,0.44326213002204895
1667857269489617000,1.477616943359375,0.07091785222291946,-0.04236503317952156,0.4455343186855316
1667857269499638000,1.487637939453125,0.07989270240068436,-0.06518646329641342,0.43790650367736816
1667857269509658000,1.497658203125,0.0978487953543663,-0.05850378796458244,0.4310680329799652
1667857269519679000,1.507678955078125,0.10983755439519882,-0.04484497010707855,0.42947015166282654
1667857269529699000,1.517698974609375,0.11990988999605179,-0.020673586055636406,0.4274898171424866
1667857269539720000,1.527719970703125,0.11746351420879364,-0.004742823541164398,0.4213770627975464
1667857269549740000,1.537739990234375,0.10183288902044296,-0.015111574903130531,0.4130706489086151
1667857269559761200,1.54776123046875,0.08780521899461746,-0.04432858154177666,0.39433133602142334
1667857269569781000,1.557781005859375,0.08732026070356369,-0.07414666563272476,0.37062308192253113
1667857269579802000,1.567802001953125,0.08655193448066711,-0.0855492576956749,0.3386598229408264
1667857269589822000,1.577822021484375,0.07616320997476578,-0.09124229848384857,0.30704328417778015
1667857269599843000,1.587843017578125,0.06625305861234665,-0.07723753154277802,0.2752033472061157
1667857269609863200,1.59786328125,0.05579828470945358,-0.059356801211833954,0.24413250386714935
1667857269619884000,1.607884033203125,0.051486361771821976,-0.046662312000989914,0.21040862798690796
1667857269629904100,1.617904052734375,0.04601835831999779,-0.04111015051603317,0.16797302663326263
1667857269639925000,1.627925048828125,0.04007737711071968,-0.03339337557554245,0.11718068271875381
1667857269649945000,1.637945068359375,0.041781533509492874,-0.027454793453216553,0.06525703519582748
1667857269659966000,1.647966064453125,0.03640168160200119,-0.027246268466114998,0.016861004754900932
1667857269669986000,1.657986083984375,0.028144020587205887,-0.028381839394569397,-0.02653147652745247
1667857269680007000,1.6680068359375,0.01133707631379366,-0.02419561706483364,-0.0725245326757431
1667857269690027000,1.678027099609375,-0.01991698332130909,-0.012780776247382164,-0.1295127123594284
1667857269700048000,1.6880478515625,-0.05943403020501137,0.0017861821688711643,-0.19609308242797852
1667857269710068000,1.69806787109375,-0.0940769612789154,0.005046157632023096,-0.26591289043426514
1667857269720088800,1.7080888671875,-0.11469702422618866,0.009110141545534134,-0.33713141083717346
1667857269730109000,1.71810888671875,-0.13203632831573486,0.03840331360697746,-0.400263249874115
1667857269740130000,1.728130126953125,-0.15185211598873138,0.05571998655796051,-0.45789405703544617
1667857269750150000,1.73814990234375,-0.18244650959968567,0.050154246389865875,-0.515250563621521
1667857269760171000,1.7481708984375,-0.20533743500709534,0.027959462255239487,-0.5677534341812134
1667857269770190800,1.75819091796875,-0.22752876579761505,0.007437942549586296,-0.600507378578186
1667857269780212000,1.7682119140625,-0.25094833970069885,-0.02347576431930065,-0.6218954920768738
1667857269790232000,1.778232177734375,-0.2589724361896515,-0.03885418921709061,-0.619260311126709
1667857269800253000,1.7882529296875,-0.2545452117919922,-0.03754417970776558,-0.6118221282958984
1667857269810273000,1.79827294921875,-0.23566950857639313,-0.05133669078350067,-0.6064372062683105
1667857269820294000,1.8082939453125,-0.22556228935718536,-0.07958537340164185,-0.6301689147949219
1667857269830314000,1.81831396484375,-0.22005221247673035,-0.13343794643878937,-0.7034047245979309
1667857269840334800,1.8283349609375,-0.24182380735874176,-0.17177681624889374,-0.817703902721405
1667857269850355000,1.83835498046875,-0.2882203459739685,-0.26695287227630615,-0.9741401076316833
1667857269860375800,1.848375732421875,-0.3394331932067871,-0.3991657793521881,-1.1095376014709473
1667857269870396000,1.85839599609375,-0.33942121267318726,-0.46656370162963867,-1.0849331617355347
1667857269880416800,1.868416748046875,-0.31998518109321594,-0.4420245587825775,-0.8184986114501953
1667857269890438100,1.878438232421875,-0.28261810541152954,-0.5063694715499878,-0.41343098878860474
1667857269900458000,1.8884580078125,-0.21899360418319702,-0.5853657126426697,-0.0529356524348259
1667857269910479000,1.89847900390625,-0.1287800818681717,-0.6417256593704224,0.13633812963962555
1667857269920499200,1.908499267578125,-0.060495033860206604,-0.5858030319213867,0.09235629439353943
1667857269930520000,1.91852001953125,-0.03922916203737259,-0.3898918330669403,-0.20302368700504303
1667857269940540200,1.9285400390625,-0.05133828893303871,-0.17599047720432281,-0.6825609803199768
1667857269950561000,1.93856103515625,-0.04743222892284393,0.0019329222850501537,-1.2162374258041382
1667857269960581000,1.9485810546875,0.02799142152070999,0.14683471620082855,-1.5656590461730957
1667857269970602000,1.95860205078125,0.1328754872083664,0.24590083956718445,-1.596027135848999
1667857269980622000,1.9686220703125,0.23337200284004211,0.29799893498420715,-1.3768178224563599
1667857269990643000,1.978642822265625,0.3133014440536499,0.32416343688964844,-1.0550082921981812
1667857270000663000,1.9886630859375,0.380836546421051,0.2925511598587036,-0.7347421646118164
1667857270010684000,1.998683837890625,0.4545597732067108,0.1856292486190796,-0.4796379804611206
1667857270020704000,2.0087041015625,0.5142385363578796,0.018610969185829163,-0.30486324429512024
1667857270030725000,2.01872509765625,0.5576949715614319,-0.15466228127479553,-0.193423792719841
1667857270040745000,2.028744873046875,0.5705481767654419,-0.32905858755111694,-0.1484917402267456
1667857270050766600,2.0387666015625,0.5539529323577881,-0.5993832945823669,-0.19127514958381653
1667857270060786400,2.048786376953125,0.49587926268577576,-0.7786172032356262,-0.2965424656867981
1667857270070807600,2.0588076171875,0.3779643476009369,-0.8925067782402039,-0.4205200672149658
1667857270080827400,2.068827392578125,0.21252770721912384,-0.8803656697273254,-0.5347057580947876
1667857270090848500,2.0788486328125,0.025470206514000893,-0.7771633863449097,-0.6251725554466248
1667857270100868400,2.088868408203125,-0.13540655374526978,-0.635915994644165,-0.6323063373565674
1667857270110889500,2.098889404296875,-0.17731618881225586,-0.49434420466423035,-0.5193939208984375
1667857270120909600,2.10890966796875,-0.16277560591697693,-0.396301805973053,-0.2990993559360504
1667857270130930400,2.118930419921875,-0.20649485290050507,-0.3124234080314636,-0.03958149626851082
1667857270140950500,2.128950439453125,-0.2609865963459015,-0.2528229355812073,0.18773208558559418
1667857270150971400,2.138971435546875,-0.3091740906238556,-0.23012694716453552,0.3610663115978241
1667857270160991500,2.148991455078125,-0.3615235686302185,-0.1917784959077835,0.43619248270988464
1667857270171012400,2.159012451171875,-0.4057810604572296,-0.17237763106822968,0.3887746334075928
1667857270181032400,2.169032470703125,-0.425184041261673,-0.1334507316350937,0.2912214696407318
1667857270191053300,2.17905322265625,-0.383749783039093,-0.09072617441415787,0.17445889115333557
1667857270201073400,2.189073486328125,-0.280452162027359,-0.0745764970779419,0.06758356839418411
1667857270211094300,2.19909423828125,-0.14323359727859497,-0.027473436668515205,-0.0009622001089155674
1667857270221114400,2.2091142578125,0.0033310819417238235,0.005540973041206598,-0.030601052567362785
1667857270231135500,2.219135498046875,0.13767769932746887,0.05618470907211304,-0.003656520042568445
1667857270241155300,2.2291552734375,0.25908881425857544,0.052741240710020065,0.0686216726899147
1667857270251176700,2.2391767578125,0.35500630736351013,-0.0016729978378862143,0.1615191251039505
1667857270261196300,2.2491962890625,0.4209328591823578,-0.06943153589963913,0.26419597864151
1667857270271217700,2.2592177734375,0.4645402431488037,-0.13078518211841583,0.35552534461021423
1667857270281237500,2.269237548828125,0.5085892081260681,-0.15918485820293427,0.4652443826198578
1667857270291258600,2.279258544921875,0.5502048134803772,-0.15979258716106415,0.5847875475883484
1667857270301278500,2.289278564453125,0.5596422553062439,-0.17678968608379364,0.6963191628456116
1667857270311299600,2.299299560546875,0.5320450067520142,-0.1922040581703186,0.7769476771354675
1667857270321319700,2.309319580078125,0.485996276140213,-0.17665812373161316,0.8102688789367676
1667857270331340500,2.319340576171875,0.42984911799430847,-0.11163438856601715,0.7909159660339355
1667857270341360600,2.329360595703125,0.37183693051338196,-0.046725958585739136,0.7316033840179443
1667857270351381500,2.339381591796875,0.3168325424194336,0.0075575183145701885,0.645561933517456
1667857270361401600,2.349401611328125,0.2750622034072876,0.03243410587310791,0.5623642802238464
1667857270371422500,2.35942236328125,0.24613839387893677,0.005534847732633352,0.49153244495391846
1667857270381442600,2.369442626953125,0.23010510206222534,-0.03454359620809555,0.46145445108413696
1667857270391463400,2.37946337890625,0.21910971403121948,-0.06685493141412735,0.4670121967792511
1667857270401483500,2.3894833984375,0.2080344259738922,-0.08789230138063431,0.5135179162025452
1667857270411504400,2.39950439453125,0.20806638896465302,-0.1056867465376854,0.5943943858146667
1667857270421524500,2.4095244140625,0.23059193789958954,-0.10651685297489166,0.7094298601150513
1667857270431545600,2.419545654296875,0.2706187069416046,-0.10239002108573914,0.8296750783920288
1667857270441565400,2.4295654296875,0.3275264799594879,-0.10609474778175354,0.9333215951919556
1667857270451586600,2.439586669921875,0.3848930895328522,-0.12155412882566452,1.0065550804138184
1667857270461607400,2.449607421875,0.41408586502075195,-0.10282651335000992,1.0413005352020264
1667857270471627500,2.45962744140625,0.41574394702911377,-0.07067310065031052,1.02877676486969
1667857270481648400,2.4696484375,0.40900295972824097,-0.041725076735019684,0.9807660579681396
1667857270491668500,2.47966845703125,0.4006131887435913,-0.0002846919232979417,0.9134051203727722
1667857270501689300,2.489689453125,0.3930327594280243,0.028734441846609116,0.8327909708023071
1667857270511709400,2.49970947265625,0.3832840025424957,0.0277424156665802,0.7475085854530334
1667857270521730300,2.509730224609375,0.3717823326587677,0.009151686914265156,0.6744180917739868
1667857270531750400,2.51975048828125,0.36003541946411133,-0.023207051679491997,0.6149526238441467
1667857270541771500,2.529771484375,0.3577309846878052,-0.06642935425043106,0.5790825486183167
1667857270551791400,2.539791259765625,0.35396820306777954,-0.09907518327236176,0.5452678203582764
1667857270561812500,2.5498125,0.34911617636680603,-0.148071750998497,0.5162715911865234
1667857270571832300,2.559832275390625,0.3426058292388916,-0.22127646207809448,0.48885810375213623
1667857270581853400,2.569853515625,0.33990857005119324,-0.22931574285030365,0.48354271054267883
1667857270591873300,2.579873291015625,0.33230099081993103,-0.2252834588289261,0.49783986806869507
1667857270601894400,2.589894287109375,0.3179020583629608,-0.2252616137266159,0.5168601870536804
1667857270611914500,2.59991455078125,0.2924518287181854,-0.22629812359809875,0.5349347591400146
1667857270621935400,2.609935302734375,0.26371607184410095,-0.22462165355682373,0.546862006187439
1667857270631955500,2.61995556640625,0.23656487464904785,-0.22200776636600494,0.5472455024719238
1667857270641976600,2.6299765625,0.2127000093460083,-0.2289745956659317,0.5431817770004272
1667857270651996400,2.639996337890625,0.1845828890800476,-0.26769164204597473,0.5171821713447571
1667857270662017500,2.650017578125,0.15587881207466125,-0.32903221249580383,0.4733965992927551
1667857270672037600,2.66003759765625,0.12324497103691101,-0.38301050662994385,0.3971276581287384
1667857270682058500,2.67005859375,0.09584210813045502,-0.43184247612953186,0.30065783858299255
1667857270692078600,2.68007861328125,0.057735200971364975,-0.4790302515029907,0.19305893778800964
1667857270702099500,2.690099365234375,0.016271913424134254,-0.49074602127075195,0.09323540329933167
1667857270712119600,2.70011962890625,-0.028797026723623276,-0.46593520045280457,0.019170232117176056
1667857270722140700,2.710140625,-0.07208191603422165,-0.45852577686309814,-0.028311531990766525
1667857270732160500,2.720160400390625,-0.11098617315292358,-0.4357141852378845,-0.04996543005108833
1667857270742181600,2.730181640625,-0.16094867885112762,-0.3792027235031128,-0.054437942802906036
1667857270752201500,2.740201416015625,-0.21160972118377686,-0.28627675771713257,-0.06595158576965332
1667857270762222600,2.75022265625,-0.25464773178100586,-0.17604054510593414,-0.08514712005853653
1667857270772242400,2.760242431640625,-0.30746832489967346,-0.07777948677539825,-0.1085086315870285
1667857270782263600,2.770263671875,-0.36153504252433777,-0.0014106763992458582,-0.14256860315799713
1667857270792283600,2.78028369140625,-0.39973753690719604,0.05704544112086296,-0.17212516069412231
1667857270802304500,2.790304443359375,-0.4047195315361023,0.08470476418733597,-0.19113187491893768
1667857270812324600,2.80032470703125,-0.3956187069416046,0.07165767252445221,-0.19772478938102722
1667857270822345500,2.810345458984375,-0.389057993888855,-0.024032631888985634,-0.1777457594871521
1667857270832365600,2.820365478515625,-0.38714799284935,-0.1300770491361618,-0.13865268230438232
1667857270842386400,2.830386474609375,-0.3815912902355194,-0.19109272956848145,-0.06969758868217468
1667857270852406500,2.840406494140625,-0.37196823954582214,-0.21768306195735931,0.01684289611876011
1667857270862427400,2.850427490234375,-0.33262455463409424,-0.17915190756320953,0.10722631961107254
1667857270872447500,2.860447509765625,-0.26082998514175415,-0.05320063605904579,0.1945210099220276
1667857270882468400,2.87046826171875,-0.16105599701404572,0.12104146927595139,0.25211188197135925
1667857270892488400,2.880488525390625,-0.036072250455617905,0.30759429931640625,0.27655357122421265
1667857270902509600,2.890509521484375,0.06613454222679138,0.520477831363678,0.26665058732032776
1667857270912529400,2.900529296875,0.10365981608629227,0.7138741612434387,0.2178013026714325
1667857270922550500,2.910550537109375,0.10146483778953552,0.8073441982269287,0.16531439125537872
1667857270932570400,2.9205703125,0.11044581979513168,0.7850503325462341,0.11981908231973648
1667857270942591500,2.930591552734375,0.12533874809741974,0.6852880716323853,0.06582721322774887
1667857270952611300,2.940611328125,0.12918168306350708,0.5449464321136475,0.012944826856255531
1667857270962632400,2.950632568359375,0.11329060792922974,0.4116690456867218,-0.013980530202388763
1667857270972652500,2.960652587890625,0.07460419833660126,0.3032482862472534,-0.006219812668859959
1667857270982673400,2.97067333984375,0.043352000415325165,0.24949584901332855,0.04192294925451279
1667857270992693500,2.980693603515625,0.041725609451532364,0.2751990854740143,0.11591728031635284
1667857271002714400,2.99071435546875,0.08822440356016159,0.3769446313381195,0.20063643157482147
1667857271012735500,3.000735595703125,0.1642984002828598,0.5127445459365845,0.2568325996398926
1667857271022755300,3.01075537109375,0.24510057270526886,0.6248342990875244,0.2666833698749542
1667857271032776700,3.020776611328125,0.33304452896118164,0.6639811992645264,0.2423039823770523
1667857271042796300,3.03079638671875,0.4162834882736206,0.5626782774925232,0.20199944078922272
1667857271052818000,3.04081787109375,0.4994673430919647,0.42187029123306274,0.15619014203548431
1667857271062837800,3.050837646484375,0.5588502287864685,0.23082149028778076,0.12291580438613892
1667857271072859000,3.06085888671875,0.5880880355834961,0.00618066405877471,0.08821987360715866
1667857271082878700,3.070878662109375,0.5837792754173279,-0.21827295422554016,0.03988003730773926
1667857271092899800,3.08089990234375,0.5536584258079529,-0.41801029443740845,-0.03585014119744301
1667857271102920000,3.090919921875,0.4924144744873047,-0.5608580112457275,-0.13551095128059387
1667857271112940800,3.10094091796875,0.40787509083747864,-0.6473292112350464,-0.24825401604175568
1667857271122961000,3.1109609375,0.3122740089893341,-0.6886710524559021,-0.3613092005252838
1667857271132981800,3.120981689453125,0.2073419988155365,-0.7064700722694397,-0.468252956867218
1667857271143001900,3.131001953125,0.10014045238494873,-0.6570225954055786,-0.558810830116272
1667857271153022700,3.141022705078125,-0.005425658077001572,-0.5565907955169678,-0.6100013256072998
1667857271163042800,3.151042724609375,-0.09319864958524704,-0.4266282916069031,-0.6134729981422424
1667857271173063700,3.161063720703125,-0.17118746042251587,-0.273612916469574,-0.5719247460365295
1667857271183083800,3.171083740234375,-0.23631267249584198,-0.11836472898721695,-0.5087910890579224
1667857271193104600,3.181104736328125,-0.2876474857330322,0.045167211443185806,-0.46251943707466125
1667857271203124700,3.191124755859375,-0.3023422956466675,0.19406960904598236,-0.4390444755554199
1667857271213145900,3.201145751953125,-0.28056374192237854,0.31697848439216614,-0.4183807373046875
1667857271223165700,3.211165771484375,-0.23529906570911407,0.46074551343917847,-0.39531615376472473
1667857271233187000,3.22118701171875,-0.19503207504749298,0.5734675526618958,-0.35436126589775085
1667857271243207000,3.23120703125,-0.16677168011665344,0.6130607724189758,-0.2893732190132141
1667857271253228000,3.24122802734375,-0.1528731733560562,0.5980327725410461,-0.1936727911233902
1667857271263248000,3.251247802734375,-0.1429062932729721,0.5810500979423523,-0.10784337669610977
1667857271273269000,3.26126904296875,-0.1283808797597885,0.5753051042556763,-0.05686887353658676
1667857271283288800,3.271288818359375,-0.09475100785493851,0.5918657183647156,-0.04526494815945625
1667857271293310000,3.28131005859375,-0.05301687866449356,0.6047295928001404,-0.07180041819810867
1667857271303330000,3.291330078125,-0.02647262066602707,0.58512282371521,-0.11516787111759186
1667857271313351000,3.301350830078125,-0.016562731936573982,0.5501406192779541,-0.15691079199314117
1667857271323371000,3.31137109375,-0.018435467034578323,0.5388035774230957,-0.17004762589931488
1667857271333392000,3.321391845703125,-0.019894879311323166,0.5122643709182739,-0.14225727319717407
1667857271343412000,3.331411865234375,-0.041906971484422684,0.4928445816040039,-0.07224836200475693
1667857271353432800,3.341432861328125,-0.07953610271215439,0.3951590359210968,0.010668356902897358
1667857271363453000,3.351452880859375,-0.13428883254528046,0.284782737493515,0.09316936135292053
1667857271373473800,3.361473876953125,-0.20158931612968445,0.20305724442005157,0.15996995568275452
1667857271383494000,3.371493896484375,-0.28431615233421326,0.15900829434394836,0.20454834401607513
1667857271393514800,3.3815146484375,-0.350536972284317,0.14797748625278473,0.21831955015659332
1667857271403534800,3.391534912109375,-0.3882228434085846,0.13861806690692902,0.19822147488594055
1667857271413556000,3.401555908203125,-0.38506966829299927,0.10240013897418976,0.15641304850578308
1667857271423575800,3.411575927734375,-0.35715094208717346,0.0945182517170906,0.10880584269762039
1667857271433597000,3.421596923828125,-0.31077811121940613,0.10084246098995209,0.07115726917982101
1667857271443616800,3.43161669921875,-0.2706376314163208,0.12638190388679504,0.0462881363928318
1667857271453638000,3.441637939453125,-0.23814092576503754,0.2040783017873764,0.03586425632238388
1667857271463657700,3.45165771484375,-0.20806372165679932,0.32620686292648315,0.035960931330919266
1667857271473678800,3.461678955078125,-0.16334497928619385,0.4690985083580017,0.0288257896900177
1667857271483699000,3.471698974609375,-0.09980515390634537,0.6105624437332153,-0.0020698087755590677
1667857271493719800,3.4817197265625,-0.022946061566472054,0.6975990533828735,-0.05597884580492973
1667857271503740000,3.491739990234375,0.05860845372080803,0.7408828735351562,-0.1003713458776474
1667857271513760800,3.5017607421875,0.1246604397892952,0.7561761140823364,-0.11998153477907181
1667857271523780900,3.51178076171875,0.17115390300750732,0.7486560940742493,-0.10510750859975815
1667857271533801700,3.5218017578125,0.2063278704881668,0.682092547416687,-0.06199759244918823
1667857271543822800,3.53182275390625,0.20792123675346375,0.49765026569366455,0.00666296249255538
1667857271553842700,3.5418427734375,0.21420550346374512,0.20157305896282196,0.09477311372756958
1667857271563863800,3.55186376953125,0.2422027885913849,-0.14429858326911926,0.1109483540058136
1667857271573883600,3.561883544921875,0.23616646230220795,-0.464293897151947,0.06709621101617813
1667857271583904800,3.57190478515625,0.19448480010032654,-0.5916225910186768,-0.07193277776241302
1667857271593924900,3.5819248046875,0.13330905139446259,-0.5498953461647034,-0.2819629907608032
1667857271603946000,3.591946044921875,0.08117474615573883,-0.4169844388961792,-0.5130542516708374
1667857271613965800,3.6019658203125,0.04375919699668884,-0.2831118702888489,-0.6961673498153687
1667857271623987000,3.611987060546875,0.020745225250720978,-0.19215159118175507,-0.7924177050590515
1667857271634007000,3.622007080078125,0.006563093978911638,-0.07369180023670197,-0.7922949194908142
1667857271644028000,3.63202783203125,0.004291950259357691,0.03140745684504509,-0.7230756878852844
1667857271654048000,3.642048095703125,0.01944187469780445,0.04637868329882622,-0.5898140072822571
1667857271664068900,3.65206884765625,0.04773183539509773,-0.04123425483703613,-0.4284631907939911
1667857271674089000,3.6620888671875,0.07604309916496277,-0.20213738083839417,-0.2804843783378601
1667857271684109800,3.67210986328125,0.09546233713626862,-0.36913755536079407,-0.16996054351329803
1667857271694130000,3.6821298828125,0.11100082099437714,-0.4886951148509979,-0.1185801774263382
1667857271704151000,3.692151123046875,0.12196744978427887,-0.5888124108314514,-0.1250639110803604
1667857271714171000,3.7021708984375,0.1338651180267334,-0.6639676094055176,-0.16653278470039368
1667857271724192000,3.71219189453125,0.14809438586235046,-0.6595949530601501,-0.20803655683994293
1667857271734211800,3.7222119140625,0.16758526861667633,-0.6522954702377319,-0.20804055035114288
1667857271744233000,3.73223291015625,0.05104720592498779,-0.7471802234649658,-0.2172183394432068
1667857271754252800,3.742252685546875,-0.6674837470054626,-0.16172684729099274,-0.18220175802707672
1667857271764274000,3.75227392578125,-1.58880615234375,1.6521012783050537,0.05330077186226845
1667857271774294000,3.7622939453125,-1.832057237625122,3.277207374572754,0.5756414532661438
1667857271784315000,3.77231494140625,-1.4952021837234497,3.996182918548584,1.298596739768982
1667857271794335000,3.7823349609375,-1.0270839929580688,3.847151517868042,1.9792197942733765
1667857271804355800,3.79235595703125,-0.6423989534378052,2.7557461261749268,2.5065863132476807
1667857271814376000,3.8023759765625,-0.268419474363327,1.228813886642456,2.6426875591278076
1667857271824396800,3.812396728515625,0.12675634026527405,-0.0044080642983317375,2.234098196029663
1667857271834417000,3.8224169921875,0.574810266494751,-1.092165231704712,1.4925254583358765
1667857271844437800,3.832437744140625,0.9438168406486511,-1.8367353677749634,0.612678587436676
1667857271854457900,3.842457763671875,1.1070427894592285,-1.9953619241714478,-0.05555726960301399
1667857271864478700,3.852478759765625,0.9476099610328674,-1.4262751340866089,-0.49223124980926514
1667857271874498800,3.862498779296875,0.6076936721801758,-0.42642614245414734,-0.6731019616127014
1667857271884520000,3.87252001953125,0.3849506080150604,0.23683571815490723,-0.5039139986038208
1667857271894539800,3.882539794921875,0.2914488911628723,0.5878560543060303,-0.08362698554992676
1667857271904561000,3.892560791015625,0.21697093546390533,0.7377699017524719,0.35209333896636963
1667857271914580700,3.902580810546875,0.1879986673593521,0.6306482553482056,0.711309015750885
1667857271924601900,3.912601806640625,0.2007562667131424,0.3164471983909607,0.9780666828155518
1667857271934621700,3.92262158203125,0.1957995891571045,-0.005634982604533434,1.1224387884140015
1667857271944642800,3.932642822265625,0.18756882846355438,-0.23172298073768616,1.1361404657363892
1667857271954663000,3.942662841796875,0.22760146856307983,-0.3096025884151459,1.0457894802093506
1667857271964683800,3.952683837890625,0.30780336260795593,-0.27436551451683044,0.9079504609107971
1667857271974703900,3.962703857421875,0.36865606904029846,-0.18435625731945038,0.7452288866043091
1667857271984724700,3.972724853515625,0.4032268226146698,-0.04528838396072388,0.5911322832107544
1667857271994744800,3.982744873046875,0.40900322794914246,0.12742958962917328,0.45892098546028137
1667857272004765700,3.992765625,0.3667963743209839,0.26011228561401367,0.3467680811882019
1667857272014785800,4.002785888671875,0.2913426160812378,0.3791944682598114,0.24808543920516968
1667857272024807000,4.012806884765625,0.2029949277639389,0.46258682012557983,0.16305869817733765
1667857272034828000,4.022828125,0.1136498674750328,0.516002893447876,0.07910200953483582
1667857272044847900,4.032847900390625,0.04989245906472206,0.5658239722251892,0.011231615208089352
1667857272054868000,4.042867919921875,-0.005161206237971783,0.5992149710655212,-0.01456056721508503
1667857272064888000,4.05288818359375,-0.06058451905846596,0.5788913369178772,-0.006615025922656059
1667857272074909000,4.062908935546875,-0.10592563450336456,0.5128204226493835,0.051421910524368286
1667857272084929000,4.072928955078125,-0.13302063941955566,0.3813484311103821,0.15127500891685486
1667857272094950000,4.082949951171875,-0.09892604500055313,0.17077946662902832,0.2777320146560669
1667857272104970000,4.092969970703125,-0.029406890273094177,-0.020844295620918274,0.45001670718193054
1667857272114990800,4.102990966796875,0.08815702050924301,-0.18855366110801697,0.6681612730026245
1667857272125011000,4.113010986328125,0.2264765501022339,-0.3118279278278351,0.8866161108016968
1667857272135032000,4.123031982421875,0.3307400941848755,-0.4208281934261322,1.076610803604126
1667857272145052000,4.133052001953125,0.37511688470840454,-0.47946301102638245,1.204206109046936
1667857272155073000,4.143072998046875,0.38517698645591736,-0.49520254135131836,1.2015538215637207
1667857272165092900,4.1530927734375,0.3958660960197449,-0.46320414543151855,1.0436015129089355
1667857272175114000,4.163114013671875,0.3983076810836792,-0.3927752375602722,0.7656779885292053
1667857272185133800,4.1731337890625,0.38948944211006165,-0.29449981451034546,0.4148957133293152
1667857272195155200,4.1831552734375,0.3811950087547302,-0.13628380000591278,0.08282111585140228
1667857272205175000,4.193175048828125,0.38306722044944763,0.053467217832803726,-0.16106371581554413
1667857272215196200,4.203196044921875,0.3859013617038727,0.19643209874629974,-0.2809557616710663
1667857272225216000,4.213216064453125,0.3625670075416565,0.2832322418689728,-0.2734246253967285
1667857272235237000,4.223237060546875,0.3087748885154724,0.29762184619903564,-0.15945729613304138
1667857272245257200,4.23325732421875,0.23649056255817413,0.23252512514591217,0.023388147354125977
1667857272255278000,4.243278076171875,0.1570892184972763,0.10063686221837997,0.22743874788284302
1667857272265298200,4.253298095703125,0.07851877808570862,-0.07583191245794296,0.40760931372642517
1667857272275319000,4.263319091796875,0.00694871973246336,-0.23003479838371277,0.5313781499862671
1667857272285339100,4.273339111328125,-0.04045208543539047,-0.35405340790748596,0.5904552936553955
1667857272295360000,4.283360107421875,-0.0654839351773262,-0.4296126067638397,0.5778018236160278
1667857272305380000,4.293380126953125,-0.08017819374799728,-0.47032809257507324,0.5121951103210449
1667857272315401000,4.30340087890625,-0.08581157773733139,-0.47731995582580566,0.4083070755004883
1667857272325421000,4.313421142578125,-0.08370981365442276,-0.46510910987854004,0.29079028964042664
1667857272335442200,4.323442138671875,-0.05745343863964081,-0.48676806688308716,0.19017286598682404
1667857272345462000,4.3334619140625,-0.010188455693423748,-0.4791783094406128,0.11681663244962692
1667857272355483100,4.343483154296875,0.0504104420542717,-0.416469931602478,0.07435918599367142
1667857272365503000,4.3535029296875,0.10854991525411606,-0.25476276874542236,0.09058396518230438
1667857272375524000,4.363524169921875,0.1419302374124527,-0.025896579027175903,0.17770501971244812
1667857272385544000,4.3735439453125,0.16450825333595276,0.10569100826978683,0.29148536920547485
1667857272395565000,4.38356494140625,0.19063572585582733,0.14520086348056793,0.40433576703071594
1667857272405585200,4.393585205078125,0.22903691232204437,0.14209455251693726,0.5062775611877441
1667857272415606000,4.40360595703125,0.26637524366378784,0.12393712252378464,0.573821485042572
1667857272425626000,4.413626220703125,0.289527952671051,0.09894096106290817,0.5853766798973083
1667857272435647000,4.42364697265625,0.3015688955783844,0.08042480051517487,0.5540139079093933
1667857272445668000,4.433668212890625,0.31268787384033203,0.08179792761802673,0.4899633228778839
1667857272455688000,4.44368798828125,0.3112010359764099,0.09157732129096985,0.39814499020576477
1667857272465709000,4.453708984375,0.2955368459224701,0.12878301739692688,0.2877793312072754
1667857272475729000,4.46372900390625,0.2726712226867676,0.1916341483592987,0.18302761018276215
1667857272485750000,4.47375,0.24862872064113617,0.2557215094566345,0.09315177798271179
1667857272495769900,4.483769775390625,0.22919856011867523,0.283071905374527,0.022911440581083298
1667857272505791000,4.493791015625,0.21816588938236237,0.29080599546432495,-0.034336935728788376
1667857272515811000,4.50381103515625,0.22325891256332397,0.2751687169075012,-0.07439753413200378
1667857272525832000,4.51383203125,0.2435639202594757,0.24903592467308044,-0.10375728458166122
1667857272535852000,4.52385205078125,0.2677563428878784,0.22367170453071594,-0.12067635357379913
1667857272545873000,4.533872802734375,0.2841065526008606,0.20149290561676025,-0.13370560109615326
1667857272555893000,4.54389306640625,0.3012021780014038,0.19171537458896637,-0.1373317539691925
1667857272565913900,4.553913818359375,0.3048539161682129,0.19185759127140045,-0.13160783052444458
1667857272575934000,4.563933837890625,0.28744617104530334,0.2118811011314392,-0.1112799197435379
1667857272585955000,4.573955078125,0.26053836941719055,0.21829718351364136,-0.07996354252099991
1667857272595975000,4.583974853515625,0.21278417110443115,0.19813545048236847,-0.0422222875058651
1667857272605996000,4.59399609375,0.15337170660495758,0.14777427911758423,-0.008505604229867458
1667857272616016000,4.604015869140625,0.09310224652290344,0.07363080978393555,0.0136638805270195
1667857272626037200,4.614037353515625,0.03313717991113663,-0.014721687883138657,0.01284442562609911
1667857272636057000,4.62405712890625,-0.01495205145329237,-0.09285883605480194,-0.005425658077001572
1667857272646078200,4.634078125,-0.052082110196352005,-0.15002918243408203,-0.04187554493546486
1667857272656098000,4.64409814453125,-0.07408168166875839,-0.17654147744178772,-0.07358340919017792
1667857272666119200,4.654119140625,-0.1003500372171402,-0.18774273991584778,-0.10156204551458359
1667857272676139000,4.664138916015625,-0.12806423008441925,-0.18988178670406342,-0.12337599694728851
1667857272686160100,4.67416015625,-0.1589909791946411,-0.18862824141979218,-0.1428636759519577
1667857272696180200,4.68418017578125,-0.184419646859169,-0.18872889876365662,-0.1650344878435135
1667857272706201000,4.694201171875,-0.2091473639011383,-0.1945204734802246,-0.20102578401565552
1667857272716221200,4.70422119140625,-0.22398915886878967,-0.17086468636989594,-0.24529871344566345
1667857272726242000,4.714241943359375,-0.2308497279882431,-0.11132226139307022,-0.2906789779663086
1667857272736262100,4.72426220703125,-0.236165389418602,-0.049376871436834335,-0.3291001319885254
1667857272746283000,4.734282958984375,-0.24003949761390686,-0.012681440450251102,-0.36470046639442444
1667857272756303000,4.74430322265625,-0.23837529122829437,0.018680743873119354,-0.4003759026527405
1667857272766324000,4.754323974609375,-0.23243802785873413,0.05462409555912018,-0.42843684554100037
1667857272776344000,4.764343994140625,-0.22838124632835388,0.07763513922691345,-0.4423723518848419
1667857272786365000,4.774364990234375,-0.21392028033733368,0.09857051819562912,-0.4509115219116211
1667857272796385000,4.784385009765625,-0.20379680395126343,0.11150442063808441,-0.4607907831668854
1667857272806406100,4.79440625,-0.19263842701911926,0.10481482744216919,-0.46102967858314514
1667857272816426000,4.804426025390625,-0.1848934143781662,0.10137136280536652,-0.4530199468135834
1667857272826447000,4.814447021484375,-0.17921608686447144,0.09913377463817596,-0.4495421350002289
1667857272836467000,4.824467041015625,-0.1622655987739563,0.08025036752223969,-0.43668437004089355
1667857272846486000,4.834486083984375,-0.14497822523117065,0.058030012995004654,-0.42065000534057617
1667857272856507100,4.844507080078125,-0.12250008434057236,0.03478780761361122,-0.4031514525413513
1667857272866527000,4.85452685546875,-0.10539299994707108,0.018743859604001045,-0.36700624227523804
1667857272876548000,4.864548095703125,-0.10365262627601624,0.018129736185073853,-0.32064512372016907
1667857272886568200,4.874568115234375,-0.11299153417348862,0.00014274542627390474,-0.26191282272338867
1667857272896589000,4.884589111328125,-0.12520985305309296,-0.02423982508480549,-0.21648409962654114
1667857272906609200,4.894609130859375,-0.12991511821746826,-0.037762291729450226,-0.1920405477285385
1667857272916630000,4.904630126953125,-0.13038809597492218,-0.026507508009672165,-0.2011544108390808
1667857272926650000,4.914650146484375,-0.13270825147628784,0.036078374832868576,-0.2394229769706726
1667857272936671000,4.9246708984375,-0.1350073516368866,0.14716868102550507,-0.28695666790008545
1667857272946691000,4.934691162109375,-0.11612660437822342,0.2789626717567444,-0.31189239025115967
1667857272956712000,4.9447119140625,-0.08216224610805511,0.3972994089126587,-0.33026260137557983
1667857272966732000,4.95473193359375,-0.03958149626851082,0.5155192613601685,-0.3395109474658966
1667857272976753000,4.9647529296875,0.01483620423823595,0.6498358249664307,-0.34447428584098816
1667857272986773000,4.97477294921875,0.07704818248748779,0.7628856301307678,-0.348106324672699
1667857272996794000,4.984794189453125,0.15812411904335022,0.7856511473655701,-0.3546749949455261
1667857273006815000,4.99481494140625,0.2478015422821045,0.7130951881408691,-0.389314204454422
1667857273016835000,5.0048349609375,0.3078582286834717,0.5116720795631409,-0.4645644724369049
1667857273026856000,5.01485595703125,0.2891814708709717,0.36773672699928284,-0.5266616940498352
1667857273036876000,5.0248759765625,0.20686636865139008,0.20004227757453918,-0.5532459020614624
1667857273046897000,5.03489697265625,0.07850918918848038,0.1409454047679901,-0.5625070333480835
1667857273056917500,5.04491748046875,-0.08466215431690216,0.18135914206504822,-0.6061304211616516
1667857273066938400,5.0549384765625,-0.22998127341270447,0.15899284183979034,-0.713323712348938
1667857273076958500,5.06495849609375,-0.315531849861145,-0.032391760498285294,-0.8885000348091125
1667857273086979300,5.074979248046875,-0.3592599034309387,-0.40421244502067566,-1.11404287815094
1667857273096999400,5.08499951171875,-0.39886003732681274,-0.7417817115783691,-1.3270055055618286
1667857273107020300,5.095020263671875,-0.45785996317863464,-0.9766064882278442,-1.4968723058700562
1667857273117040400,5.105040283203125,-0.5163049101829529,-1.0748704671859741,-1.659271001815796
1667857273127061200,5.115061279296875,-0.5687310695648193,-0.9661372900009155,-1.8178324699401855
1667857273137081300,5.125081298828125,-0.6731474995613098,-0.8610588312149048,-1.9350054264068604
1667857273147102500,5.1351025390625,-0.7330082058906555,-0.7349328398704529,-1.9655516147613525
1667857273157122300,5.145122314453125,-0.7358276844024658,-0.7662020921707153,-1.9430761337280273
1667857273167143400,5.155143310546875,-0.6486243009567261,-0.7553979158401489,-1.8588027954101562
1667857273177163300,5.165163330078125,-0.4829546809196472,-0.6043967008590698,-1.7065250873565674
1667857273187184400,5.175184326171875,-0.3368496596813202,-0.37457334995269775,-1.514082908630371
1667857273197204200,5.185204345703125,-0.21549953520298004,-0.035954270511865616,-1.3278087377548218
1667857273207225300,5.195225341796875,-0.09782509505748749,0.17849357426166534,-1.109927773475647
1667857273217245400,5.205245361328125,0.02461772784590721,0.3304133415222168,-0.9031612873077393
1667857273227266300,5.215266357421875,0.14842462539672852,0.38073936104774475,-0.7008840441703796
1667857273237286400,5.225286376953125,0.1980619579553604,0.332943856716156,-0.5370794534683228
1667857273247307300,5.235307373046875,0.16404007375240326,0.34531399607658386,-0.43409764766693115
1667857273257327400,5.245327392578125,0.15032052993774414,0.41748058795928955,-0.38695862889289856
1667857273267348200,5.25534814453125,0.19990698993206024,0.5043467879295349,-0.36842596530914307
1667857273277368300,5.265368408203125,0.2637661397457123,0.5108811259269714,-0.3682776391506195
1667857273287391500,5.2753916015625,0.2976764142513275,0.4359509348869324,-0.3945329189300537
1667857273297411300,5.285411376953125,0.3061266243457794,0.37717923521995544,-0.46089544892311096
1667857273307432400,5.295432373046875,0.30592769384384155,0.3756718933582306,-0.528560221195221
1667857273317452500,5.30545263671875,0.31681257486343384,0.29574111104011536,-0.5640625953674316
1667857273327473400,5.315473388671875,0.31807437539100647,0.18716003000736237,-0.594157874584198
1667857273337493500,5.325493408203125,0.28617262840270996,0.05792668089270592,-0.630544126033783
1667857273347514400,5.335514404296875,0.18278898298740387,-0.14194169640541077,-0.7261577248573303
1667857273357534500,5.345534423828125,0.07056152075529099,-0.33013343811035156,-0.9188462495803833
1667857273367555300,5.355555419921875,-0.004777710884809494,-0.42331263422966003,-1.140181541442871
1667857273377575400,5.365575439453125,-0.029323799535632133,-0.42955005168914795,-1.2969173192977905
1667857273387596300,5.37559619140625,-0.02563399076461792,-0.38285335898399353,-1.3149325847625732
1667857273397616400,5.385616455078125,-0.04494323953986168,-0.2193155735731125,-1.1298588514328003
1667857273407637200,5.39563720703125,-0.10876137018203735,0.0384344756603241,-0.7865979075431824
1667857273417657300,5.4056572265625,-0.24579058587551117,0.18114954233169556,-0.40028855204582214
1667857273427678500,5.415678466796875,-0.4117760956287384,0.2608717978000641,-0.030775222927331924
1667857273437698300,5.4256982421875,-0.5583415627479553,0.2994714081287384,0.2681853771209717
1667857273447719400,5.435719482421875,-0.6408974528312683,0.29857337474823,0.4725009799003601
1667857273457739300,5.4457392578125,-0.6355471611022949,0.2786808907985687,0.5787491202354431
1667857273467760400,5.455760498046875,-0.569500207901001,0.2187453955411911,0.605657696723938
1667857273477780200,5.4657802734375,-0.4709451496601105,0.12274349480867386,0.5731269121170044
1667857273487801300,5.47580126953125,-0.3563980758190155,0.0461035780608654,0.5122526288032532
1667857273497821400,5.485821533203125,-0.24881434440612793,-0.05377721041440964,0.4520342946052551
1667857273507842300,5.49584228515625,-0.16587072610855103,-0.17155897617340088,0.4078095853328705
1667857273517862400,5.5058623046875,-0.09331556409597397,-0.2556235194206238,0.37214213609695435
1667857273527883300,5.51588330078125,-0.023742880672216415,-0.3296085298061371,0.35249680280685425
1667857273537903400,5.5259033203125,0.02227254956960678,-0.40996700525283813,0.3772870898246765
1667857273547924500,5.535924560546875,0.03602777421474457,-0.47865286469459534,0.4516896903514862
1667857273557944300,5.5459443359375,0.05205734074115753,-0.5121809840202332,0.5434321165084839
1667857273567965400,5.55596533203125,0.049790993332862854,-0.5329337120056152,0.639427900314331
1667857273577985300,5.5659853515625,0.031682826578617096,-0.5241971611976624,0.7313042879104614
1667857273588006400,5.57600634765625,0.006460828706622124,-0.48768845200538635,0.7824010252952576
1667857273598026500,5.586026611328125,-0.053049370646476746,-0.45525673031806946,0.793422281742096
1667857273608047400,5.59604736328125,-0.1283569037914276,-0.4344009757041931,0.7849310636520386
1667857273618068500,5.606068359375,-0.20861420035362244,-0.40064647793769836,0.7602968215942383
1667857273628088600,5.616088623046875,-0.27630162239074707,-0.33677589893341064,0.7297127842903137
1667857273638109400,5.626109375,-0.31536513566970825,-0.25034886598587036,0.7330076694488525
1667857273648129500,5.636129638671875,-0.3399847447872162,-0.17719368636608124,0.7731465697288513
1667857273658150400,5.646150390625,-0.35081714391708374,-0.10605266690254211,0.858809232711792
1667857273668170500,5.65617041015625,-0.3680776357650757,-0.04536215588450432,0.9764125943183899
1667857273678191400,5.66619140625,-0.3824978470802307,-0.013786918483674526,1.107850193977356
1667857273688211500,5.67621142578125,-0.3855428993701935,-0.01207051146775484,1.2302731275558472
1667857273698232300,5.686232421875,-0.36795830726623535,-0.009248359128832817,1.32554292678833
1667857273708252400,5.69625244140625,-0.32649102807044983,-0.003314303932711482,1.404683232307434
1667857273718273300,5.706273193359375,-0.2681904435157776,0.02166721224784851,1.46916663646698
1667857273728293400,5.71629345703125,-0.20433929562568665,0.028068918734788895,1.513336181640625
1667857273738314500,5.726314453125,-0.14718492329120636,0.023379623889923096,1.544469952583313
1667857273748334300,5.736334228515625,-0.09854281693696976,0.030075078830122948,1.558526873588562
1667857273758355500,5.74635546875,-0.05477456375956535,0.049743056297302246,1.5610432624816895
1667857273768375300,5.756375244140625,-0.020618459209799767,0.043586891144514084,1.5486774444580078
1667857273778396400,5.766396484375,0.007209709845483303,0.03218536823987961,1.5377347469329834
1667857273788416500,5.77641650390625,0.03675215691328049,0.031971514225006104,1.5225118398666382
1667857273798437400,5.786437255859375,0.07166353613138199,0.05447442829608917,1.5185506343841553
1667857273808457500,5.79645751953125,0.11738255620002747,0.06842273473739624,1.5051281452178955
1667857273818478300,5.806478271484375,0.16029566526412964,0.07598584145307541,1.4716113805770874
1667857273828498400,5.81649853515625,0.199305921792984,0.0746966078877449,1.398913025856018
1667857273838519300,5.826519287109375,0.2316340208053589,0.0613163523375988,1.2860513925552368
1667857273848539400,5.836539306640625,0.25572311878204346,0.019820043817162514,1.129047155380249
1667857273858560300,5.846560302734375,0.26956650614738464,-0.023565780371427536,0.9362286925315857
1667857273868580400,5.856580322265625,0.27377188205718994,-0.05506644770503044,0.7258977890014648
1667857273878601200,5.866601318359375,0.2707095146179199,-0.07379672676324844,0.5115442276000977
1667857273888621300,5.876621337890625,0.2584879994392395,-0.08984147012233734,0.3098425567150116
1667857273898642200,5.88664208984375,0.23563222587108612,-0.09444927424192429,0.13174870610237122
1667857273908662300,5.896662353515625,0.21139585971832275,-0.10728783905506134,-0.0298476442694664
1667857273918683400,5.906683349609375,0.20316137373447418,-0.11694925278425217,-0.18834833800792694
1667857273928703200,5.916703125,0.2015184760093689,-0.12183722108602524,-0.3190016746520996
1667857273938724600,5.926724609375,0.19668802618980408,-0.11817217618227005,-0.4215163588523865
1667857273948745500,5.936745361328125,0.18639224767684937,-0.1331668347120285,-0.502244234085083
1667857273958765600,5.946765625,0.16865985095500946,-0.14995966851711273,-0.5571114420890808
1667857273968786400,5.956786376953125,0.1437087059020996,-0.1645154505968094,-0.5946474075317383
1667857273978806500,5.966806640625,0.11773781478404999,-0.1735134720802307,-0.6223346590995789
1667857273988827400,5.976827392578125,0.08814823627471924,-0.15109284222126007,-0.6356033086776733
1667857273998847500,5.986847412109375,0.054559383541345596,-0.1267203986644745,-0.6334949135780334
1667857274008868400,5.996868408203125,0.019957995042204857,-0.10555705428123474,-0.6278226375579834
1667857274018888400,6.006888427734375,-0.013032178394496441,-0.08716925978660583,-0.6238715648651123
1667857274028909600,6.01690966796875,-0.042216960340738297,-0.07152185589075089,-0.614410936832428
1667857274038929400,6.026929443359375,-0.060688115656375885,-0.05455964803695679,-0.5930801033973694
1667857274048950500,6.036950439453125,-0.0705585852265358,-0.04771692305803299,-0.5494160056114197
1667857274058969900,6.046969970703125,-0.0772164911031723,-0.050328683108091354,-0.5027640461921692
1667857274068991000,6.056990966796875,-0.08546856045722961,-0.05498814955353737,-0.46698662638664246
1667857274079011000,6.067010986328125,-0.0944114550948143,-0.05686061829328537,-0.4488065540790558
1667857274089032000,6.077031982421875,-0.1044720783829689,-0.05023307725787163,-0.4578847289085388
1667857274099052000,6.087052001953125,-0.11845260858535767,-0.0407937690615654,-0.49388909339904785
1667857274109073000,6.097072998046875,-0.14183489978313446,-0.029206087812781334,-0.5493922829627991
1667857274119093000,6.107093017578125,-0.16133029758930206,0.009980196133255959,-0.6034786701202393
1667857274129113900,6.11711376953125,-0.1743486374616623,0.04319780319929123,-0.6381980776786804
1667857274139134000,6.127134033203125,-0.18311895430088043,0.05909847468137741,-0.6485276818275452
1667857274149154800,6.13715478515625,-0.1851205825805664,0.0738808810710907,-0.6381708979606628
1667857274159175000,6.1471748046875,-0.1819777935743332,0.08154146373271942,-0.6035056114196777
1667857274169195800,6.15719580078125,-0.17706133425235748,0.07017695903778076,-0.5479219555854797
1667857274179216000,6.1672158203125,-0.17057892680168152,0.050163302570581436,-0.4870285093784332
1667857274189237000,6.177237060546875,-0.16131751239299774,0.02484729327261448,-0.4319109320640564
1667857274199256800,6.1872568359375,-0.15491288900375366,-0.0009925601771101356,-0.3781299889087677
1667857274209278000,6.19727783203125,-0.14840544760227203,-0.015363776125013828,-0.3298253118991852
1667857274219297800,6.2072978515625,-0.1390436440706253,-0.038722362369298935,-0.2902131974697113
1667857274229319000,6.21731884765625,-0.13005946576595306,-0.06711672246456146,-0.264650821685791
1667857274239338800,6.2273388671875,-0.12377840280532837,-0.083730049431324,-0.24236150085926056
1667857274249360000,6.23735986328125,-0.11638546735048294,-0.08560810983181,-0.22325439751148224
1667857274259380000,6.2473798828125,-0.10884978622198105,-0.08106023073196411,-0.19539692997932434
1667857274269400800,6.25740087890625,-0.09692308306694031,-0.06407219171524048,-0.16383260488510132
1667857274279421700,6.267421630859375,-0.09898330271244049,-0.049082059413194656,-0.13679033517837524
1667857274289441800,6.27744189453125,-0.1043999120593071,-0.05771469697356224,-0.11648853123188019
1667857274299463000,6.287462890625,-0.10814857482910156,-0.08978953957557678,-0.10467740893363953
1667857274309482800,6.297482666015625,-0.11108338087797165,-0.10760022699832916,-0.10317964851856232
1667857274319504000,6.30750390625,-0.1122056320309639,-0.12005263566970825,-0.10678637027740479
1667857274329523700,6.317523681640625,-0.10880264639854431,-0.11004500836133957,-0.10811875015497208
1667857274339545000,6.327545166015625,-0.09978970885276794,-0.08697538077831268,-0.10649794340133667
1667857274349564700,6.337564697265625,-0.07316449284553528,-0.06394382566213608,-0.09647540748119354
1667857274359586000,6.3475859375,-0.03698677942156792,-0.04531927779316902,-0.07959362864494324
1667857274369606100,6.357606201171875,-0.0036826191935688257,-0.04219299182295799,-0.054013967514038086
1667857274379627000,6.367626953125,0.014586132951080799,-0.09702242165803909,-0.034573424607515335
1667857274389647000,6.377647216796875,0.0178730059415102,-0.12485484778881073,-0.023009978234767914
1667857274399668000,6.38766796875,0.004481567535549402,-0.14298272132873535,-0.03525172919034958
1667857274409688000,6.39768798828125,-0.03172517195343971,-0.18166513741016388,-0.08905317634344101
1667857274419709000,6.407708984375,-0.08176890015602112,-0.22094543278217316,-0.19502727687358856
1667857274429729000,6.41772900390625,-0.13640578091144562,-0.20283673703670502,-0.3497374951839447
1667857274439750000,6.42775,-0.18922798335552216,-0.15701492130756378,-0.5341227650642395
1667857274449770000,6.43777001953125,-0.2051563411951065,-0.13151967525482178,-0.7185096740722656
1667857274459790800,6.447790771484375,-0.1829756796360016,-0.10683830082416534,-0.8715413212776184
1667857274469811000,6.45781103515625,-0.14625388383865356,-0.09322848170995712,-0.9793004989624023
1667857274479831800,6.467831787109375,-0.10723377764225006,-0.07760824263095856,-1.007273554801941
1667857274489852000,6.477851806640625,-0.06298162788152695,-0.0748947486281395,-0.9690902233123779
1667857274499873000,6.487873046875,-0.006100769154727459,-0.058467037975788116,-0.8999606966972351
1667857274509892900,6.497892822265625,0.05283578485250473,-0.04468677565455437,-0.8199082016944885
1667857274519914000,6.5079140625,0.10943354666233063,-0.04911934211850166,-0.7355166077613831
1667857274529933800,6.517933837890625,0.1544172763824463,-0.08432713150978088,-0.6407086253166199
1667857274539955000,6.527954833984375,0.17804217338562012,-0.10729769617319107,-0.5432281494140625
1667857274549975000,6.53797509765625,0.19214095175266266,-0.12330835312604904,-0.4543142318725586
1667857274559996000,6.547995849609375,0.20820273458957672,-0.22590316832065582,-0.4002688527107239
1667857274570016000,6.55801611328125,0.23739977180957794,-0.3684483468532562,-0.3862382471561432
1667857274580036900,6.568036865234375,0.275033175945282,-0.5021526217460632,-0.42135336995124817
1667857274590057700,6.5780576171875,0.3147672712802887,-0.6009268760681152,-0.5142912864685059
1667857274600077800,6.588077880859375,0.36929094791412354,-0.6586460471153259,-0.6426241993904114
1667857274610099000,6.598098876953125,0.4359551966190338,-0.7085089683532715,-0.7688758969306946
1667857274620118800,6.608118896484375,0.5105814933776855,-0.7269330024719238,-0.8753235340118408
1667857274630140000,6.618139892578125,0.5595074892044067,-0.7042207717895508,-0.9512555599212646
1667857274640159700,6.62815966796875,0.5312700271606445,-0.682837963104248,-0.9808486104011536
1667857274650180900,6.638180908203125,0.4112812876701355,-0.6820842623710632,-0.9707757234573364
1667857274660201000,6.648200927734375,0.23283351957798004,-0.7005738019943237,-0.9255906939506531
1667857274670221800,6.658221923828125,0.08388397842645645,-0.7474105358123779,-0.8577607870101929
1667857274680242000,6.668241943359375,0.00954157393425703,-0.831675112247467,-0.7688359618186951
1667857274690262800,6.6782626953125,0.025663018226623535,-0.9269001483917236,-0.6258735060691833
1667857274700283000,6.688282958984375,0.08079843968153,-0.9974725842475891,-0.47688692808151245
1667857274710304000,6.698303955078125,-0.07703033834695816,-1.0404770374298096,-0.44331538677215576
1667857274720323800,6.70832373046875,-0.8359465599060059,-0.23233044147491455,-0.38867345452308655
1667857274730345000,6.718344970703125,-1.8954881429672241,1.1546409130096436,-0.12764424085617065
1667857274740364800,6.72836474609375,-2.4342730045318604,2.4467175006866455,0.3667111396789551
1667857274750386000,6.738385986328125,-2.1302709579467773,2.976198673248291,0.9915145635604858
1667857274760406000,6.748406005859375,-1.4149588346481323,2.8564906120300293,1.4538201093673706
1667857274770427000,6.758427001953125,-0.692849338054657,2.0378355979919434,1.650359869003296
1667857274780447000,6.768447021484375,-0.06632975488901138,0.6097784042358398,1.5244437456130981
1667857274790468000,6.778468017578125,0.5465501546859741,-0.8753229975700378,1.061963438987732
1667857274800488000,6.788488037109375,1.107915997505188,-1.8109703063964844,0.4326467514038086
1667857274810509000,6.798509033203125,1.43890380859375,-2.131042242050171,-0.20696543157100677
1667857274820529000,6.80852880859375,1.4191570281982422,-2.017253875732422,-0.69524747133255
1667857274830550000,6.818550048828125,1.1676377058029175,-1.4654440879821777,-0.9294008612632751
1667857274840569900,6.82856982421875,0.8231503367424011,-0.5201550126075745,-0.8215545415878296
1667857274850591000,6.838591064453125,0.46248507499694824,0.5396541953086853,-0.4403289258480072
1667857274860611000,6.848611083984375,0.2069513201713562,1.2966140508651733,0.07783514261245728
1667857274870632000,6.8586318359375,0.13170716166496277,1.5945125818252563,0.597598135471344
1667857274880652000,6.868652099609375,0.207454115152359,1.4117624759674072,1.0061334371566772
1667857274890673000,6.8786728515625,0.36878442764282227,0.8914212584495544,1.3059239387512207
1667857274900693000,6.88869287109375,0.5108100175857544,0.2804098129272461,1.5078914165496826
1667857274910713900,6.8987138671875,0.5604934096336365,-0.17942382395267487,1.5945059061050415
1667857274920734000,6.90873388671875,0.48639360070228577,-0.509641170501709,1.5415414571762085
1667857274930754800,6.9187548828125,0.3023446798324585,-0.6560337543487549,1.371498703956604
1667857274940776000,6.92877587890625,0.07833369076251984,-0.58465176820755,1.10268235206604
1667857274950795800,6.938795654296875,-0.14207138121128082,-0.3737610876560211,0.8250134587287903
1667857274960817000,6.94881689453125,-0.33717191219329834,-0.18310989439487457,0.6311886310577393
1667857274970837000,6.9588369140625,-0.4732477068901062,-0.08162855356931686,0.6037124991416931
1667857274980857900,6.96885791015625,-0.5385209918022156,-0.056725066155195236,0.7297444939613342
1667857274990878000,6.9788779296875,-0.5416214466094971,-0.06737051904201508,0.9564295411109924
1667857275000898800,6.98889892578125,-0.509505569934845,-0.055215585976839066,1.2054609060287476
1667857275010919000,6.9989189453125,-0.44274386763572693,-0.08056221902370453,1.4117294549942017
1667857275020939800,7.008939697265625,-0.3051204979419708,-0.08333031088113785,1.5301929712295532
1667857275030959900,7.0189599609375,-0.11209218204021454,-0.026067553088068962,1.5539119243621826
1667857275040980700,7.028980712890625,0.10029730945825577,0.0836634710431099,1.5031567811965942
1667857275051000800,7.039000732421875,0.2908092141151428,0.258333295583725,1.4038126468658447
1667857275061022000,7.04902197265625,0.4498862028121948,0.48103904724121094,1.2807559967041016
1667857275071042000,7.0590419921875,0.5945805311203003,0.7329126000404358,1.1270109415054321
1667857275081063000,7.06906298828125,0.7196947932243347,0.9536657333374023,0.930526852607727
1667857275091083000,7.0790830078125,0.8230968117713928,1.119797945022583,0.7186665534973145
1667857275101104000,7.089104248046875,0.8996229767799377,1.212125301361084,0.5170857310295105
1667857275111124000,7.0991240234375,0.9406772255897522,1.2334816455841064,0.35199931263923645
1667857275121145000,7.10914501953125,0.9256263971328735,1.1422913074493408,0.23247770965099335
1667857275131165000,7.1191650390625,0.8537159562110901,1.0287485122680664,0.14612019062042236
1667857275141186000,7.12918603515625,0.7322366833686829,0.8978623747825623,0.061349645256996155
1667857275151206100,7.1392060546875,0.6081685423851013,0.7413910031318665,0.03758838772773743
1667857275161227300,7.149227294921875,0.4851195514202118,0.596992015838623,0.06169798597693443
1667857275171247000,7.1592470703125,0.35619300603866577,0.4833586812019348,0.12521517276763916
1667857275181268200,7.169268310546875,0.21830837428569794,0.4096341133117676,0.21247923374176025
1667857275191288000,7.1792880859375,0.08444856852293015,0.3242265582084656,0.32531070709228516
1667857275201309200,7.18930908203125,-0.050268497318029404,0.18819308280944824,0.4443018138408661
1667857275211330000,7.199330078125,-0.17586183547973633,0.052808087319135666,0.5687223076820374
1667857275221350100,7.20935009765625,-0.27973416447639465,-0.07393627613782883,0.6833269000053406
1667857275231370200,7.219370361328125,-0.3434212803840637,-0.18616162240505219,0.7765908241271973
1667857275241391000,7.22939111328125,-0.3611060082912445,-0.26852652430534363,0.8338562250137329
1667857275251412200,7.239412109375,-0.34632784128189087,-0.3358496427536011,0.8458372950553894
1667857275261432000,7.24943212890625,-0.2964191436767578,-0.42253580689430237,0.8099207878112793
1667857275271453200,7.259453125,-0.20654384791851044,-0.5097519159317017,0.7346771955490112
1667857275281473300,7.269473388671875,-0.10538315027952194,-0.4971511960029602,0.6385999321937561
1667857275291494100,7.279494140625,-0.031627435237169266,-0.43070611357688904,0.5459980964660645
1667857275301514200,7.28951416015625,0.02046319656074047,-0.33771252632141113,0.4564357101917267
1667857275311535000,7.29953515625,0.05823241546750069,-0.212849423289299,0.3871104419231415
1667857275321555200,7.30955517578125,0.0730811357498169,-0.06055522337555885,0.323119193315506
1667857275331576000,7.319576171875,0.07060332596302032,0.07861172407865524,0.26230353116989136
1667857275341596200,7.32959619140625,0.04915822669863701,0.17015814781188965,0.1893925666809082
1667857275351617000,7.339616943359375,0.02281397022306919,0.2808990478515625,0.09876865148544312
1667857275361637000,7.34963720703125,-0.009722402319312096,0.4289758503437042,-0.0006601976347155869
1667857275371658000,7.359657958984375,-0.04930390045046806,0.558735191822052,-0.09919742494821548
1667857275381678000,7.369677978515625,-0.07705163955688477,0.6173409819602966,-0.16489706933498383
1667857275391699200,7.37969921875,-0.09494994580745697,0.6142735481262207,-0.20083403587341309
1667857275401719000,7.389718994140625,-0.09814414381980896,0.5543148517608643,-0.19011402130126953
1667857275411740200,7.399740234375,-0.08824730664491653,0.4791197180747986,-0.1303047388792038
1667857275421760000,7.409760009765625,-0.07884581387042999,0.4133566915988922,-0.043481163680553436
1667857275431781000,7.419781005859375,-0.08635539561510086,0.34893882274627686,0.05510692670941353
1667857275441801000,7.429801025390625,-0.08382778614759445,0.27441078424453735,0.1471974402666092
1667857275451822000,7.439822021484375,-0.06764961779117584,0.1945095658302307,0.22675883769989014
1667857275461842200,7.44984228515625,-0.03981399163603783,0.12492355704307556,0.30358412861824036
1667857275471863000,7.459863037109375,-0.0204597357660532,0.0919504314661026,0.35233569145202637
1667857275481883100,7.469883056640625,-0.013231117278337479,0.08242616802453995,0.389385849237442
1667857275491904000,7.479904052734375,-0.017942247912287712,0.0866110548377037,0.4017205238342285
1667857275501924000,7.489924072265625,-0.02532746084034443,0.08287544548511505,0.3862560987472534
1667857275511945000,7.499945068359375,-0.032158736139535904,0.09576141089200974,0.34663623571395874
1667857275521966300,7.50996630859375,-0.038423288613557816,0.10713950544595718,0.30068179965019226
1667857275531986000,7.51998583984375,-0.04484869912266731,0.09462504088878632,0.2561790645122528
1667857275542007300,7.53000732421875,-0.044024717062711716,0.07379965484142303,0.21616452932357788
1667857275552027100,7.540027099609375,-0.038663506507873535,0.05789365991950035,0.19181257486343384
1667857275562048300,7.55004833984375,-0.02792430855333805,0.03298617899417877,0.1873704195022583
1667857275572068000,7.560068115234375,-0.020070914179086685,-0.015077486634254456,0.18797442317008972
1667857275582089200,7.570089111328125,-0.004216849338263273,-0.05168583244085312,0.1959386169910431
1667857275592109300,7.580109375,0.0002079928817693144,-0.060573332011699677,0.20506420731544495
1667857275602130200,7.590130126953125,0.0006966829532757401,-0.04262469336390495,0.20308813452720642
1667857275612150300,7.600150390625,-0.00765925133600831,-0.014133661985397339,0.19492128491401672
1667857275622171100,7.610171142578125,-0.017711352556943893,-0.004806739278137684,0.17031528055667877
1667857275632191200,7.620191162109375,-0.01631026342511177,0.01890125311911106,0.13246110081672668
1667857275642212000,7.630212158203125,-0.005251753609627485,0.05048288032412529,0.09820965677499771
1667857275652232200,7.640232177734375,0.003953196108341217,0.0951632708311081,0.07193464040756226
1667857275662253000,7.650253173828125,0.0013843111228197813,0.13063417375087738,0.056772202253341675
1667857275672273200,7.660273193359375,-0.0054328483529388905,0.12694835662841797,0.04536854848265648
1667857275682294000,7.6702939453125,-0.005428853910416365,0.12270621210336685,0.03887416049838066
1667857275692314000,7.680314208984375,0.00152359448838979,0.09357628971338272,0.03477449342608452
1667857275702335200,7.690335205078125,0.0030983216129243374,0.04634140059351921,0.02666543237864971
1667857275712355000,7.70035498046875,0.007534615229815245,0.04331951215863228,0.021399032324552536
1667857275722376200,7.710376220703125,-0.004198739770799875,0.059429239481687546,0.024400148540735245
1667857275732396000,7.72039599609375,-0.022477079182863235,0.037466682493686676,0.012489426881074905
1667857275742417200,7.730417236328125,-0.0373511016368866,-0.002814428647980094,-0.010435330681502819
1667857275752437000,7.74043701171875,-0.04463990405201912,-0.03923981264233589,-0.043840423226356506
1667857275762458000,7.7504580078125,-0.05411809682846069,-0.07009759545326233,-0.09004493802785873
1667857275772478200,7.760478271484375,-0.07283346354961395,-0.0767565667629242,-0.14342373609542847
1667857275782499000,7.7704990234375,-0.09562772512435913,-0.07091491669416428,-0.1923750340938568
1667857275792520000,7.78052001953125,-0.11471566557884216,-0.047794684767723083,-0.23390942811965942
1667857275802540000,7.7905400390625,-0.11962360143661499,-0.02689286693930626,-0.2561766505241394
1667857275812561200,7.80056103515625,-0.11833436787128448,0.001588841900229454,-0.25939056277275085
1667857275822581000,7.8105810546875,-0.10968122631311417,0.014308098703622818,-0.24521028995513916
1667857275832602000,7.82060205078125,-0.10164833068847656,0.010810303501784801,-0.2214871197938919
1667857275842622000,7.8306220703125,-0.09420479834079742,-0.016645556315779686,-0.19717459380626678
1667857275852643000,7.84064306640625,-0.09283886104822159,-0.04229233041405678,-0.17998415231704712
1667857275862663000,7.850662841796875,-0.09613531827926636,-0.06713029742240906,-0.1737438291311264
1667857275872684000,7.86068408203125,-0.09406684339046478,-0.08049643784761429,-0.17162342369556427
1667857275882704100,7.8707041015625,-0.09268306195735931,-0.08652583509683609,-0.16889314353466034
1667857275892725200,7.880725341796875,-0.08736473321914673,-0.08468559384346008,-0.16244882345199585
1667857275902745000,7.8907451171875,-0.07516079396009445,-0.09011657536029816,-0.15651610493659973
1667857275912766200,7.90076611328125,-0.06479417532682419,-0.10447873920202255,-0.15053145587444305
1667857275922786000,7.9107861328125,-0.06480962038040161,-0.13063444197177887,-0.16828328371047974
1667857275932807200,7.92080712890625,-0.07075832784175873,-0.12835557758808136,-0.19149166345596313
1667857275942827300,7.9308271484375,-0.08424323797225952,-0.09637527167797089,-0.23008327186107635
1667857275952848100,7.94084814453125,-0.09309745579957962,-0.06339841336011887,-0.2816500663757324
1667857275962868200,7.9508681640625,-0.09069741517305374,-0.02696530520915985,-0.34470677375793457
1667857275972889000,7.96088916015625,-0.08811574429273605,0.0033987262286245823,-0.41333457827568054
1667857275982909200,7.9709091796875,-0.08701931685209274,0.03461230546236038,-0.4648433029651642
1667857275992930000,7.980929931640625,-0.08486482501029968,0.046131543815135956,-0.4853571057319641
1667857276002950100,7.9909501953125,-0.07525666803121567,0.031214645132422447,-0.49777063727378845
1667857276012971300,8.00097119140625,-0.056055281311273575,0.023967118933796883,-0.5123969912528992
1667857276022991000,8.0109912109375,-0.033311884850263596,0.02689286693930626,-0.529890775680542
1667857276033012200,8.02101220703125,-0.015452459454536438,0.013568805530667305,-0.5404914617538452
1667857276043032000,8.031031982421876,0.016521984711289406,-0.019409917294979095,-0.5471957325935364
1667857276053053200,8.04105322265625,0.054661381989717484,-0.05802175775170326,-0.5451530814170837
1667857276063073300,8.0510732421875,0.08972429484128952,-0.09392756223678589,-0.5353867411613464
1667857276073094400,8.061094482421876,0.11632847040891647,-0.11769387871026993,-0.533183217048645
1667857276083115300,8.071115234375,0.12516270577907562,-0.14956845343112946,-0.5409154295921326
1667857276093135400,8.08113525390625,0.13718821108341217,-0.1526089757680893,-0.560604453086853
1667857276103156200,8.09115625,0.15262362360954285,-0.13261716067790985,-0.5887146592140198
1667857276113176300,8.10117626953125,0.16724997758865356,-0.14347992837429047,-0.6376132369041443
1667857276123197400,8.111197509765624,0.17406980693340302,-0.19458971917629242,-0.661408007144928
1667857276133217300,8.12121728515625,0.1572716385126114,-0.23386362195014954,-0.6707088351249695
1667857276143238400,8.13123828125,0.11594684422016144,-0.23257651925086975,-0.677009105682373
1667857276153258200,8.14125830078125,0.043948281556367874,-0.18731556832790375,-0.6762655377388
1667857276163279400,8.151279296875,-0.017845310270786285,-0.20114882290363312,-0.6671708226203918
1667857276173299200,8.16129931640625,-0.06747624278068542,-0.2723524272441864,-0.6641359329223633
1667857276183320600,8.171320556640625,-0.11626695096492767,-0.37466415762901306,-0.686866283416748
1667857276193340400,8.18134033203125,-0.14047323167324066,-0.3891035318374634,-0.7333722114562988
1667857276203361500,8.191361572265626,-0.11925075948238373,-0.3203452527523041,-0.7905537486076355
1667857276213381400,8.20138134765625,-0.1359594315290451,-0.21903833746910095,-0.8977433443069458
1667857276223402500,8.211402587890625,-0.31034108996391296,-0.11103837192058563,-1.048221230506897
1667857276233422600,8.221422607421875,-0.6257685422897339,0.024163926020264626,-1.2140384912490845
1667857276243443500,8.231443359375,-0.9544702768325806,0.18320071697235107,-1.3515784740447998
1667857276253463600,8.241463623046876,-1.1661052703857422,0.10306459665298462,-1.420833945274353
1667857276263484400,8.251484375,-1.1867876052856445,-0.21781115233898163,-1.3335137367248535
1667857276273504500,8.26150439453125,-1.1169757843017578,-0.45277947187423706,-1.1815129518508911
1667857276283525400,8.271525390625,-1.1868507862091064,-0.506435751914978,-1.0696085691452026
1667857276293545500,8.28154541015625,-1.0959528684616089,-0.4320624768733978,-0.7122376561164856
1667857276303566300,8.29156640625,-0.6848171949386597,-0.32941916584968567,-0.32042089104652405
1667857276313586400,8.30158642578125,-0.37426334619522095,-0.1320302039384842,-0.13891661167144775
1667857276323607600,8.311607666015625,-0.2145591676235199,-0.13187946379184723,-0.5888973474502563
1667857276333627400,8.32162744140625,-0.014058294706046581,-0.0014168017078191042,-1.3655449151992798
1667857276343648500,8.3316484375,0.1726607233285904,0.1470128893852234,-1.9623931646347046
1667857276353669400,8.34166943359375,0.27696022391319275,0.25419631600379944,-2.1375608444213867
1667857276363689500,8.351689453125,0.30455857515335083,0.43399593234062195,-1.8781871795654297
1667857276373710300,8.36171044921875,0.22996795177459717,0.6031007766723633,-1.4661489725112915
1667857276383730400,8.37173046875,0.199627086520195,0.696065366268158,-1.0657938718795776
1667857276393751300,8.381751220703125,0.22237475216388702,0.6973106265068054,-0.7706660628318787
1667857276403771400,8.391771484375,0.26278263330459595,0.5914718508720398,-0.6647723913192749
1667857276413792300,8.401792236328125,0.310153067111969,0.4866766929626465,-0.7038590908050537
1667857276423812400,8.411812255859376,0.3451384902000427,0.4716024100780487,-0.8436087369918823
1667857276433833500,8.42183349609375,0.38776159286499023,0.492614209651947,-1.0203118324279785
1667857276443853300,8.431853271484375,0.44916555285453796,0.6011170148849487,-1.1737298965454102
1667857276453874400,8.44187451171875,0.49961328506469727,0.6904096007347107,-1.2771899700164795
1667857276463894300,8.451894287109376,0.5309536457061768,0.7755972146987915,-1.3477187156677246
1667857276473915400,8.461915283203124,0.5904803276062012,0.8895261287689209,-1.3480585813522339
1667857276483935200,8.471935302734375,0.7070513963699341,0.9518933892250061,-1.2541805505752563
1667857276493956400,8.481956298828125,0.8285397887229919,0.8733959197998047,-1.0930784940719604
1667857276503976400,8.4919765625,0.9116527438163757,0.7406812906265259,-0.8513507843017578
1667857276513997300,8.501997314453124,0.9345386624336243,0.6737281084060669,-0.4710213243961334
1667857276524017400,8.512017333984375,0.9703887701034546,0.5745308995246887,0.01299489475786686
1667857276534038300,8.522038330078125,1.004368543624878,0.268950492143631,0.5054333209991455
1667857276544058400,8.532058349609375,1.00436270236969,-0.1989586353302002,0.9527903199195862
1667857276554079200,8.542079345703126,0.9589904546737671,-0.6670552492141724,1.3397250175476074
1667857276564099300,8.552099365234374,0.9138501286506653,-1.1080877780914307,1.6394059658050537
1667857276574120400,8.562120361328125,0.8712901473045349,-1.5540485382080078,1.8507983684539795
1667857276584140300,8.572140380859375,0.8452713489532471,-1.9123682975769043,2.0041027069091797
1667857276594161400,8.582161376953126,0.8413496017456055,-2.190458059310913,2.078279733657837
1667857276604181200,8.59218115234375,0.824054479598999,-2.057227373123169,1.787092924118042
1667857276614202600,8.60220263671875,0.7943440079689026,-1.4964038133621216,1.3455981016159058
1667857276624223500,8.612223388671875,0.8304151892662048,-1.2292506694793701,0.9374862313270569
1667857276634243600,8.62224365234375,0.9086953401565552,-1.1245954036712646,0.5456910133361816
1667857276644264400,8.632264404296874,0.9580056071281433,-0.9783346056938171,0.18358874320983887
1667857276654284500,8.642284423828125,0.9447206854820251,-0.8533665537834167,-0.11837191879749298
1667857276664305400,8.652305419921875,0.8464476466178894,-0.7190532088279724,-0.36336755752563477
1667857276674325500,8.662325439453125,0.6790328621864319,-0.5852333903312683,-0.5655872225761414
1667857276684346400,8.672346435546874,0.49043869972229004,-0.4845198094844818,-0.7190609574317932
1667857276694366500,8.682366455078125,0.32618051767349243,-0.36527571082115173,-0.8000511527061462
1667857276704387300,8.69238720703125,0.20138238370418549,-0.2303975224494934,-0.7877126932144165
1667857276714407400,8.702407470703125,0.09850819408893585,-0.1093459278345108,-0.6922066807746887
1667857276724428300,8.71242822265625,-0.006147108506411314,-0.025799905881285667,-0.5342079997062683
1667857276734448400,8.722448486328124,-0.11252068728208542,-0.0073111760430037975,-0.34270623326301575
1667857276744469500,8.732469482421875,-0.2178202122449875,-0.039630498737096786,-0.12989568710327148
1667857276754489300,8.7424892578125,-0.3010874092578888,-0.06937534362077713,0.09446551650762558
1667857276764510500,8.752510498046876,-0.3613555431365967,-0.10427048057317734,0.31401678919792175
1667857276774530300,8.7625302734375,-0.3833564519882202,-0.178706094622612,0.5202429294586182
1667857276784551400,8.772551513671875,-0.3777584731578827,-0.27163124084472656,0.701587975025177
1667857276794571500,8.782571533203125,-0.3554561138153076,-0.3314051032066345,0.8554837703704834
1667857276804592400,8.79259228515625,-0.3382749855518341,-0.3076033592224121,0.999267041683197
1667857276814612500,8.802612548828124,-0.32681646943092346,-0.2573567032814026,1.1344307661056519
1667857276824633300,8.81263330078125,-0.3025588095188141,-0.24248933792114258,1.2530848979949951
1667857276834653400,8.8226533203125,-0.2724006175994873,-0.21761088073253632,1.3351577520370483
1667857276844674300,8.83267431640625,-0.2324683964252472,-0.1529485434293747,1.3900725841522217
1667857276854693400,8.842693359375,-0.18465720117092133,-0.05203603580594063,1.414989948272705
1667857276864713500,8.85271337890625,-0.11827205121517181,0.07193730771541595,1.4323118925094604
1667857276874734300,8.862734375,-0.03754790872335434,0.22006472945213318,1.4388386011123657
1667857276884754400,8.87275439453125,0.04749641194939613,0.38846278190612793,1.4517625570297241
1667857276894775300,8.882775390625,0.13601243495941162,0.5959835052490234,1.4715021848678589
1667857276904795400,8.89279541015625,0.21326035261154175,0.768987238407135,1.4978973865509033
1667857276914816300,8.902816162109374,0.27100247144699097,0.856778621673584,1.5145610570907593
1667857276924836400,8.91283642578125,0.3129275441169739,0.9098806977272034,1.5198042392730713
1667857276934857500,8.922857421875,0.3226611316204071,0.9192667603492737,1.4866046905517578
1667857276944877300,8.932877197265626,0.30487576127052307,0.8549506068229675,1.3998823165893555
1667857276954898400,8.9428984375,0.29675763845443726,0.7809533476829529,1.2694098949432373
1667857276964918300,8.952918212890625,0.2863396108150482,0.6131771206855774,1.098946213722229
1667857276974939400,8.962939453125,0.2620505094528198,0.3433783948421478,0.9166914820671082
1667857276984959500,8.97295947265625,0.23567111790180206,0.14196699857711792,0.7411627769470215
1667857276994980400,8.98298046875,0.2252752035856247,0.03254835680127144,0.5942239165306091
1667857277005001200,8.993001220703125,0.2154121845960617,-0.04472645744681358,0.46290454268455505
1667857277015021300,9.003021240234375,0.19466082751750946,-0.11116193979978561,0.34469667077064514
1667857277025042200,9.013042236328126,0.1511586308479309,-0.14945286512374878,0.22542619705200195
1667857277035062300,9.023062255859376,0.09834015369415283,-0.12555871903896332,0.11692448705434799
1667857277045083400,9.03308349609375,0.053708769381046295,-0.0923784002661705,0.016759006306529045
1667857277055103200,9.043103271484375,0.025075258687138557,-0.06693562120199203,-0.08709335327148438
1667857277065123600,9.05312353515625,0.01401728205382824,-0.04681118205189705,-0.18597865104675293
1667857277075143700,9.063143798828126,0.025551965460181236,-0.017732657492160797,-0.26547160744667053
1667857277085164500,9.07316455078125,0.048950497061014175,0.003573962254449725,-0.3209055960178375
1667857277095184600,9.0831845703125,0.07492430508136749,-0.023083481937646866,-0.3545423746109009
1667857277105205500,9.09320556640625,0.09706156700849533,-0.0764247328042984,-0.37151122093200684
1667857277115225600,9.1032255859375,0.0972495898604393,-0.16536764800548553,-0.3760031759738922
1667857277125246500,9.11324658203125,0.07021184265613556,-0.22077099978923798,-0.3838038444519043
1667857277135266600,9.1232666015625,0.03182956948876381,-0.22541874647140503,-0.40054795145988464
1667857277145287400,9.133287353515625,-0.01606099121272564,-0.22095848619937897,-0.4292277991771698
1667857277155307500,9.1433076171875,-0.07519781589508057,-0.19156064093112946,-0.47074487805366516
1667857277165328400,9.153328369140626,-0.13781298696994781,-0.1326720267534256,-0.5214823484420776
1667857277175348500,9.163348388671874,-0.21321986615657806,-0.07056045532226562,-0.584969162940979
1667857277185369900,9.173369873046875,-0.2914392948150635,-0.0016042882343754172,-0.6579390168190002
1667857277195389400,9.183389404296875,-0.3720787465572357,0.08438066393136978,-0.726996898651123
1667857277205410800,9.193410888671876,-0.4451180696487427,0.17455929517745972,-0.7794204354286194
1667857277215430400,9.203430419921874,-0.49419134855270386,0.24596795439720154,-0.8201897144317627
1667857277225451800,9.21345166015625,-0.5218490958213806,0.29402682185173035,-0.834071934223175
1667857277235471600,9.2234716796875,-0.5293431878089905,0.3217143714427948,-0.8263895511627197
1667857277245492700,9.23349267578125,-0.5207046866416931,0.338689386844635,-0.8002748489379883
1667857277255512800,9.243512939453124,-0.4985203146934509,0.33612847328186035,-0.763084888458252
1667857277265534700,9.25353466796875,-0.4586344063282013,0.29672273993492126,-0.7136011719703674
1667857277275554600,9.263554443359375,-0.4052462875843048,0.23701095581054688,-0.6534097790718079
1667857277285575700,9.27357568359375,-0.34348946809768677,0.1701568216085434,-0.5853540301322937
1667857277295595500,9.283595458984376,-0.2722104787826538,0.11101147532463074,-0.5172918438911438
1667857277305616600,9.29361669921875,-0.20925122499465942,0.0637480840086937,-0.447481632232666
1667857277315636700,9.30363671875,-0.15945303440093994,0.010664096102118492,-0.3774660527706146
1667857277325657600,9.31365771484375,-0.13048423826694489,-0.05510959029197693,-0.31349027156829834
1667857277335677700,9.323677734375,-0.12200073897838593,-0.10266406089067459,-0.26157328486442566
1667857277345698600,9.333698486328124,-0.11407729983329773,-0.12068300694227219,-0.22620889544487
1667857277355718700,9.34371875,-0.10643802583217621,-0.13424941897392273,-0.2096797227859497
1667857277365739500,9.353739501953125,-0.09018661826848984,-0.14114594459533691,-0.20540454983711243
1667857277375759600,9.363759521484376,-0.0598076730966568,-0.14020584523677826,-0.22403869032859802
1667857277385780500,9.373780517578124,-0.023440344259142876,-0.13021819293498993,-0.25138723850250244
1667857277395800600,9.383800537109375,0.014178137294948101,-0.12703438103199005,-0.2957131564617157
1667857277405821400,9.393821533203125,0.052500493824481964,-0.1291087120771408,-0.3531862795352936
1667857277415841500,9.403841552734375,0.08543606847524643,-0.11281763017177582,-0.4193570613861084
1667857277425862700,9.413862548828124,0.11559956520795822,-0.10340548306703568,-0.4820007383823395
1667857277435882500,9.423882568359375,0.13820821046829224,-0.10635040700435638,-0.5376666784286499
1667857277445903600,9.433903564453125,0.15365400910377502,-0.10572536289691925,-0.5799893140792847
1667857277455923500,9.44392333984375,0.1627553552389145,-0.10391973704099655,-0.6035346388816833
1667857277465944600,9.453944580078126,0.15205851197242737,-0.09452996402978897,-0.6192722916603088
1667857277475965400,9.46396533203125,0.12955400347709656,-0.06036347523331642,-0.6259616017341614
1667857277485985500,9.473985595703125,0.09683866053819656,-0.011782357469201088,-0.632332980632782
1667857277496006700,9.484006591796875,0.06222342699766159,0.037701040506362915,-0.6360872387886047
1667857277506026500,9.494026611328126,0.03471696749329567,0.0656149610877037,-0.6370521187782288
1667857277516047600,9.504047607421874,0.020324446260929108,0.07634323835372925,-0.6335076689720154
1667857277526067500,9.5140673828125,0.009383914060890675,0.04188460111618042,-0.6248742341995239
1667857277536088800,9.5240888671875,0.0028474517166614532,-0.027570107951760292,-0.6069985628128052
1667857277546108700,9.534108642578126,0.001047421246767044,-0.13568006455898285,-0.5743647217750549
1667857277556129800,9.5441298828125,-0.01697046123445034,-0.2393079251050949,-0.5738105177879333
1667857277566149600,9.554149658203125,-0.0389828197658062,-0.303387314081192,-0.5364551544189453
1667857277576170800,9.564170654296875,-0.013255883939564228,-0.31501227617263794,-0.4410429000854492
1667857277586190600,9.574190673828125,0.06778783351182938,-0.3174338936805725,-0.35189518332481384
1667857277596211700,9.584211669921874,0.19827766716480255,-0.4153279662132263,-0.3500155210494995
1667857277606231800,9.594231689453125,0.3406052589416504,-0.4489727318286896,-0.411433607339859
1667857277616252700,9.604252685546875,0.47808587551116943,-0.25579023361206055,-0.5265668630599976
1667857277626272800,9.614272705078125,0.5813664793968201,-0.23201699554920197,-0.6875304579734802
1667857277636293600,9.624293701171876,0.6091848015785217,-0.2851467728614807,-0.8671891689300537
1667857277646313700,9.634313720703124,0.5474146008491516,-0.2575013041496277,-1.039703369140625
1667857277656334600,9.64433447265625,0.3854249119758606,-0.098159059882164,-1.1971603631973267
1667857277666354700,9.654354736328125,0.12794359028339386,0.017484983429312706,-1.3538548946380615
1667857277676375600,9.66437548828125,-0.08705820143222809,-0.03676680102944374,-1.5026936531066895
1667857277686395600,9.674395751953124,-0.17620672285556793,-0.11100374907255173,-1.6033556461334229
1667857277696416500,9.68441650390625,-0.14438167214393616,-0.051293812692165375,-1.6382358074188232
1667857277706436600,9.6944365234375,-0.08732185512781143,0.017673268914222717,-1.6287051439285278
1667857277716457700,9.704457763671876,-0.08328796923160553,0.060929927974939346,-1.576257348060608
1667857277726478600,9.714478515625,-0.159764364361763,0.111582450568676,-1.458923101425171
1667857277736498700,9.724498779296875,-0.2812926471233368,0.004020308144390583,-1.2530367374420166
1667857277746519600,9.73451953125,-0.421515554189682,-0.2708197832107544,-0.9645359516143799
1667857277756539600,9.74453955078125,-0.5386728048324585,-0.49983513355255127,-0.6377080082893372
1667857277766560500,9.754560546875,-0.7232269048690796,-0.5778276324272156,-0.4373994469642639
1667857277776580600,9.76458056640625,-1.1836390495300293,-0.43923434615135193,-0.2647022306919098
1667857277786601500,9.7746015625,-1.958495855331421,0.650040328502655,0.12013812363147736
1667857277796621600,9.78462158203125,-2.622321605682373,2.5458693504333496,0.6708515882492065
1667857277806642400,9.794642333984376,-2.736727714538574,3.3315765857696533,1.411872386932373
1667857277816662500,9.80466259765625,-2.1329143047332764,3.2195868492126465,1.8845316171646118
1667857277826683600,9.81468359375,-1.276914358139038,1.3050780296325684,1.72987699508667
1667857277836703500,9.824703369140625,-0.4582171142101288,-0.9578649997711182,1.1312782764434814
1667857277846724600,9.834724609375,0.2729630768299103,-1.9889848232269287,0.5687150955200195
1667857277856744400,9.844744384765624,0.7162837982177734,-2.458740472793579,0.1963396817445755
1667857277866765600,9.854765625,0.9802232980728149,-2.983164072036743,0.07830013334751129
1667857277876785400,9.864785400390625,1.006750464439392,-3.040409564971924,0.040523722767829895
1667857277886806800,9.874806884765626,0.7957461476325989,-2.6743335723876953,0.01792813464999199
1667857277896826600,9.88482666015625,0.49651122093200684,-1.94107985496521,-0.03611193224787712
1667857277906847700,9.89484765625,0.2060013711452484,-0.8578430414199829,-0.11166554689407349
1667857277916867600,9.90486767578125,-0.06606796383857727,0.4450794756412506,-0.11750426143407822
1667857277926888700,9.914888671875,-0.300214946269989,1.405868649482727,0.03437262028455734
1667857277936908800,9.92490869140625,-0.41759777069091797,1.6931339502334595,0.26920562982559204
1667857277946929700,9.9349296875,-0.38635703921318054,1.4442203044891357,0.4512196481227875
1667857277956949800,9.94494970703125,-0.23440611362457275,0.782360851764679,0.5615807771682739
1667857277966970600,9.954970703125,-0.09821498394012451,0.07638531923294067,0.6811782717704773
1667857277976991700,9.96499169921875,-0.10688117891550064,-0.5162343382835388,0.8721873760223389
1667857277987011600,9.975011474609374,-0.18336956202983856,-1.0083271265029907,1.1214689016342163
1667857277997032700,9.98503271484375,-0.20294485986232758,-1.2996045351028442,1.4446266889572144
1667857278007052500,9.995052490234375,-0.19155345857143402,-1.290968656539917,1.7948027849197388
1667857278017073700,10.00507373046875,-0.22268366813659668,-0.9826670289039612,2.0820682048797607
1667857278027093800,10.01509375,-0.3194946348667145,-0.6051183938980103,2.153646945953369
1667857278037114600,10.025114501953125,-0.4274091124534607,-0.18375784158706665,1.9612008333206177
1667857278047134700,10.035134765625,-0.46808838844299316,0.1724599152803421,1.6379140615463257
1667857278057155600,10.045155517578126,-0.45131659507751465,0.27506858110427856,1.2154688835144043
1667857278067176200,10.05517626953125,-0.39600592851638794,0.2609359920024872,0.7914222478866577
1667857278077197000,10.065197021484375,-0.32863089442253113,0.22336570918560028,0.48665618896484375
1667857278087217200,10.075217041015625,-0.26011279225349426,0.2484564185142517,0.37929806113243103
1667857278097238000,10.085238037109375,-0.24665452539920807,0.3004077672958374,0.47038376331329346
1667857278107258000,10.095258056640626,-0.2282526046037674,0.22344587743282318,0.6476200222969055
1667857278117279000,10.105279052734375,-0.17393264174461365,0.24128931760787964,0.8802985548973083
1667857278127299000,10.115299072265625,-0.12020603567361832,0.32818639278411865,1.1216336488723755
1667857278137320000,10.12531982421875,-0.07189789414405823,0.407772034406662,1.2966054677963257
1667857278147340000,10.135340087890626,0.004144677426666021,0.42792096734046936,1.4020541906356812
1667857278157361200,10.145361083984374,0.11056512594223022,0.40009841322898865,1.4517985582351685
1667857278167381000,10.155381103515625,0.22582700848579407,0.37575364112854004,1.456239104270935
1667857278177402000,10.165402099609375,0.3208696246147156,0.39092302322387695,1.4252955913543701
1667857278187422000,10.175421875,0.4117095172405243,0.4579702317714691,1.3656353950500488
1667857278197443000,10.185443115234374,0.48431554436683655,0.5807134509086609,1.2577617168426514
1667857278207463000,10.195462890625,0.5167768001556396,0.7677493691444397,1.0822316408157349
1667857278217484000,10.205484130859375,0.5080118179321289,0.9670954942703247,0.834824800491333
1667857278227505000,10.2155048828125,0.46550431847572327,1.102686882019043,0.5209054946899414
1667857278237525000,10.22552490234375,0.3980610966682434,1.1472806930541992,0.17605705559253693
1667857278247545900,10.2355458984375,0.30632635951042175,1.1095988750457764,-0.15247929096221924
1667857278257566000,10.24556591796875,0.19288156926631927,0.9635109305381775,-0.4463873505592346
1667857278267587000,10.255587158203125,0.0648500993847847,0.7327618598937988,-0.6851040720939636
1667857278277607000,10.26560693359375,-0.04469183832406998,0.4887070953845978,-0.8427157998085022
1667857278287628000,10.2756279296875,-0.13696637749671936,0.2975161075592041,-0.9109060168266296
1667857278297647900,10.28564794921875,-0.21158228814601898,0.2217731475830078,-0.883754551410675
1667857278307669000,10.2956689453125,-0.2778635621070862,0.2248714566230774,-0.7963799834251404
1667857278317688800,10.305688720703126,-0.34627512097358704,0.2553500235080719,-0.6649236679077148
1667857278327710000,10.3157099609375,-0.4158901572227478,0.3153662085533142,-0.5203995108604431
1667857278337730000,10.32572998046875,-0.4851078391075134,0.34689751267433167,-0.3917531371116638
1667857278347751200,10.335751220703125,-0.5257639288902283,0.33151108026504517,-0.2987446188926697
1667857278357771000,10.34577099609375,-0.5153064727783203,0.3149124085903168,-0.24966469407081604
1667857278367792000,10.355792236328124,-0.4491647481918335,0.2858714461326599,-0.24130450189113617
1667857278377812200,10.365812255859375,-0.36000770330429077,0.216212198138237,-0.2887548506259918
1667857278387833000,10.3758330078125,-0.27661746740341187,0.11089855432510376,-0.37576961517333984
1667857278397853200,10.385853271484375,-0.19228288531303406,0.01956438086926937,-0.4665525257587433
1667857278407874000,10.3958740234375,-0.10535065829753876,-0.054424092173576355,-0.5296832919120789
1667857278417894100,10.40589404296875,-0.024695759639143944,-0.12033440172672272,-0.5425170660018921
1667857278427915000,10.4159150390625,0.03365010395646095,-0.1857040822505951,-0.47621262073516846
1667857278437935000,10.42593505859375,0.055751413106918335,-0.2255905121564865,-0.3328746259212494
1667857278447956000,10.4359560546875,0.05441344156861305,-0.2396879643201828,-0.11506293714046478
1667857278457977000,10.44597705078125,0.044437773525714874,-0.2196737676858902,0.1538500189781189
1667857278467997200,10.4559970703125,0.055326372385025024,-0.1762722283601761,0.4249076247215271
1667857278478018000,10.46601806640625,0.08182189613580704,-0.07981174439191818,0.6505569815635681
1667857278488038100,10.4760380859375,0.095459945499897,0.021013937890529633,0.7883646488189697
1667857278498059000,10.48605908203125,0.0810767412185669,0.11048949509859085,0.8039763569831848
1667857278508079000,10.4960791015625,0.05788114294409752,0.20309293270111084,0.7043349742889404
1667857278518100000,10.506099853515625,0.04669000580906868,0.30245840549468994,0.5325243473052979
1667857278528120000,10.5161201171875,0.05739804357290268,0.3788034915924072,0.3446793556213379
1667857278538141000,10.526140869140624,0.09159782528877258,0.4259220063686371,0.17990931868553162
1667857278548161000,10.5361611328125,0.13320758938789368,0.4538410007953644,0.05407921224832535
1667857278558182000,10.546181884765625,0.16586726903915405,0.44781693816185,-0.02076440118253231
1667857278568202000,10.556201904296875,0.19591571390628815,0.42084017395973206,-0.0634242445230484
1667857278578223000,10.56622314453125,0.2253929078578949,0.37852174043655396,-0.07714751362800598
1667857278588243000,10.576242919921874,0.2656327486038208,0.29717788100242615,-0.07568144798278809
1667857278598264000,10.58626416015625,0.3041558861732483,0.18271495401859283,-0.07547558099031448
1667857278608284000,10.596283935546875,0.3407554626464844,0.06751459836959839,-0.07713419944047928
1667857278618305000,10.606304931640626,0.35904204845428467,-0.03435344621539116,-0.08958021551370621
1667857278628324900,10.616324951171874,0.34212803840637207,-0.11187353730201721,-0.11134357005357742
1667857278638346000,10.626345947265625,0.3042728006839752,-0.16350103914737701,-0.13257375359535217
1667857278648366000,10.636365966796875,0.23842374980449677,-0.18079747259616852,-0.1410370171070099
1667857278658387000,10.646386962890626,0.15300606191158295,-0.166620671749115,-0.1315513700246811
1667857278668407000,10.656406982421874,0.07372242212295532,-0.15374429523944855,-0.09582453221082687
1667857278678428000,10.666427978515625,0.013410081155598164,-0.12228330224752426,-0.039135951548814774
1667857278688449000,10.676448974609375,-0.02088237926363945,-0.07524974644184113,0.03447728231549263
1667857278698468900,10.68646875,-0.0463443286716938,-0.04628520831465721,0.11288607120513916
1667857278708490200,10.696490234375,-0.06532814353704453,-0.05495139956474304,0.1769995391368866
1667857278718509800,10.706509765625,-0.08175744861364365,-0.06986110657453537,0.2133713960647583
1667857278728531200,10.71653125,-0.09009740501642227,-0.06100103631615639,0.22524110972881317
1667857278738551000,10.726551025390625,-0.09059514850378036,-0.04653554409742355,0.2083236426115036
1667857278748572200,10.736572265625,-0.08572076261043549,-0.0350370779633522,0.16548563539981842
1667857278758592300,10.74659228515625,-0.08025036752223969,-0.033122267574071884,0.10187336802482605
1667857278768613000,10.756613037109375,-0.06926961988210678,-0.03792767599225044,0.03580646589398384
1667857278778633200,10.76663330078125,-0.06082792952656746,-0.04728841781616211,-0.019931362941861153
1667857278788654000,10.776654052734376,-0.05860978364944458,-0.055868856608867645,-0.0681241899728775
1667857278798674200,10.786674072265624,-0.06035575270652771,-0.06653428822755814,-0.10187869518995285
1667857278808695000,10.796695068359375,-0.07008587568998337,-0.061643391847610474,-0.10808492451906204
1667857278818715100,10.806715087890625,-0.0861322209239006,-0.05757834017276764,-0.10088613629341125
1667857278828736000,10.816736083984376,-0.09581973403692245,-0.07226221263408661,-0.08755967766046524
1667857278838756000,10.826756103515624,-0.09565462172031403,-0.08960524946451187,-0.0747717097401619
1667857278848777000,10.83677685546875,-0.09626927971839905,-0.1082063615322113,-0.0673164576292038
1667857278858797000,10.846797119140625,-0.09302208572626114,-0.12197810411453247,-0.05656713992357254
1667857278868818000,10.85681787109375,-0.0926753431558609,-0.08861695230007172,-0.04062093049287796
1667857278878838000,10.866838134765626,-0.07863728702068329,-0.031498804688453674,-0.02124030701816082
1667857278888859100,10.876859130859375,-0.06593747437000275,0.00788242369890213,-0.013797570951282978
1667857278898879000,10.88687890625,-0.054666705429553986,0.028270520269870758,-0.024164192378520966
1667857278908900000,10.896900146484375,-0.04645884409546852,0.022905848920345306,-0.04974598437547684
1667857278918920000,10.906919921875,-0.04524417594075203,0.00881133507937193,-0.07693206518888474
1667857278928941000,10.916941162109374,-0.05913256108760834,0.015007445588707924,-0.10612510144710541
1667857278938962000,10.9269619140625,-0.07345104962587357,0.031207453459501266,-0.13625317811965942
1667857278948982000,10.93698193359375,-0.08931735903024673,0.05696927756071091,-0.16419053077697754
1667857278959003000,10.9470029296875,-0.10135617852210999,0.06883392482995987,-0.18736642599105835
1667857278969023000,10.95702294921875,-0.09878862649202347,0.07427156716585159,-0.205097496509552
1667857278979043800,10.9670439453125,-0.09265217185020447,0.07761170715093613,-0.22072331607341766
1667857278989064000,10.97706396484375,-0.08811361342668533,0.08404936641454697,-0.23301354050636292
1667857278999085000,10.9870849609375,-0.08491569012403488,0.08807313442230225,-0.23328597843647003
1667857279009105000,10.99710498046875,-0.08462407439947128,0.06048065423965454,-0.23268970847129822
1667857279019126000,11.0071259765625,-0.09277494251728058,0.027696875855326653,-0.22804062068462372
1667857279029145900,11.017145751953125,-0.11347569525241852,0.03616173192858696,-0.2186892032623291
1667857279039167000,11.0271669921875,-0.13697277009487152,0.060500361025333405,-0.2047100067138672
1667857279049187000,11.03718701171875,-0.15941335260868073,0.07608171552419662,-0.18695683777332306
1667857279059208000,11.0472080078125,-0.1761944741010666,0.06918732821941376,-0.17448098957538605
1667857279069228500,11.057228515625,-0.18812809884548187,0.05759325623512268,-0.16185787320137024
1667857279079249700,11.067249755859375,-0.18447397649288177,0.05408240854740143,-0.1445302814245224
1667857279089269800,11.077269775390626,-0.17750021815299988,0.06563520431518555,-0.12464738637208939
1667857279099291000,11.087290771484374,-0.1717403382062912,0.07602925598621368,-0.10852541029453278
1667857279109310700,11.097310791015625,-0.16977651417255402,0.06749648600816727,-0.11629465222358704
1667857279119331800,11.107331787109375,-0.16795065999031067,0.014728079549968243,-0.16103069484233856
1667857279129352000,11.11735205078125,-0.17722778022289276,-0.07447077333927155,-0.24348296225070953
1667857279139372800,11.127372802734374,-0.18451552093029022,-0.1089608371257782,-0.35874831676483154
1667857279149393000,11.137392822265625,-0.19499824941158295,-0.05735623463988304,-0.4731190800666809
1667857279159413800,11.147413818359375,-0.2161639928817749,-0.005349491722881794,-0.5630103349685669
1667857279169435000,11.157434814453126,-0.25278326869010925,0.014185593463480473,-0.6165574789047241
1667857279179454700,11.167454833984374,-0.2811776101589203,0.04104756936430931,-0.6298506259918213
1667857279189475800,11.177475830078125,-0.27513277530670166,0.055034756660461426,-0.6200856566429138
1667857279199495700,11.18749560546875,-0.2507938742637634,0.08307038247585297,-0.5925621390342712
1667857279209516800,11.197516845703126,-0.23003213107585907,0.16026051342487335,-0.535126268863678
1667857279219537000,11.207536865234376,-0.21861915290355682,0.3303254544734955,-0.45601093769073486
1667857279229557800,11.217557861328125,-0.23094187676906586,0.4869062602519989,-0.3716409206390381
1667857279239577900,11.227577880859375,-0.24760979413986206,0.539168655872345,-0.30628377199172974
1667857279249598700,11.2375986328125,-0.22454681992530823,0.4739864766597748,-0.2661251723766327
1667857279259618800,11.247618896484376,-0.16770032048225403,0.346282035112381,-0.24271650612354279
1667857279269639700,11.2576396484375,-0.12318052351474762,0.20487084984779358,-0.2419537752866745
1667857279279659800,11.26765966796875,-0.10056202858686447,0.07780318707227707,-0.270437628030777
1667857279289680600,11.2776806640625,-0.037468813359737396,0.002712695859372616,-0.30483072996139526
1667857279299700700,11.28770068359375,0.05350051075220108,-0.021260282024741173,-0.3090638220310211
1667857279309721600,11.2977216796875,0.12168755382299423,-0.016086291521787643,-0.27610135078430176
1667857279319741700,11.30774169921875,0.16700683534145355,-0.015777897089719772,-0.25034406781196594
1667857279329762800,11.3177626953125,0.22059442102909088,-0.008805209770798683,-0.24437113106250763
1667857279339782700,11.32778271484375,0.2952500283718109,0.006590791046619415,-0.3219548761844635
1667857279349803800,11.3378037109375,0.3580540120601654,0.04060069099068642,-0.5562653541564941
1667857279359823600,11.34782373046875,0.3663809299468994,0.11359900236129761,-0.9332818984985352
1667857279369844700,11.3578447265625,0.30767765641212463,0.2653792202472687,-1.317571759223938
1667857279379864600,11.367864501953125,0.24007810652256012,0.4673168659210205,-1.5594779253005981
1667857279389885700,11.3778857421875,0.20382343232631683,0.5356511473655701,-1.65692937374115
1667857279399905800,11.38790576171875,0.17955058813095093,0.44401660561561584,-1.6822978258132935
1667857279409926700,11.3979267578125,0.1482648402452469,0.30418333411216736,-1.6732020378112793
1667857279419946800,11.40794677734375,0.10086749494075775,0.17614680528640747,-1.6174509525299072
1667857279429967600,11.417967529296876,0.041974615305662155,0.08874451369047165,-1.5026942491531372
1667857279439988700,11.42798876953125,0.008291219361126423,0.04986902326345444,-1.3363779783248901
1667857279450008600,11.438008544921875,0.01612570695579052,0.04056314006447792,-1.164684534072876
1667857279460030000,11.448030029296875,0.05598124489188194,0.03616918995976448,-1.057936429977417
1667857279470049500,11.458049560546876,0.15309953689575195,0.10829797387123108,-1.0369150638580322
1667857279480071000,11.46807080078125,0.26547908782958984,0.23668870329856873,-1.115842342376709
1667857279490090800,11.4780908203125,0.34381303191185,0.2039129137992859,-1.2860071659088135
1667857279500112000,11.48811181640625,0.4184766113758087,-0.01619361713528633,-1.522744059562683
1667857279510131700,11.498131591796875,0.5019659399986267,-0.3559863269329071,-1.7508747577667236
1667857279520152800,11.50815283203125,0.5916821956634521,-0.7656537294387817,-1.9105030298233032
1667857279530173000,11.5181728515625,0.6784954071044922,-1.0988037586212158,-1.942425012588501
1667857279540193800,11.52819384765625,0.7471011281013489,-1.2934213876724243,-1.8111811876296997
1667857279550214000,11.5382138671875,0.7382370233535767,-1.287984848022461,-1.541636347770691
1667857279560234800,11.54823486328125,0.6613031029701233,-1.1232867240905762,-1.194048523902893
1667857279570254800,11.5582548828125,0.5394416451454163,-0.909312903881073,-0.852221667766571
1667857279580275700,11.568275634765625,0.4066556394100189,-0.7043884992599487,-0.5816695094108582
1667857279590295800,11.5782958984375,0.27337056398391724,-0.5798149108886719,-0.4290757179260254
1667857279600316700,11.588316650390626,0.16610188782215118,-0.5170657634735107,-0.3727589249610901
1667857279610336800,11.598336669921874,0.11585389822721481,-0.4650039076805115,-0.35592907667160034
1667857279620357600,11.608357666015625,0.1061868891119957,-0.4090341031551361,-0.3422476351261139
1667857279630377700,11.618377685546875,0.09075147658586502,-0.3380565941333771,-0.3070875108242035
1667857279640398800,11.62839892578125,0.03839985281229019,-0.28283461928367615,-0.21954168379306793
1667857279650418700,11.638418701171876,-0.04090908169746399,-0.2859249711036682,-0.08848858624696732
1667857279660439800,11.648439697265625,-0.10068240016698837,-0.3354555070400238,0.08106369525194168
1667857279670460700,11.658460693359375,-0.13329680263996124,-0.3739490807056427,0.270251989364624
1667857279680480800,11.668480712890625,-0.16524700820446014,-0.3700270652770996,0.45469534397125244
1667857279690501600,11.678501708984374,-0.2099476456642151,-0.3294585943222046,0.6099035739898682
1667857279700521700,11.688521728515624,-0.2675057351589203,-0.2861633002758026,0.717431366443634
1667857279710542600,11.69854248046875,-0.31235575675964355,-0.2250421643257141,0.7663291096687317
1667857279720562700,11.708562744140625,-0.3423304557800293,-0.13821007311344147,0.7681453824043274
1667857279730583600,11.71858349609375,-0.3587232828140259,-0.03622724488377571,0.7397036552429199
1667857279740603600,11.728603759765624,-0.368245929479599,0.04725592955946922,0.6822645664215088
1667857279750624800,11.738624755859375,-0.37596189975738525,0.12992258369922638,0.6206536889076233
1667857279760644600,11.74864453125,-0.37575364112854004,0.23394058644771576,0.5756998062133789
1667857279770665700,11.758665771484376,-0.3682275712490082,0.312166690826416,0.5478886365890503
1667857279780685600,11.768685546875,-0.3503313958644867,0.3497422933578491,0.5297650694847107
1667857279790706700,11.778706787109375,-0.327261745929718,0.36668717861175537,0.5404744148254395
1667857279800726500,11.7887265625,-0.30005303025245667,0.3690515458583832,0.5743679404258728
1667857279810747600,11.79874755859375,-0.2777504026889801,0.3460426330566406,0.6205455660820007
1667857279820767700,11.808767822265626,-0.2696157693862915,0.309628427028656,0.6845083236694336
1667857279830788900,11.818788818359375,-0.2728632092475891,0.2795778512954712,0.7584669589996338
1667857279840808700,11.82880859375,-0.29048454761505127,0.2854658365249634,0.8502187132835388
1667857279850829800,11.838829833984375,-0.31180182099342346,0.27259397506713867,0.9421547651290894
1667857279860849700,11.848849609375,-0.3328019082546234,0.260983407497406,1.0399571657180786
1667857279870870800,11.858870849609374,-0.3489433526992798,0.2472553253173828,1.1380864381790161
1667857279880891000,11.868890869140625,-0.35452425479888916,0.2508556544780731,1.2409875392913818
1667857279890911700,11.878911865234375,-0.3547554314136505,0.24759674072265625,1.342827320098877
1667857279900931800,11.888931884765626,-0.3502799868583679,0.22605657577514648,1.4486219882965088
1667857279910952700,11.89895263671875,-0.33911919593811035,0.21822980046272278,1.5563838481903076
1667857279920973800,11.908973876953125,-0.3252190947532654,0.26795127987861633,1.6656807661056519
1667857279930994000,11.918993896484375,-0.3026179075241089,0.29187604784965515,1.7609378099441528
1667857279941014800,11.929014892578126,-0.28456994891166687,0.4286711812019348,1.7529802322387695
1667857279951035000,11.939034912109374,-0.2145807445049286,0.4446309804916382,1.6858237981796265
1667857279961055700,11.9490556640625,-0.17005108296871185,0.40553978085517883,1.6393934488296509
1667857279971075800,11.959075927734375,-0.11656762659549713,0.3895629346370697,1.5685304403305054
1667857279981096700,11.9690966796875,-0.06379362940788269,0.37208062410354614,1.489880919456482
1667857279991116800,11.97911669921875,-0.012287026271224022,0.35482627153396606,1.4221322536468506
1667857280001137700,11.9891376953125,0.038477618247270584,0.34558215737342834,1.3604118824005127
1667857280011157800,11.99915771484375,0.0876970961689949,0.282840758562088,1.2889018058776855
1667857280021178600,12.0091787109375,0.12823520600795746,0.13746944069862366,1.1918410062789917
1667857280031198700,12.01919873046875,0.1595981866121292,-0.0084864292293787,1.0157301425933838
1667857280041219600,12.029219482421874,0.18195249140262604,-0.11073796451091766,0.7776976227760315
1667857280051239700,12.03923974609375,0.1963237076997757,-0.15268434584140778,0.5148042440414429
1667857280061260800,12.0492607421875,0.19554100930690765,-0.17628155648708344,0.26487720012664795
1667857280071280000,12.059280029296875,0.1922338902950287,-0.20682960748672485,0.04235012084245682
1667857280081301200,12.06930126953125,0.1843794286251068,-0.24119077622890472,-0.1450141817331314
1667857280091321300,12.0793212890625,0.1775960922241211,-0.2656939923763275,-0.292518675327301
1667857280101342200,12.08934228515625,0.17390334606170654,-0.27993738651275635,-0.4064604341983795
1667857280111362300,12.0993623046875,0.17745600640773773,-0.30094653367996216,-0.4932861328125
1667857280121383200,12.109383056640626,0.18347342312335968,-0.3164304196834564,-0.5380235314369202
1667857280131403300,12.1194033203125,0.18727855384349823,-0.3098958134651184,-0.5467368364334106
1667857280141424000,12.129424072265625,0.17731459438800812,-0.28916576504707336,-0.5232030153274536
1667857280151445500,12.139445556640625,0.15179458260536194,-0.2741071879863739,-0.4736061692237854
1667857280161465000,12.149465087890626,0.11798815429210663,-0.25674229860305786,-0.40428516268730164
1667857280171486500,12.159486572265624,0.08202509582042694,-0.21011808514595032,-0.34012773633003235
1667857280181506300,12.16950634765625,0.04591715708374977,-0.14584748446941376,-0.2946944832801819
1667857280191527400,12.17952734375,0.012895026244223118,-0.07256314903497696,-0.27938345074653625
1667857280201547300,12.18954736328125,-0.016810405999422073,0.00022077605535741895,-0.2812820076942444
1667857280211568400,12.199568359375,-0.037407826632261276,0.0890800729393959,-0.30736634135246277
1667857280221588500,12.20958837890625,-0.05492423474788666,0.17570312321186066,-0.3320237398147583
1667857280231609300,12.219609375,-0.06645678728818893,0.2388290911912918,-0.3563743531703949
1667857280241629400,12.22962939453125,-0.07609503716230392,0.2882118225097656,-0.36732742190361023
1667857280251650300,12.239650390625,-0.08568187803030014,0.3204682767391205,-0.36341574788093567
1667857280261670400,12.24967041015625,-0.09741923213005066,0.33270978927612305,-0.34534168243408203
1667857280271691300,12.259691162109375,-0.10260546952486038,0.3370211720466614,-0.32185259461402893
1667857280281711400,12.26971142578125,-0.1003929153084755,0.3282313942909241,-0.29006245732307434
1667857280291732200,12.279732177734376,-0.09852977097034454,0.30514445900917053,-0.2448238581418991
1667857280301752300,12.28975244140625,-0.10960186272859573,0.28483518958091736,-0.19473965466022491
1667857280311773200,12.299773193359375,-0.12713319063186646,0.2825922966003418,-0.14574308693408966
1667857280321793300,12.309793212890625,-0.13876400887966156,0.2882693409919739,-0.1116008311510086
1667857280331814400,12.319814453125,-0.142992302775383,0.2922390401363373,-0.104969821870327
