time,seconds_elapsed,z,y,x
1667581571366601000,0.04360107421875,36.7906494140625,2.3537445068359375,127.08473205566406
1667581571376760000,0.053760009765625,36.884246826171875,2.4835357666015625,127.21463012695312
1667581571386919000,0.0639189453125,37.22264099121094,2.497650146484375,127.28245544433594
1667581571397078000,0.074078125,37.04649353027344,2.680877685546875,127.22186279296875
1667581571407237000,0.084237060546875,36.92640686035156,2.9356231689453125,127.23802185058594
1667581571417396000,0.09439599609375,37.14447021484375,2.801239013671875,127.344970703125
1667581571427555000,0.10455517578125,37.20050048828125,3.144073486328125,127.29742431640625
1667581571437713000,0.114712890625,36.79438781738281,2.87261962890625,127.12435913085938
1667581571447872000,0.1248720703125,36.834259033203125,2.8872222900390625,127.046630859375
1667581571458030000,0.135030029296875,36.62513732910156,2.9131927490234375,126.908203125
1667581571468189000,0.14518896484375,36.8748779296875,2.9956207275390625,126.82301330566406
1667581571478348000,0.15534814453125,36.530059814453125,2.879608154296875,126.58012390136719
1667581571488507100,0.165507080078125,36.26658630371094,2.7209930419921875,126.31242370605469
1667581571498667000,0.1756669921875,36.31880187988281,2.652069091796875,126.441162109375
1667581571508826000,0.185826171875,36.010467529296875,2.4111328125,126.06240844726562
1667581571518985000,0.19598486328125,36.161529541015625,2.284027099609375,126.10234069824219
1667581571529145000,0.20614501953125,36.06071472167969,2.2135467529296875,125.86247253417969
1667581571539305000,0.216304931640625,36.03700256347656,2.102630615234375,125.805908203125
1667581571549463000,0.226463134765625,36.17021179199219,1.91009521484375,125.43902587890625
1667581571559623000,0.236622802734375,35.98133850097656,1.87506103515625,125.43850708007812
1667581571569782000,0.246781982421875,35.73504638671875,1.7356719970703125,125.40423583984375
1667581571579941000,0.256941162109375,35.89619445800781,1.769195556640625,125.09420776367188
1667581571590100000,0.267099853515625,35.54817199707031,1.69775390625,124.95074462890625
1667581571600258000,0.277258056640625,35.51899719238281,1.483642578125,124.83753967285156
1667581571610417000,0.2874169921875,36.0374755859375,1.5118865966796875,124.82417297363281
1667581571620575000,0.297574951171875,35.89186096191406,1.293975830078125,124.54025268554688
1667581571630734800,0.30773486328125,35.7081298828125,1.17266845703125,124.51893615722656
1667581571640893000,0.317892822265625,36.01930236816406,0.744476318359375,124.64378356933594
1667581571651052000,0.328052001953125,36.20594787597656,0.438690185546875,124.72520446777344
1667581571661211100,0.338211181640625,36.408660888671875,-0.0851287841796875,124.69245910644531
1667581571671370000,0.348369873046875,36.449493408203125,-0.3986053466796875,124.69631958007812
1667581571681529000,0.358529052734375,36.576202392578125,-0.774566650390625,124.40431213378906
1667581571691688000,0.36868798828125,37.17095947265625,-1.0511322021484375,124.33538818359375
1667581571701846000,0.378845947265625,36.88099670410156,-1.259552001953125,123.91075134277344
1667581571712004900,0.3890048828125,36.6256103515625,-1.6377410888671875,123.77276611328125
1667581571722164000,0.3991640625,37.02081298828125,-2.010650634765625,123.518798828125
1667581571732322800,0.40932275390625,36.92803955078125,-2.3730926513671875,123.13934326171875
1667581571742482000,0.41948193359375,36.94635009765625,-2.8997344970703125,122.78935241699219
1667581571752641000,0.42964111328125,37.06767272949219,-3.197296142578125,122.57072448730469
1667581571762799900,0.4397998046875,37.044952392578125,-3.3188629150390625,122.09828186035156
1667581571772959200,0.449959228515625,37.04365539550781,-3.64410400390625,121.762451171875
1667581571783118300,0.460118408203125,37.01359558105469,-4.210052490234375,121.69084167480469
1667581571793276200,0.470276123046875,37.0584716796875,-4.4326019287109375,121.28213500976562
1667581571803435000,0.48043505859375,37.28382873535156,-4.7703399658203125,121.16975402832031
1667581571813594000,0.490593994140625,37.60565185546875,-5.5147857666015625,121.09040832519531
1667581571823752200,0.500752197265625,37.768218994140625,-5.879241943359375,120.92283630371094
1667581571833911300,0.510911376953125,37.817779541015625,-6.027252197265625,120.75593566894531
1667581571844070100,0.521070068359375,37.88981628417969,-6.391815185546875,120.62283325195312
1667581571854229200,0.531229248046875,38.05009460449219,-6.6960601806640625,120.54661560058594
1667581571864388400,0.541388427734375,38.23326110839844,-7.0254669189453125,120.42361450195312
1667581571874546200,0.551546142578125,38.69578552246094,-7.413726806640625,120.51466369628906
1667581571884705000,0.561705078125,38.7501220703125,-7.7680206298828125,120.26296997070312
1667581571894864100,0.571864013671875,38.97001647949219,-8.19659423828125,120.26753234863281
1667581571905023000,0.58202294921875,39.35154724121094,-8.715118408203125,120.14739990234375
1667581571915182000,0.59218212890625,39.386810302734375,-9.169113159179688,119.83580017089844
1667581571925342200,0.60234228515625,40.01904296875,-9.616455078125,119.60791015625
1667581571935501000,0.6125009765625,40.3726806640625,-10.24090576171875,119.32615661621094
1667581571945660200,0.62266015625,40.39738464355469,-10.625762939453125,119.04652404785156
1667581571955819000,0.632819091796875,40.738861083984375,-10.976211547851562,118.89938354492188
1667581571965979100,0.642979248046875,40.84228515625,-11.54644775390625,118.49140930175781
1667581571976138200,0.65313818359375,40.935272216796875,-11.901931762695312,118.10939025878906
1667581571986296000,0.663296142578125,41.145355224609375,-12.300369262695312,117.89695739746094
1667581571996455200,0.673455078125,41.23883056640625,-12.519882202148438,117.33522033691406
1667581572006614300,0.6836142578125,41.110443115234375,-12.64837646484375,116.95611572265625
1667581572016773000,0.693773193359375,41.28260803222656,-13.23968505859375,116.47721862792969
1667581572026932200,0.70393212890625,41.302276611328125,-13.530029296875,116.28590393066406
1667581572037090000,0.714090087890625,41.7877197265625,-13.97314453125,115.90080261230469
1667581572047250000,0.72425,42.066741943359375,-14.3985595703125,115.42643737792969
1667581572057408000,0.734407958984375,42.17658996582031,-14.673568725585938,115.01339721679688
1667581572067566000,0.744566162109375,42.093170166015625,-15.1484375,114.65956115722656
1667581572077725200,0.75472509765625,42.163299560546875,-15.38818359375,114.32168579101562
1667581572087884300,0.76488427734375,42.27268981933594,-15.688217163085938,113.60005187988281
1667581572098043100,0.775043212890625,42.50566101074219,-15.984283447265625,113.25044250488281
1667581572108201000,0.785200927734375,42.227508544921875,-16.186874389648438,112.871337890625
1667581572118360000,0.795360107421875,42.70741271972656,-16.456695556640625,112.59223937988281
1667581572128518100,0.80551806640625,42.77117919921875,-16.6727294921875,112.05006408691406
1667581572138678000,0.815677978515625,42.83467102050781,-16.879776000976562,111.678955078125
1667581572148838100,0.825838134765625,43.22550964355469,-17.22021484375,111.34201049804688
1667581572158997000,0.8359970703125,42.9808349609375,-17.39837646484375,110.93490600585938
1667581572169155000,0.846155029296875,43.137786865234375,-17.632949829101562,110.67350769042969
1667581572179315200,0.856315185546875,43.47784423828125,-17.709197998046875,110.3267822265625
1667581572189474000,0.86647412109375,43.49896240234375,-17.894195556640625,109.70053100585938
1667581572199633200,0.876633056640625,43.72367858886719,-18.026458740234375,109.40411376953125
1667581572209791200,0.886791259765625,43.781768798828125,-18.26318359375,108.86070251464844
1667581572219950000,0.8969501953125,43.68928527832031,-18.529891967773438,108.67402648925781
1667581572230108000,0.90710791015625,43.85005187988281,-18.646514892578125,108.09510803222656
1667581572240267000,0.91726708984375,43.84959411621094,-18.991470336914062,107.66349792480469
1667581572250425000,0.927425048828125,44.41595458984375,-19.1748046875,107.36689758300781
1667581572260583200,0.937583251953125,44.08808898925781,-19.27655029296875,107.00387573242188
1667581572270742300,0.9477421875,44.365875244140625,-19.511032104492188,106.77720642089844
1667581572280900400,0.957900390625,44.548919677734375,-19.901657104492188,106.32966613769531
1667581572291058200,0.96805810546875,44.821136474609375,-20.050613403320312,105.92706298828125
1667581572301217000,0.978217041015625,44.88548278808594,-20.090408325195312,105.56678771972656
1667581572311376100,0.988376220703125,44.94317626953125,-20.126556396484375,105.08735656738281
1667581572321535200,0.99853515625,45.11036682128906,-20.160964965820312,104.74623107910156
1667581572331694000,1.008694091796875,45.29972839355469,-20.328887939453125,104.35397338867188
1667581572341853200,1.018853271484375,45.296600341796875,-20.333465576171875,104.03500366210938
1667581572352012000,1.029011962890625,45.08061218261719,-20.272369384765625,103.58819580078125
1667581572362171100,1.039171142578125,45.354736328125,-20.362457275390625,103.39749145507812
1667581572372330200,1.049330322265625,45.073486328125,-20.451797485351562,103.207763671875
1667581572382489000,1.059489013671875,45.4798583984375,-20.46051025390625,102.93746948242188
1667581572392649200,1.069649169921875,45.05146789550781,-20.471176147460938,102.59126281738281
1667581572402808000,1.07980810546875,44.69322204589844,-20.34649658203125,102.09878540039062
1667581572412968200,1.08996826171875,44.98420715332031,-20.332534790039062,101.66441345214844
1667581572423128000,1.100128173828125,45.16300964355469,-20.380386352539062,101.36399841308594
1667581572433287200,1.110287109375,45.0096435546875,-20.394180297851562,101.10755920410156
1667581572443446300,1.1204462890625,45.179962158203125,-20.696914672851562,100.60847473144531
1667581572453605000,1.130605224609375,45.71153259277344,-20.443954467773438,100.18452453613281
1667581572463764200,1.14076416015625,45.65516662597656,-20.462799072265625,99.98561096191406
1667581572473923300,1.15092333984375,45.78564453125,-20.785781860351562,99.65365600585938
1667581572484082200,1.161082275390625,45.54505920410156,-20.749862670898438,99.27749633789062
1667581572494242300,1.1712421875,45.86248779296875,-20.70611572265625,99.06044006347656
1667581572504401200,1.181401123046875,45.60980224609375,-20.711532592773438,98.383544921875
1667581572514560300,1.191560302734375,45.54515075683594,-20.583816528320312,98.28378295898438
1667581572524720000,1.20172021484375,45.18745422363281,-20.796096801757812,98.02357482910156
1667581572534878000,1.2118779296875,45.23860168457031,-20.349807739257812,97.87579345703125
1667581572545037000,1.222037109375,45.489044189453125,-20.4873046875,97.53474426269531
1667581572555197200,1.232197265625,45.554412841796875,-20.492752075195312,97.313720703125
1667581572565356000,1.24235595703125,45.66773986816406,-20.312255859375,97.10214233398438
1667581572575515100,1.25251513671875,45.642791748046875,-20.609146118164062,96.88079833984375
1667581572585673200,1.262673095703125,45.822723388671875,-20.490753173828125,96.54902648925781
1667581572595833000,1.2728330078125,45.742645263671875,-20.565597534179688,96.48086547851562
1667581572605992200,1.2829921875,45.73736572265625,-20.716888427734375,96.30723571777344
1667581572616150000,1.29314990234375,45.858154296875,-20.599349975585938,96.02192687988281
1667581572626309000,1.30330908203125,45.37640380859375,-20.703567504882812,95.97309875488281
1667581572636468200,1.31346826171875,45.629974365234375,-20.690643310546875,95.74449157714844
1667581572646628000,1.323628173828125,45.560302734375,-20.606277465820312,95.77903747558594
1667581572656787200,1.333787109375,45.295257568359375,-20.428115844726562,95.36201477050781
1667581572666946000,1.343946044921875,45.078704833984375,-20.5732421875,95.35786437988281
1667581572677106200,1.354106201171875,45.140289306640625,-20.319183349609375,95.23477172851562
1667581572687265300,1.364265380859375,45.07792663574219,-20.131378173828125,95.08262634277344
1667581572697423000,1.374423095703125,44.77088928222656,-20.082992553710938,94.89103698730469
1667581572707582200,1.384582275390625,44.704437255859375,-20.058761596679688,94.939453125
1667581572717741000,1.394740966796875,44.88624572753906,-20.016159057617188,94.76797485351562
1667581572727900000,1.40489990234375,44.73504638671875,-20.036056518554688,94.90205383300781
1667581572738059000,1.41505908203125,44.64506530761719,-19.982025146484375,94.85501098632812
1667581572748218000,1.425218017578125,44.51556396484375,-19.862136840820312,94.75115966796875
1667581572758377000,1.435376953125,44.46455383300781,-19.6353759765625,94.61036682128906
1667581572768534800,1.44553466796875,44.304443359375,-19.588363647460938,94.46098327636719
1667581572778694000,1.45569384765625,43.951446533203125,-19.42816162109375,94.31118774414062
1667581572788851700,1.465851806640625,43.95524597167969,-19.366851806640625,94.36361694335938
1667581572799010800,1.4760107421875,43.80055236816406,-19.400619506835938,94.394287109375
1667581572809169000,1.4861689453125,44.0140380859375,-19.2071533203125,94.35966491699219
1667581572819327700,1.49632763671875,43.6131591796875,-19.099777221679688,94.47273254394531
1667581572829486800,1.50648681640625,43.34965515136719,-18.941192626953125,94.59901428222656
1667581572839646000,1.51664599609375,43.35346984863281,-18.769302368164062,94.4228515625
1667581572849804000,1.526803955078125,42.854400634765625,-18.82574462890625,94.50479125976562
1667581572859963000,1.536962890625,43.00177001953125,-18.657470703125,94.41716003417969
1667581572870122000,1.5471220703125,42.93537902832031,-18.396881103515625,94.4300537109375
1667581572880279800,1.55727978515625,42.72395324707031,-18.394500732421875,94.504638671875
1667581572890439700,1.567439697265625,42.61102294921875,-18.4979248046875,94.78366088867188
1667581572900597800,1.57759765625,42.691070556640625,-17.967926025390625,94.55291748046875
1667581572910756900,1.5877568359375,42.19544982910156,-17.954833984375,94.50801086425781
1667581572920916000,1.597916015625,42.02008056640625,-17.943145751953125,94.70977783203125
1667581572931073800,1.60807373046875,41.96534729003906,-17.785415649414062,94.49212646484375
1667581572941233000,1.61823291015625,41.8917236328125,-17.92620849609375,94.57855224609375
1667581572951392000,1.62839208984375,42.010772705078125,-17.548675537109375,94.51803588867188
1667581572961550800,1.63855078125,41.93989562988281,-17.594253540039062,94.46690368652344
1667581572971708700,1.648708740234375,41.6683349609375,-17.364013671875,94.26649475097656
1667581572981867800,1.65886767578125,41.570281982421875,-17.407196044921875,94.30319213867188
1667581572992027000,1.66902685546875,41.46131896972656,-17.239425659179688,94.09420776367188
1667581573002185700,1.679185791015625,41.36369323730469,-17.3463134765625,94.28184509277344
1667581573012343800,1.68934375,41.06742858886719,-17.213851928710938,94.07484436035156
1667581573022502000,1.699501953125,41.03962707519531,-17.129302978515625,94.02760314941406
1667581573032659700,1.70965966796875,40.90608215332031,-16.85760498046875,94.06996154785156
1667581573042817800,1.71981787109375,41.505767822265625,-16.963790893554688,93.90338134765625
1667581573052977000,1.729976806640625,41.13618469238281,-16.840652465820312,93.75921630859375
1667581573063135700,1.7401357421875,41.11627197265625,-16.834274291992188,93.60093688964844
1667581573073294800,1.750294921875,41.16233825683594,-16.546707153320312,93.41368103027344
1667581573083453000,1.760452880859375,41.01387023925781,-16.327346801757812,93.2979736328125
1667581573093612000,1.770612060546875,40.87632751464844,-16.560562133789062,93.25318908691406
1667581573103769900,1.780769775390625,40.74211120605469,-16.335922241210938,93.01408386230469
1667581573113928000,1.790927978515625,40.71916198730469,-16.128997802734375,92.77194213867188
1667581573124086000,1.8010859375,40.95414733886719,-16.212677001953125,92.74728393554688
1667581573134243800,1.811243896484375,41.07855224609375,-16.00982666015625,92.56802368164062
1667581573144401000,1.82140087890625,40.91581726074219,-15.973175048828125,92.40159606933594
1667581573154559000,1.83155908203125,40.454681396484375,-16.07977294921875,92.07792663574219
1667581573164717800,1.8417177734375,40.471221923828125,-15.748733520507812,91.83724975585938
1667581573174875600,1.851875732421875,40.67964172363281,-15.779556274414062,91.91725158691406
1667581573185034800,1.86203466796875,40.71954345703125,-15.680892944335938,91.82212829589844
1667581573195192800,1.87219287109375,40.517852783203125,-15.752853393554688,91.53709411621094
1667581573205352000,1.88235205078125,40.77235412597656,-15.73626708984375,91.28340148925781
1667581573215511800,1.89251171875,40.640533447265625,-15.793792724609375,91.22303771972656
1667581573225671000,1.9026708984375,40.72956848144531,-15.58697509765625,90.96383666992188
1667581573235829800,1.912829833984375,40.583648681640625,-15.313217163085938,90.61878967285156
1667581573245990000,1.922989990234375,40.521209716796875,-15.492965698242188,90.33201599121094
1667581573256148000,1.93314794921875,40.436553955078125,-15.303146362304688,90.17340087890625
1667581573266306800,1.943306884765625,40.29399108886719,-15.182205200195312,90.03651428222656
1667581573276465000,1.95346484375,40.44384765625,-15.13653564453125,89.68359375
1667581573286622700,1.963622802734375,40.16961669921875,-14.915252685546875,89.61029052734375
1667581573296780800,1.97378076171875,40.04681396484375,-14.924057006835938,89.44700622558594
1667581573306939000,1.98393896484375,40.24664306640625,-15.017364501953125,89.32780456542969
1667581573317098000,1.994097900390625,40.50486755371094,-14.88616943359375,89.15731811523438
1667581573327255800,2.004255859375,40.293731689453125,-14.809249877929688,88.97892761230469
1667581573337414700,2.01441455078125,40.09715270996094,-14.736328125,88.83720397949219
1667581573347572700,2.02457275390625,40.2010498046875,-14.688034057617188,88.77070617675781
1667581573357731800,2.03473193359375,40.30558776855469,-14.557052612304688,88.296142578125
1667581573367890000,2.044889892578125,40.066925048828125,-14.41162109375,88.23548889160156
1667581573378049000,2.055049072265625,40.08064270019531,-14.468994140625,88.05003356933594
1667581573388206800,2.065206787109375,40.25425720214844,-14.288864135742188,88.01126098632812
1667581573398365700,2.07536572265625,40.25140380859375,-14.118133544921875,87.594970703125
1667581573408524800,2.08552490234375,40.30522155761719,-14.101043701171875,87.50392150878906
1667581573418683600,2.09568359375,40.21856689453125,-14.049697875976562,87.4488525390625
1667581573428842800,2.1058427734375,40.00791931152344,-13.904937744140625,87.26985168457031
1667581573439003000,2.1160029296875,40.12364196777344,-13.596511840820312,87.1236572265625
1667581573449161700,2.12616162109375,39.58111572265625,-13.4681396484375,86.92549133300781
1667581573459321900,2.13632177734375,39.668121337890625,-13.456878662109375,86.67678833007812
1667581573469480700,2.146480712890625,39.55332946777344,-13.305496215820312,86.41702270507812
1667581573479639800,2.156639892578125,39.57948303222656,-13.19232177734375,86.21295166015625
1667581573489798000,2.1667978515625,39.7823486328125,-12.94091796875,85.93040466308594
1667581573499956700,2.176956787109375,39.853302001953125,-12.7987060546875,85.814453125
1667581573510115800,2.18711572265625,39.745819091796875,-12.916702270507812,85.52204895019531
1667581573520274000,2.19727392578125,39.68296813964844,-12.71807861328125,85.1043701171875
1667581573530433000,2.20743310546875,39.531494140625,-12.837371826171875,85.00405883789062
1667581573540591900,2.217591796875,39.635284423828125,-12.388229370117188,84.69355773925781
1667581573550750700,2.227750732421875,39.87657165527344,-12.480880737304688,84.74263000488281
1667581573560910800,2.237910888671875,39.462646484375,-12.321044921875,84.55645751953125
1667581573571070000,2.248070068359375,39.656585693359375,-12.092239379882812,84.21363830566406
1667581573581228800,2.258228759765625,39.6944580078125,-11.958587646484375,84.05424499511719
1667581573591387000,2.268386962890625,39.3961181640625,-12.023956298828125,83.78436279296875
1667581573601546800,2.278546630859375,39.68544006347656,-11.880950927734375,83.58090209960938
1667581573611705900,2.288705810546875,39.5966796875,-11.971710205078125,83.609619140625
1667581573621865700,2.29886572265625,39.42628479003906,-11.542739868164062,83.3494873046875
1667581573632024800,2.30902490234375,39.15113830566406,-11.490234375,83.41867065429688
1667581573642184700,2.319184814453125,39.23876953125,-11.455718994140625,83.11677551269531
1667581573652343800,2.32934375,38.90528869628906,-11.212966918945312,82.89630126953125
1667581573662502700,2.339502685546875,38.99067687988281,-11.036178588867188,82.77285766601562
1667581573672662800,2.349662841796875,39.14900207519531,-10.96673583984375,82.63919067382812
1667581573682820900,2.35982080078125,39.39143371582031,-10.712631225585938,82.54519653320312
1667581573692979700,2.369979736328125,39.22576904296875,-10.621185302734375,82.26383972167969
1667581573703138800,2.380138916015625,39.1968994140625,-10.67633056640625,82.14323425292969
1667581573713298000,2.3902978515625,39.11708068847656,-10.685287475585938,82.12429809570312
1667581573723456800,2.400456787109375,38.84928894042969,-10.604248046875,81.89256286621094
1667581573733615900,2.410615966796875,39.364959716796875,-10.386199951171875,81.94047546386719
1667581573743775000,2.42077490234375,39.375732421875,-10.41552734375,81.53627014160156
1667581573753933800,2.430933837890625,39.16259765625,-10.241714477539062,81.46141052246094
1667581573764094000,2.441093994140625,39.09564208984375,-10.169631958007812,81.41775512695312
1667581573774252300,2.451252197265625,39.388275146484375,-10.013107299804688,81.40396118164062
1667581573784411400,2.461411376953125,39.14811706542969,-9.939208984375,81.2615966796875
1667581573794570500,2.471570556640625,39.28314208984375,-9.91876220703125,81.0047607421875
1667581573804728600,2.481728515625,39.013153076171875,-9.516189575195312,80.91419982910156
1667581573814887400,2.491887451171875,38.92002868652344,-9.210205078125,80.58349609375
1667581573825047600,2.502047607421875,38.61180114746094,-9.03118896484375,80.48553466796875
1667581573835206400,2.512206298828125,38.772003173828125,-8.715957641601562,80.27859497070312
1667581573845365500,2.522365478515625,38.60093688964844,-8.519668579101562,80.1873779296875
1667581573855524600,2.532524658203125,38.90248107910156,-8.144210815429688,79.82012939453125
1667581573865682700,2.5426826171875,38.58479309082031,-7.908203125,79.53010559082031
1667581573875841500,2.552841552734375,38.76496887207031,-7.5751800537109375,79.27822875976562
1667581573886000400,2.56300048828125,38.33567810058594,-7.345550537109375,79.06729125976562
1667581573896159500,2.573159423828125,38.7275390625,-7.0081024169921875,78.69187927246094
1667581573906319600,2.583319580078125,38.25456237792969,-6.82159423828125,78.67105102539062
1667581573916478500,2.593478515625,38.44171142578125,-6.5210418701171875,78.08401489257812
1667581573926637300,2.60363720703125,38.102203369140625,-6.17236328125,77.9818115234375
1667581573936796400,2.61379638671875,38.31370544433594,-5.7888641357421875,77.72532653808594
1667581573946955500,2.62395556640625,38.07609558105469,-5.3762359619140625,77.427490234375
1667581573957114400,2.6341142578125,38.04069519042969,-5.1691436767578125,77.061279296875
1667581573967274500,2.6442744140625,37.96476745605469,-4.9193572998046875,76.84613037109375
1667581573977433300,2.654433349609375,37.882415771484375,-4.6427001953125,76.60240173339844
1667581573987593500,2.664593505859375,38.281494140625,-4.3890380859375,76.41134643554688
1667581573997753600,2.674753662109375,38.04058837890625,-4.217681884765625,76.29832458496094
1667581574007912400,2.684912353515625,37.8016357421875,-4.0919952392578125,76.03945922851562
1667581574018072600,2.695072509765625,38.32408142089844,-3.9960479736328125,75.80072021484375
1667581574028232400,2.705232421875,38.38920593261719,-3.6375274658203125,75.55125427246094
1667581574038391600,2.7153916015625,38.39253234863281,-3.601165771484375,74.98344421386719
1667581574048550700,2.725550537109375,38.81547546386719,-3.283935546875,74.32211303710938
1667581574058709500,2.73570947265625,39.049530029296875,-3.10723876953125,73.74093627929688
1667581574068868400,2.745868408203125,39.416900634765625,-2.810455322265625,73.14930725097656
1667581574079026400,2.7560263671875,39.81986999511719,-2.353546142578125,72.68446350097656
1667581574089185500,2.766185546875,39.55476379394531,-2.0262603759765625,72.43376159667969
1667581574099344400,2.776344482421875,39.58258056640625,-1.62841796875,72.14155578613281
1667581574109502500,2.78650244140625,39.62715148925781,-1.0420379638671875,71.91717529296875
1667581574119662600,2.79666259765625,39.34938049316406,-0.6348114013671875,71.73126220703125
1667581574129820700,2.806820556640625,39.05345153808594,-0.4409637451171875,71.55380249023438
1667581574139979500,2.8169794921875,39.31694030761719,-0.1088409423828125,71.43431091308594
1667581574150138600,2.827138671875,39.269622802734375,0.022857666015625,71.42990112304688
1667581574160297500,2.83729736328125,39.137969970703125,0.1324462890625,71.31161499023438
1667581574170456300,2.847456298828125,39.22248840332031,0.178558349609375,71.22416687011719
1667581574180614400,2.857614501953125,39.46307373046875,0.2190704345703125,71.21162414550781
1667581574190774500,2.8677744140625,39.44059753417969,0.098724365234375,71.16552734375
1667581574200932600,2.8779326171875,39.42070007324219,0.31024169921875,70.928466796875
1667581574211091500,2.888091552734375,39.50526428222656,0.3121795654296875,70.90058898925781
1667581574221250600,2.89825048828125,39.245086669921875,0.383880615234375,70.98171997070312
1667581574231408600,2.90840869140625,39.25787353515625,0.687896728515625,71.18177795410156
1667581574241567500,2.9185673828125,38.95855712890625,0.834320068359375,71.31069946289062
1667581574251726300,2.928726318359375,38.64909362792969,1.10699462890625,71.44972229003906
1667581574261885400,2.938885498046875,38.25799560546875,1.381622314453125,71.54023742675781
1667581574272045600,2.949045654296875,38.12158203125,1.6206207275390625,71.712890625
1667581574282204400,2.959204345703125,37.82429504394531,1.961273193359375,71.70375061035156
1667581574292363500,2.969363525390625,37.82508850097656,1.9425811767578125,71.89266967773438
1667581574302522400,2.9795224609375,37.535797119140625,1.90301513671875,72.07792663574219
1667581574312682500,2.9896826171875,37.68879699707031,1.828521728515625,72.27731323242188
1667581574322841300,2.99984130859375,37.32374572753906,2.036773681640625,72.62503051757812
1667581574333000400,3.01000048828125,37.19532775878906,2.056427001953125,72.91427612304688
1667581574343160300,3.020160400390625,37.092529296875,1.96234130859375,73.08326721191406
1667581574353319400,3.0303193359375,36.90541076660156,2.0984344482421875,73.16352844238281
1667581574363477500,3.0404775390625,36.54090881347656,2.2064208984375,73.44975280761719
1667581574373636600,3.05063671875,36.724517822265625,2.2972412109375,73.53173828125
1667581574383795500,3.06079541015625,36.464569091796875,2.5693511962890625,73.48179626464844
1667581574393954600,3.07095458984375,36.411102294921875,2.61090087890625,73.60115051269531
1667581574404112600,3.081112548828125,36.180511474609375,3.0340728759765625,73.54301452636719
1667581574414271500,3.091271484375,35.97998046875,3.32666015625,73.640625
1667581574424430600,3.1014306640625,35.7965087890625,3.5502166748046875,73.77232360839844
1667581574434589700,3.111589599609375,35.772186279296875,3.86077880859375,73.85415649414062
1667581574444748300,3.121748291015625,35.206878662109375,3.6739501953125,74.02091979980469
1667581574454908700,3.13190869140625,35.39411926269531,3.6839447021484375,74.2513427734375
1667581574465067500,3.142067626953125,34.946807861328125,3.9040679931640625,74.269287109375
1667581574475227600,3.1522275390625,35.18475341796875,4.17327880859375,74.35545349121094
1667581574485387500,3.162387451171875,35.174957275390625,3.87176513671875,74.66400146484375
1667581574495546600,3.172546630859375,35.23274230957031,3.9927520751953125,74.85546875
1667581574505705500,3.18270556640625,35.016143798828125,4.0260162353515625,75.06828308105469
1667581574515864600,3.192864501953125,34.82049560546875,3.8710479736328125,75.25996398925781
1667581574526023400,3.2030234375,34.864166259765625,4.1057586669921875,75.20828247070312
1667581574536183600,3.21318359375,34.624176025390625,4.0880889892578125,75.46939086914062
1667581574546342700,3.2233427734375,34.08491516113281,4.2646026611328125,75.586669921875
1667581574556501500,3.23350146484375,33.996429443359375,4.1915283203125,75.75154113769531
1667581574566660400,3.243660400390625,33.95281982421875,4.1403045654296875,75.79603576660156
1667581574576819500,3.2538193359375,34.284423828125,4.552276611328125,75.82249450683594
1667581574586979300,3.263979248046875,34.384857177734375,4.4787139892578125,76.14328002929688
1667581574597137400,3.274137451171875,33.87359619140625,4.557373046875,76.10978698730469
1667581574607297500,3.284297607421875,34.15074157714844,4.5064239501953125,76.05767822265625
1667581574617456400,3.294456298828125,34.17680358886719,4.5535430908203125,76.24787902832031
1667581574627615500,3.304615478515625,34.21788024902344,4.4988861083984375,76.41392517089844
1667581574637775400,3.314775390625,33.883056640625,4.3799896240234375,76.39323425292969
1667581574647935500,3.324935546875,34.12803649902344,4.316741943359375,76.57754516601562
1667581574658094300,3.33509423828125,33.9718017578125,4.635467529296875,76.32981872558594
1667581574668254700,3.345254638671875,34.138397216796875,4.5238037109375,76.67195129394531
1667581574678413300,3.355413330078125,33.94810485839844,4.316650390625,76.96678161621094
1667581574688573700,3.36557373046875,33.72955322265625,4.5464324951171875,76.99417114257812
1667581574698731500,3.3757314453125,33.45428466796875,4.618072509765625,77.09506225585938
1667581574708890400,3.385890380859375,33.6353759765625,4.677520751953125,77.25469970703125
1667581574719050500,3.396050537109375,33.70191955566406,4.7745361328125,77.07942199707031
1667581574729209300,3.406209228515625,33.3162841796875,4.8670501708984375,77.41925048828125
1667581574739368400,3.416368408203125,33.59107971191406,5.0828704833984375,77.30206298828125
1667581574749528300,3.4265283203125,33.44920349121094,5.0361175537109375,77.24581909179688
1667581574759687400,3.4366875,33.17338562011719,4.987152099609375,77.23182678222656
1667581574769846500,3.446846435546875,33.32698059082031,5.18902587890625,77.01402282714844
1667581574780006400,3.45700634765625,33.441253662109375,5.203765869140625,77.22477722167969
1667581574790164500,3.46716455078125,33.291168212890625,5.2438812255859375,77.1541748046875
1667581574800323600,3.477323486328125,33.266082763671875,4.965423583984375,77.27737426757812
1667581574810483500,3.4874833984375,33.24714660644531,4.8978424072265625,77.17279052734375
1667581574820641500,3.4976416015625,33.31745910644531,5.02978515625,77.20538330078125
1667581574830800600,3.507800537109375,33.714447021484375,4.95147705078125,77.08969116210938
1667581574840959500,3.51795947265625,33.48466491699219,4.952423095703125,77.06770324707031
1667581574851118600,3.52811865234375,33.32133483886719,4.9049835205078125,76.96337890625
1667581574861277700,3.538277587890625,33.49119567871094,4.7854766845703125,77.00930786132812
1667581574871435500,3.548435546875,33.689117431640625,4.7321319580078125,76.79702758789062
1667581574881594400,3.558594482421875,33.59407043457031,4.5644683837890625,77.06100463867188
1667581574891752400,3.56875244140625,33.46244812011719,4.504669189453125,76.70408630371094
1667581574901911600,3.57891162109375,33.58757019042969,4.4150238037109375,76.68806457519531
1667581574912070400,3.5890703125,33.53875732421875,4.502471923828125,76.60462951660156
1667581574922229500,3.5992294921875,33.8843994140625,4.43475341796875,76.510009765625
1667581574932388600,3.609388671875,33.71223449707031,4.351287841796875,76.52932739257812
1667581574942547500,3.61954736328125,33.68403625488281,4.008209228515625,76.30831909179688
1667581574952706600,3.62970654296875,33.88166809082031,4.2095184326171875,76.14474487304688
1667581574962865400,3.639865478515625,34.314300537109375,3.9047393798828125,76.09507751464844
1667581574973024300,3.650024169921875,33.92649841308594,3.8589630126953125,75.7857666015625
1667581574983183400,3.660183349609375,34.20130920410156,3.7521209716796875,75.78004455566406
1667581574993342500,3.670342529296875,34.47160339355469,3.512176513671875,75.66957092285156
1667581575003501300,3.680501220703125,34.371368408203125,3.5504608154296875,75.52407836914062
1667581575013660400,3.690660400390625,34.31510925292969,3.4492950439453125,75.34036254882812
1667581575023820300,3.7008203125,34.516387939453125,3.350494384765625,75.43504333496094
1667581575033979400,3.7109794921875,34.52021789550781,3.1668853759765625,75.50553894042969
1667581575044138500,3.721138427734375,34.6466064453125,3.3394927978515625,75.60395812988281
1667581575054297300,3.73129736328125,34.614410400390625,3.290985107421875,75.657958984375
1667581575064457500,3.74145751953125,34.50286865234375,3.0663604736328125,75.65493774414062
1667581575074616300,3.7516162109375,34.66075134277344,3.2665252685546875,75.7568359375
1667581575084777500,3.761777587890625,34.63768005371094,3.1163177490234375,75.63688659667969
1667581575094937600,3.7719375,34.58088684082031,3.037933349609375,75.70414733886719
1667581575105097500,3.782097412109375,34.81974792480469,3.07330322265625,75.49179077148438
1667581575115257600,3.792257568359375,34.875335693359375,2.820526123046875,75.32194519042969
1667581575125417500,3.80241748046875,35.10179138183594,2.5712432861328125,75.33543395996094
1667581575135577300,3.812577392578125,35.15534973144531,2.5342864990234375,75.19290161132812
1667581575145737500,3.822737548828125,35.32524108886719,2.19061279296875,75.03779602050781
1667581575155898600,3.832898681640625,35.46368408203125,2.03955078125,75.17008972167969
1667581575166058500,3.84305859375,35.595245361328125,1.76202392578125,75.15168762207031
1667581575176218600,3.853218505859375,35.20916748046875,1.55999755859375,75.15049743652344
1667581575186378500,3.86337841796875,35.41569519042969,1.4691925048828125,75.08120727539062
1667581575196538400,3.873538330078125,35.8360595703125,1.3026885986328125,75.12179565429688
1667581575206697500,3.883697509765625,35.91790771484375,0.811309814453125,75.30491638183594
1667581575216855600,3.89385546875,35.63957214355469,0.5647735595703125,75.32272338867188
1667581575227014700,3.9040146484375,35.9852294921875,0.5160980224609375,75.06759643554688
1667581575237172500,3.91417236328125,36.334808349609375,0.379150390625,74.66766357421875
1667581575247330300,3.924330322265625,36.77003479003906,0.366302490234375,74.06396484375
1667581575257488400,3.93448828125,37.439910888671875,-0.0014190673828125,73.26409912109375
1667581575267646500,3.944646484375,38.04148864746094,-0.1277313232421875,72.38461303710938
1667581575277805600,3.9548056640625,38.50775146484375,-0.6371002197265625,72.13748168945312
1667581575287963400,3.96496337890625,38.957275390625,-0.729705810546875,71.646728515625
1667581575298121500,3.97512158203125,39.42817687988281,-1.06561279296875,71.61569213867188
1667581575308280600,3.985280517578125,39.594696044921875,-1.3055572509765625,71.44708251953125
1667581575318438700,3.995438720703125,39.67608642578125,-1.4210357666015625,71.53338623046875
1667581575328597500,4.005597412109375,39.722930908203125,-1.4743499755859375,71.43894958496094
1667581575338757600,4.015757568359375,39.57289123535156,-1.535308837890625,71.51611328125
1667581575348917500,4.02591748046875,40.073028564453125,-1.5127410888671875,71.26583862304688
1667581575359077400,4.036077392578125,40.171417236328125,-1.7079315185546875,70.949951171875
1667581575369237500,4.046237548828125,40.68403625488281,-2.0139617919921875,70.42486572265625
1667581575379397400,4.0563974609375,40.865325927734375,-2.2150726318359375,70.03875732421875
1667581575389557200,4.06655712890625,41.009918212890625,-2.5990142822265625,69.76992797851562
1667581575399717600,4.076717529296875,41.98048400878906,-2.7307586669921875,69.6678466796875
1667581575409876200,4.086876220703125,41.964019775390625,-2.9580230712890625,69.47216796875
1667581575420036600,4.09703662109375,42.1795654296875,-3.103790283203125,69.40255737304688
1667581575430196500,4.107196533203125,42.223175048828125,-3.17333984375,69.50592041015625
1667581575440355600,4.11735546875,42.44468688964844,-3.095123291015625,69.56092834472656
1667581575450513400,4.127513427734375,42.13716125488281,-2.9720611572265625,69.53521728515625
1667581575460672300,4.13767236328125,42.17108154296875,-3.211273193359375,69.56663513183594
1667581575470830300,4.147830322265625,42.43342590332031,-3.28802490234375,69.69346618652344
1667581575480989400,4.157989501953125,42.361114501953125,-3.3922882080078125,69.53927612304688
1667581575491148500,4.1681484375,42.659637451171875,-3.57073974609375,69.43026733398438
1667581575501306600,4.178306640625,42.74952697753906,-3.870880126953125,69.60246276855469
1667581575511465500,4.188465576171875,42.71466064453125,-4.3119964599609375,69.59025573730469
1667581575521625600,4.19862548828125,42.82440185546875,-4.5637359619140625,69.58393859863281
1667581575531784400,4.208784423828125,42.869232177734375,-4.8005218505859375,69.89358520507812
1667581575541943600,4.218943603515625,43.08168029785156,-5.0983734130859375,69.99354553222656
1667581575552103400,4.229103515625,43.24784851074219,-5.215362548828125,70.03544616699219
1667581575562262500,4.239262451171875,43.204010009765625,-5.5987701416015625,70.26112365722656
1667581575572422400,4.24942236328125,42.993682861328125,-5.389404296875,70.38005065917969
1667581575582582500,4.25958251953125,42.862396240234375,-5.6804351806640625,70.72288513183594
1667581575592742400,4.269742431640625,42.87037658691406,-5.7321624755859375,70.74099731445312
1667581575602903300,4.2799033203125,43.00189208984375,-5.6648712158203125,70.72100830078125
1667581575613062400,4.2900625,42.72747802734375,-5.757171630859375,70.79209899902344
1667581575623222300,4.30022216796875,42.908477783203125,-5.8466644287109375,70.75033569335938
1667581575633381400,4.31038134765625,42.62431335449219,-5.7817230224609375,70.37373352050781
1667581575643541500,4.32054150390625,42.52418518066406,-5.5968475341796875,70.2623291015625
1667581575653700400,4.330700439453125,42.70318603515625,-5.87225341796875,70.30072021484375
1667581575663860500,4.340860595703125,42.8421630859375,-5.661712646484375,70.26686096191406
1667581575674018300,4.351018310546875,42.97154235839844,-5.59149169921875,70.42599487304688
1667581575684177400,4.361177490234375,42.739013671875,-5.59515380859375,70.32925415039062
1667581575694336500,4.37133642578125,43.031158447265625,-5.585052490234375,70.39094543457031
1667581575704496400,4.381496337890625,43.224884033203125,-5.7241973876953125,70.11662292480469
1667581575714655500,4.391655517578125,43.572052001953125,-5.680511474609375,70.03913879394531
1667581575724815400,4.4018154296875,43.73551940917969,-5.8108673095703125,69.80601501464844
1667581575734973400,4.411973388671875,43.63140869140625,-5.4808502197265625,69.61048889160156
1667581575745132500,4.422132568359375,44.09324645996094,-5.6209564208984375,69.47126770019531
1667581575755291400,4.43229150390625,44.231292724609375,-5.6612396240234375,69.19888305664062
1667581575765450500,4.442450439453125,44.71238708496094,-5.9664459228515625,68.99134826660156
1667581575775609300,4.452609375,44.94093322753906,-6.099609375,69.01046752929688
1667581575785768200,4.462768310546875,45.39300537109375,-6.247283935546875,68.81178283691406
1667581575795927300,4.47292724609375,45.760498046875,-6.4791717529296875,68.71966552734375
1667581575806086400,4.48308642578125,46.095611572265625,-6.43487548828125,68.3603515625
1667581575816245200,4.493245361328125,46.5445556640625,-6.72454833984375,68.073486328125
1667581575826404400,4.503404296875,47.4647216796875,-6.62908935546875,67.52252197265625
1667581575836563200,4.513563232421875,48.22959899902344,-6.981048583984375,67.33787536621094
1667581575846723300,4.523723388671875,48.89892578125,-7.029052734375,66.85774230957031
1667581575856883200,4.53388330078125,49.162139892578125,-7.008575439453125,66.45608520507812
1667581575867043300,4.544043212890625,49.416839599609375,-6.8930511474609375,66.28945922851562
1667581575877203200,4.554203125,49.93377685546875,-6.895263671875,66.00314331054688
1667581575887363000,4.564363037109375,50.28932189941406,-6.868927001953125,65.71469116210938
1667581575897522200,4.574522216796875,50.628662109375,-7.0859375,65.75991821289062
1667581575907683000,4.58468310546875,51.044708251953125,-7.2259979248046875,65.39576721191406
1667581575917843200,4.59484326171875,51.54261779785156,-7.5323333740234375,65.30764770507812
1667581575928003300,4.60500341796875,51.796539306640625,-7.7416229248046875,65.23944091796875
1667581575938162400,4.615162353515625,52.010589599609375,-8.046920776367188,65.31451416015625
1667581575948322300,4.625322265625,52.07952880859375,-7.9411163330078125,65.31654357910156
1667581575958481400,4.6354814453125,51.66682434082031,-7.942291259765625,65.43482971191406
1667581575968641300,4.645641357421875,51.6639404296875,-8.202911376953125,65.95741271972656
1667581575978800400,4.65580029296875,51.2298583984375,-8.3878173828125,66.23214721679688
1667581575988960300,4.665960205078125,51.15013122558594,-8.843643188476562,66.67649841308594
1667581575999119400,4.676119384765625,51.16453552246094,-9.156265258789062,67.10684204101562
1667581576009279200,4.686279296875,51.08689880371094,-9.4041748046875,67.29878234863281
1667581576019439000,4.696439208984375,50.94685363769531,-10.085830688476562,67.58740234375
1667581576029598200,4.70659814453125,51.30790710449219,-10.320358276367188,68.06455993652344
1667581576039757300,4.71675732421875,51.535888671875,-11.015884399414062,68.40130615234375
1667581576049916200,4.726916259765625,51.623565673828125,-11.3421630859375,68.51895141601562
1667581576060075300,4.7370751953125,52.034149169921875,-11.41552734375,68.58238220214844
1667581576070235100,4.747235107421875,51.95310974121094,-11.7977294921875,68.79232788085938
1667581576080394200,4.757394287109375,52.170684814453125,-12.077957153320312,69.05345153808594
1667581576090553300,4.76755322265625,52.41291809082031,-12.738998413085938,69.19235229492188
1667581576100711200,4.777711181640625,52.8369140625,-12.920883178710938,69.37054443359375
1667581576110870000,4.7878701171875,53.090362548828125,-13.188034057617188,69.27665710449219
1667581576121029000,4.798029052734375,53.62652587890625,-13.5609130859375,69.47808837890625
1667581576131188200,4.808188232421875,53.49256896972656,-13.824447631835938,69.30419921875
1667581576141347000,4.81834716796875,53.67303466796875,-13.978973388671875,69.14463806152344
1667581576151507200,4.828507080078125,54.20600891113281,-13.926254272460938,69.23774719238281
1667581576161666000,4.838666015625,54.017913818359375,-14.142196655273438,69.08134460449219
1667581576171824000,4.84882421875,54.4810791015625,-14.231658935546875,69.11346435546875
1667581576181982200,4.858982177734375,54.42449951171875,-14.360687255859375,69.07347106933594
1667581576192141300,4.869141357421875,54.50669860839844,-14.493515014648438,69.18402099609375
1667581576202299100,4.879299072265625,54.47056579589844,-14.4197998046875,68.98519897460938
1667581576212457200,4.889457275390625,54.782623291015625,-14.44671630859375,68.84709167480469
1667581576222615300,4.899615234375,54.80889892578125,-14.32330322265625,68.51652526855469
1667581576232774100,4.909774169921875,55.07545471191406,-14.374786376953125,68.62724304199219
1667581576242934300,4.919934326171875,54.83148193359375,-14.301895141601562,68.57379150390625
1667581576253093000,4.930093017578125,54.88348388671875,-14.186965942382812,68.03187561035156
1667581576263252200,4.940252197265625,54.97380065917969,-14.343597412109375,68.14768981933594
1667581576273410300,4.950410400390625,54.90495300292969,-14.238189697265625,67.9893798828125
1667581576283569200,4.960569091796875,55.24705505371094,-14.203887939453125,67.90748596191406
1667581576293728000,4.97072802734375,55.19126892089844,-14.314987182617188,67.62763977050781
1667581576303886000,4.980885986328125,55.450439453125,-14.257431030273438,67.5679931640625
1667581576314045200,4.991045166015625,55.24397277832031,-14.1741943359375,67.42572021484375
1667581576324203300,5.001203369140625,55.52653503417969,-14.356124877929688,67.068115234375
1667581576334362400,5.0113623046875,56.11814880371094,-14.254730224609375,67.14666748046875
1667581576344520400,5.0215205078125,56.02467346191406,-14.24859619140625,66.94522094726562
1667581576354678300,5.03167822265625,56.282073974609375,-14.207107543945312,66.75971984863281
1667581576364837000,5.041837158203125,56.067474365234375,-14.383758544921875,66.60870361328125
1667581576374995200,5.0519951171875,56.59443664550781,-14.308837890625,66.54023742675781
1667581576385153300,5.0621533203125,55.96247863769531,-14.496932983398438,66.64732360839844
1667581576395311000,5.07231103515625,56.18617248535156,-14.413772583007812,66.64801025390625
1667581576405468200,5.08246826171875,55.81597900390625,-14.370529174804688,67.05613708496094
1667581576415626200,5.092626220703125,55.697357177734375,-14.609390258789062,66.9459228515625
1667581576425784000,5.1027841796875,55.458587646484375,-14.7471923828125,67.34434509277344
1667581576435941000,5.112941162109375,55.1466064453125,-14.7056884765625,67.50196838378906
1667581576446099200,5.12309912109375,54.89410400390625,-14.878616333007812,67.65011596679688
1667581576456257000,5.133257080078125,54.702117919921875,-15.003326416015625,67.63822937011719
1667581576466414300,5.143414306640625,54.76976013183594,-15.092315673828125,67.64805603027344
1667581576476572200,5.153572265625,54.87727355957031,-15.16571044921875,67.66279602050781
1667581576486729200,5.163729248046875,55.20124816894531,-14.843856811523438,67.54060363769531
1667581576496887300,5.17388720703125,55.09086608886719,-15.279266357421875,67.61747741699219
1667581576507044400,5.18404443359375,55.14906311035156,-15.383895874023438,67.79010009765625
1667581576517202200,5.1942021484375,55.084014892578125,-15.227874755859375,67.68923950195312
1667581576527360300,5.2043603515625,54.71434020996094,-15.252029418945312,67.90048217773438
1667581576537517300,5.214517333984375,54.757781982421875,-15.237014770507812,68.21913146972656
1667581576547675100,5.224675048828125,54.164581298828125,-15.529495239257812,68.46115112304688
1667581576557832200,5.234832275390625,53.776397705078125,-15.783309936523438,68.80581665039062
1667581576567990300,5.244990234375,53.40165710449219,-15.6041259765625,69.30003356933594
1667581576578148000,5.255148193359375,53.055145263671875,-15.596954345703125,69.38352966308594
1667581576588305200,5.26530517578125,52.88212585449219,-15.800628662109375,69.71646118164062
1667581576598462200,5.275462158203125,52.590789794921875,-16.04852294921875,70.01509094238281
1667581576608620300,5.285620361328125,52.69000244140625,-15.839569091796875,69.98207092285156
1667581576618778000,5.295778076171875,52.844635009765625,-16.021484375,70.2220458984375
1667581576628935200,5.30593505859375,52.568084716796875,-16.09283447265625,70.35995483398438
1667581576639093200,5.31609326171875,52.45326232910156,-16.2095947265625,70.560302734375
1667581576649251300,5.326251220703125,52.03582763671875,-16.292098999023438,70.81315612792969
1667581576659409400,5.336409423828125,51.43910217285156,-16.103561401367188,70.758056640625
1667581576669566200,5.346566162109375,51.44248962402344,-16.09149169921875,70.93812561035156
1667581576679724300,5.356724365234375,51.272491455078125,-15.6650390625,71.19821166992188
1667581576689883100,5.366883056640625,50.79203796386719,-15.562393188476562,71.13926696777344
1667581576700040200,5.377040283203125,50.76837158203125,-15.413070678710938,71.22062683105469
1667581576710198300,5.3871982421875,51.089080810546875,-15.290237426757812,71.15933227539062
1667581576720356400,5.3973564453125,50.82896423339844,-15.13116455078125,71.03208923339844
1667581576730514200,5.40751416015625,50.722747802734375,-15.004119873046875,70.91944885253906
1667581576740672000,5.417672119140625,50.918914794921875,-14.794326782226562,70.74320983886719
1667581576750829300,5.427829345703125,51.09861755371094,-14.713226318359375,70.66230773925781
1667581576760987400,5.4379873046875,50.9034423828125,-14.62451171875,70.52980041503906
1667581576771145000,5.44814501953125,51.010223388671875,-14.495315551757812,70.48248291015625
1667581576781303000,5.458302978515625,51.10438537597656,-14.284805297851562,70.2803955078125
1667581576791460900,5.4684609375,51.22969055175781,-14.057571411132812,69.96977233886719
1667581576801618700,5.47861865234375,51.124176025390625,-13.743484497070312,69.70852661132812
1667581576811776000,5.48877587890625,51.4407958984375,-13.555084228515625,69.79118347167969
1667581576821934000,5.49893408203125,51.31690979003906,-13.613067626953125,69.73274230957031
1667581576832092000,5.509091796875,51.16375732421875,-13.447250366210938,69.86917114257812
1667581576842250800,5.519250732421875,50.95465087890625,-13.359893798828125,69.911865234375
1667581576852408800,5.529408935546875,50.6854248046875,-13.025588989257812,69.85765075683594
1667581576862567000,5.53956689453125,50.40582275390625,-13.035537719726562,70.12840270996094
1667581576872724700,5.549724853515625,50.28773498535156,-12.899734497070312,70.22212219238281
1667581576882881800,5.5598818359375,49.812347412109375,-12.577117919921875,70.40495300292969
1667581576893039900,5.570039794921875,49.54566955566406,-12.534393310546875,70.59834289550781
1667581576903197700,5.58019775390625,49.236602783203125,-12.40313720703125,70.85643005371094
1667581576913355800,5.590355712890625,49.166748046875,-12.397445678710938,71.13395690917969
1667581576923512800,5.600512939453125,48.82524108886719,-12.18170166015625,71.11351013183594
1667581576933672000,5.610671875,48.87956237792969,-12.222396850585938,71.17120361328125
1667581576943829800,5.620829833984375,48.80230712890625,-11.981689453125,71.08689880371094
1667581576953988900,5.63098876953125,48.66838073730469,-11.922805786132812,71.00761413574219
1667581576964147700,5.641147705078125,49.02394104003906,-12.0167236328125,70.95500183105469
1667581576974305000,5.651304931640625,49.21476745605469,-11.967437744140625,71.05815124511719
1667581576984463000,5.661463134765625,49.33638000488281,-12.154647827148438,71.10691833496094
1667581576994621000,5.671620849609375,49.39411926269531,-12.152053833007812,71.10115051269531
1667581577004779800,5.68177978515625,49.4837646484375,-12.249191284179688,71.14018249511719
1667581577014937900,5.691937744140625,49.488311767578125,-12.436126708984375,71.23179626464844
1667581577025097000,5.702096923828125,49.621307373046875,-12.498794555664062,71.31834411621094
1667581577035255800,5.712255859375,49.87907409667969,-12.670211791992188,71.54518127441406
1667581577045412900,5.722412841796875,49.87123107910156,-12.572280883789062,71.39262390136719
1667581577055571000,5.732571044921875,49.73883056640625,-12.554672241210938,71.77955627441406
1667581577065728000,5.74272802734375,49.512359619140625,-12.743408203125,71.92671203613281
1667581577075886800,5.752886962890625,49.65309143066406,-12.821533203125,72.01737976074219
1667581577086044700,5.763044677734375,49.34698486328125,-12.87628173828125,72.16326904296875
1667581577096203800,5.773203857421875,49.31990051269531,-12.639724731445312,72.09004211425781
1667581577106363000,5.78336279296875,49.26533508300781,-12.62554931640625,72.28564453125
1667581577116521700,5.793521728515625,49.04902648925781,-12.808135986328125,72.1514892578125
1667581577126679800,5.8036796875,49.1531982421875,-12.662826538085938,72.05105590820312
1667581577136840000,5.81383984375,49.46470642089844,-12.5543212890625,71.997314453125
1667581577146998000,5.823998046875,49.447021484375,-12.514129638671875,71.90119934082031
1667581577157156000,5.834156005859375,49.42771911621094,-12.405746459960938,71.68159484863281
1667581577167314000,5.84431396484375,49.54560852050781,-12.4375,71.78242492675781
1667581577177472000,5.854471923828125,49.60539245605469,-12.189102172851562,71.60551452636719
1667581577187629800,5.8646298828125,49.562042236328125,-12.403579711914062,71.59712219238281
1667581577197787600,5.87478759765625,49.82649230957031,-12.391860961914062,71.40345764160156
1667581577207945700,5.88494580078125,49.855621337890625,-12.192214965820312,71.47837829589844
1667581577218103800,5.895103759765625,49.66532897949219,-12.1641845703125,71.42193603515625
1667581577228262000,5.905261962890625,49.58935546875,-12.021331787109375,71.37509155273438
1667581577238419700,5.915419677734375,49.4757080078125,-11.9774169921875,71.2073974609375
1667581577248576800,5.92557666015625,49.61854553222656,-12.117843627929688,71.21574401855469
1667581577258734800,5.93573486328125,50.02345275878906,-11.759719848632812,70.88182067871094
1667581577268892700,5.945892578125,50.26664733886719,-11.789627075195312,70.84346008300781
1667581577279051800,5.9560517578125,50.16917419433594,-11.986526489257812,70.89515686035156
1667581577289209900,5.9662099609375,50.084991455078125,-11.889938354492188,70.87681579589844
1667581577299368000,5.976367919921875,49.95875549316406,-11.725067138671875,70.64152526855469
1667581577309527000,5.986527099609375,50.09498596191406,-11.84783935546875,70.78488159179688
1667581577319686000,5.996685791015625,50.19354248046875,-11.735870361328125,70.71632385253906
1667581577329842700,6.0068427734375,49.91072082519531,-11.690582275390625,70.65266418457031
1667581577340001800,6.017001708984375,49.89115905761719,-11.422698974609375,70.671142578125
1667581577350160000,6.027159912109375,49.63880920410156,-11.6356201171875,70.65519714355469
1667581577360318000,6.03731787109375,49.611602783203125,-11.560867309570312,70.75234985351562
1667581577370477800,6.047477783203125,49.481781005859375,-11.421539306640625,70.655029296875
1667581577380637000,6.057636962890625,49.44404602050781,-11.533065795898438,70.80992126464844
1667581577390795000,6.067794921875,49.23072814941406,-11.322738647460938,70.80714416503906
1667581577400953900,6.077953857421875,49.63214111328125,-11.271514892578125,70.777099609375
1667581577411112000,6.08811181640625,49.305938720703125,-10.978225708007812,70.70135498046875
1667581577421270800,6.098270751953125,49.304443359375,-11.20556640625,70.7181396484375
1667581577431430000,6.108429931640625,49.217498779296875,-11.201126098632812,70.67732238769531
1667581577441588000,6.118587890625,49.42665100097656,-11.075942993164062,70.67469787597656
1667581577451746800,6.128746826171875,49.21820068359375,-11.151092529296875,70.71391296386719
1667581577461906000,6.138906005859375,49.16517639160156,-10.948196411132812,70.55854797363281
1667581577472065000,6.14906494140625,49.0177001953125,-10.995712280273438,70.48248291015625
1667581577482223900,6.159223876953125,48.824737548828125,-10.69036865234375,70.65731811523438
1667581577492382700,6.1693828125,48.77861022949219,-10.680999755859375,70.58586120605469
1667581577502541800,6.179541748046875,48.92437744140625,-10.814849853515625,70.61708068847656
1667581577512700000,6.189699951171875,48.63726806640625,-10.488861083984375,70.58163452148438
1667581577522858800,6.199858642578125,48.58418273925781,-10.656036376953125,70.71327209472656
1667581577533016800,6.210016845703125,48.3912353515625,-10.440521240234375,70.42344665527344
1667581577543175000,6.2201748046875,48.554840087890625,-10.579010009765625,70.63426208496094
1667581577553332700,6.230332763671875,48.32759094238281,-10.444259643554688,70.47355651855469
1667581577563491800,6.240491943359375,48.6290283203125,-10.4493408203125,70.498779296875
1667581577573651000,6.25065087890625,48.505584716796875,-10.349075317382812,70.52969360351562
1667581577583809000,6.26080908203125,48.747711181640625,-10.489028930664062,70.48095703125
1667581577593967900,6.2709677734375,48.75025939941406,-10.573455810546875,70.1920166015625
1667581577604127000,6.281126953125,48.72636413574219,-10.615615844726562,70.39085388183594
1667581577614285000,6.29128515625,48.79766845703125,-10.6378173828125,70.15351867675781
1667581577624443600,6.301443603515625,48.78173828125,-10.829086303710938,70.23518371582031
1667581577634602800,6.311602783203125,49.17079162597656,-10.934738159179688,70.25436401367188
1667581577644760800,6.3217607421875,49.35255432128906,-11.053756713867188,70.26150512695312
1667581577654919000,6.3319189453125,49.43585205078125,-11.253097534179688,70.23663330078125
1667581577665078000,6.342078125,49.619720458984375,-11.463272094726562,70.20887756347656
1667581577675236900,6.35223681640625,50.00498962402344,-11.579421997070312,70.03260803222656
1667581577685394700,6.362394775390625,50.160125732421875,-11.500717163085938,69.85354614257812
1667581577695553800,6.3725537109375,50.15679931640625,-11.706329345703125,70.00930786132812
1667581577705711900,6.3827119140625,50.386077880859375,-11.72637939453125,70.06402587890625
1667581577715871000,6.39287109375,50.07989501953125,-11.926727294921875,70.05274963378906
1667581577726029800,6.40302978515625,50.133148193359375,-12.082275390625,70.40583801269531
1667581577736189000,6.41318896484375,50.07130432128906,-11.938613891601562,70.18507385253906
1667581577746347000,6.423346923828125,50.28742980957031,-12.195175170898438,70.50758361816406
1667581577756504800,6.4335048828125,50.21147155761719,-12.116561889648438,70.49765014648438
1667581577766665000,6.4436650390625,50.13531494140625,-12.320053100585938,70.75921630859375
1667581577776822800,6.45382275390625,49.85528564453125,-12.288497924804688,70.41215515136719
1667581577786982000,6.46398193359375,50.16142272949219,-12.351760864257812,70.42829895019531
1667581577797139700,6.4741396484375,49.96046447753906,-12.375457763671875,70.34454345703125
1667581577807298600,6.484298583984375,49.881622314453125,-12.246749877929688,70.35464477539062
1667581577817456600,6.49445654296875,49.949920654296875,-12.254348754882812,70.34730529785156
1667581577827614700,6.50461474609375,48.96504211425781,-11.528350830078125,70.6357421875
1667581577837773800,6.51477392578125,49.29631042480469,-12.211669921875,70.44711303710938
1667581577847933000,6.524932861328125,49.0274658203125,-12.039718627929688,70.33241271972656
1667581577858091800,6.535091796875,48.863037109375,-12.075668334960938,70.374267578125
1667581577868249600,6.54524951171875,48.6126708984375,-12.089599609375,70.385986328125
1667581577878407700,6.55540771484375,48.90040588378906,-11.898025512695312,70.36245727539062
1667581577888564700,6.565564697265625,48.46539306640625,-11.97698974609375,70.31434631347656
1667581577898721800,6.5757216796875,49.2335205078125,-12.1021728515625,70.27511596679688
1667581577908880000,6.5858798828125,48.60234069824219,-12.01568603515625,70.12692260742188
1667581577919037000,6.596036865234375,48.963897705078125,-12.052902221679688,70.07200622558594
1667581577929195500,6.606195556640625,49.11326599121094,-12.115814208984375,69.91453552246094
1667581577939353600,6.616353515625,49.32550048828125,-11.92791748046875,69.86378479003906
1667581577949511700,6.62651171875,49.13493347167969,-12.062667846679688,69.79872131347656
1667581577959669800,6.636669677734375,49.27655029296875,-12.410720825195312,69.76715087890625
1667581577969826800,6.646826904296875,49.416351318359375,-12.319992065429688,69.49034118652344
1667581577979984000,6.65698388671875,49.431396484375,-12.514984130859375,69.44248962402344
1667581577990142000,6.667141845703125,49.4547119140625,-12.354171752929688,69.30677795410156
1667581578000299800,6.6772998046875,49.788848876953125,-12.360275268554688,69.08583068847656
1667581578010457900,6.687457763671875,49.74052429199219,-12.363525390625,69.22763061523438
1667581578020616000,6.697615966796875,49.679901123046875,-12.542800903320312,69.22454833984375
1667581578030773800,6.707773681640625,49.60136413574219,-12.493026733398438,69.13697814941406
1667581578040931600,6.717931640625,49.09120178222656,-12.41839599609375,69.20901489257812
1667581578051089700,6.728089599609375,48.815185546875,-12.511444091796875,69.45115661621094
1667581578061248800,6.738248779296875,48.58563232421875,-12.701370239257812,69.69256591796875
1667581578071406800,6.74840673828125,48.36177062988281,-12.689971923828125,69.93580627441406
1667581578081564700,6.758564697265625,48.17735290527344,-12.744949340820312,69.73114013671875
1667581578091722800,6.76872265625,48.01261901855469,-12.699264526367188,69.88307189941406
1667581578101880800,6.778880859375,48.52012634277344,-12.700408935546875,69.89028930664062
1667581578112039000,6.789038818359375,48.601287841796875,-12.729888916015625,69.71517944335938
1667581578122195700,6.79919580078125,48.57261657714844,-12.745574951171875,69.68759155273438
1667581578132353800,6.809353759765625,48.4908447265625,-12.75030517578125,69.68003845214844
1667581578142510600,6.819510498046875,48.84400939941406,-12.8009033203125,69.84147644042969
1667581578152668700,6.829668701171875,48.489898681640625,-12.867889404296875,70.02006530761719
1667581578162826800,6.83982666015625,48.735382080078125,-12.88702392578125,70.32290649414062
1667581578172983600,6.849983642578125,48.22187805175781,-12.782272338867188,70.38020324707031
1667581578183140900,6.860140869140625,47.68006896972656,-12.857376098632812,70.58522033691406
1667581578193299000,6.870298828125,47.74493408203125,-12.732742309570312,70.84336853027344
1667581578203456800,6.880456787109375,47.35060119628906,-12.684814453125,71.028564453125
1667581578213614600,6.890614501953125,46.58650207519531,-12.459182739257812,71.24290466308594
1667581578223772700,6.900772705078125,46.61474609375,-12.22833251953125,71.26612854003906
1667581578233930800,6.9109306640625,46.32716369628906,-12.250137329101562,71.32489013671875
1667581578244087800,6.921087890625,46.14704895019531,-12.19854736328125,71.33290100097656
1667581578254245600,6.93124560546875,46.31614685058594,-12.022979736328125,71.34567260742188
1667581578264403000,6.94140283203125,46.30876159667969,-11.869827270507812,71.1514892578125
1667581578274560800,6.951560791015625,46.24028015136719,-11.829833984375,71.31878662109375
1667581578284718800,6.96171875,46.46282958984375,-11.701370239257812,71.14558410644531
1667581578294877000,6.971876953125,46.374298095703125,-11.481948852539062,71.32609558105469
1667581578305033700,6.98203369140625,46.40283203125,-11.68280029296875,71.28599548339844
1667581578315191800,6.99219189453125,46.0758056640625,-11.604034423828125,71.46965026855469
1667581578325350000,7.002349853515625,45.88475036621094,-11.4462890625,71.55081176757812
1667581578335508000,7.012508056640625,45.93168640136719,-11.281982421875,71.64599609375
1667581578345665800,7.022665771484375,46.102783203125,-11.527664184570312,71.89865112304688
1667581578355823900,7.032823974609375,46.281158447265625,-11.480361938476562,71.857666015625
1667581578365982700,7.042982666015625,46.00396728515625,-11.4930419921875,71.74435424804688
1667581578376140800,7.053140869140625,46.271148681640625,-11.31219482421875,71.77146911621094
1667581578386300000,7.0632998046875,45.97840881347656,-11.25909423828125,71.75099182128906
1667581578396456700,7.073456787109375,46.34992980957031,-11.214553833007812,71.6392822265625
1667581578406615800,7.08361572265625,46.38311767578125,-11.124832153320312,71.28231811523438
1667581578416775700,7.093775634765625,46.90132141113281,-11.103713989257812,71.23207092285156
1667581578426934800,7.103934814453125,47.18798828125,-11.27484130859375,71.142578125
1667581578437092900,7.1140927734375,46.92732238769531,-11.204833984375,71.20462036132812
1667581578447251700,7.124251708984375,47.4371337890625,-10.990264892578125,71.01603698730469
1667581578457409800,7.134409912109375,47.41680908203125,-10.983795166015625,70.89295959472656
1667581578467569000,7.14456884765625,47.197784423828125,-10.9599609375,70.84303283691406
1667581578477726700,7.154726806640625,47.30870056152344,-10.822357177734375,70.811767578125
1667581578487884800,7.164884765625,47.184234619140625,-10.701080322265625,71.17799377441406
1667581578498043000,7.17504296875,47.08074951171875,-10.601791381835938,71.24690246582031
1667581578508200700,7.18520068359375,46.903656005859375,-10.513702392578125,71.34207153320312
1667581578518359600,7.195359619140625,46.7391357421875,-10.639572143554688,71.4766845703125
1667581578528517600,7.205517578125,46.970916748046875,-10.8017578125,71.64288330078125
1667581578538675700,7.21567578125,47.144012451171875,-10.674026489257812,71.5029296875
1667581578548833800,7.225833740234375,47.380401611328125,-10.644638061523438,71.40866088867188
1667581578558991600,7.23599169921875,47.73109436035156,-10.666534423828125,71.02326965332031
1667581578569150700,7.246150634765625,47.86262512207031,-10.583206176757812,70.85235595703125
1667581578579308800,7.256308837890625,48.075408935546875,-10.771896362304688,71.0936279296875
1667581578589467000,7.266466796875,48.14390563964844,-10.673309326171875,70.84593200683594
1667581578599625000,7.276625,48.16032409667969,-10.663131713867188,71.15402221679688
1667581578609782800,7.28678271484375,48.1712646484375,-10.531723022460938,70.91705322265625
1667581578619941600,7.296941650390625,48.09220886230469,-10.518157958984375,70.97744750976562
1667581578630099700,7.307099609375,48.20100402832031,-10.52923583984375,71.03260803222656
1667581578640257800,7.3172578125,48.09986877441406,-10.313674926757812,70.93678283691406
1667581578650417000,7.3274169921875,48.27783203125,-10.4473876953125,70.99392700195312
1667581578660574700,7.33757470703125,48.472442626953125,-10.459701538085938,71.04450988769531
1667581578670731800,7.347731689453125,48.53077697753906,-10.673721313476562,71.09779357910156
1667581578680889900,7.357889892578125,48.65364074707031,-10.6524658203125,70.95416259765625
1667581578691047700,7.368047607421875,49.02850341796875,-10.643569946289062,70.8001708984375
1667581578701205800,7.378205810546875,49.17164611816406,-10.877151489257812,70.75004577636719
1667581578711363800,7.38836376953125,49.39396667480469,-10.910293579101562,70.71513366699219
1667581578721522700,7.398522705078125,49.72892761230469,-11.0665283203125,70.58837890625
1667581578731679700,7.4086796875,50.14666748046875,-11.434158325195312,70.66896057128906
1667581578741837800,7.418837890625,50.34918212890625,-11.625350952148438,70.73562622070312
1667581578751996700,7.42899658203125,50.34065246582031,-11.694778442382812,70.76043701171875
1667581578762154000,7.439154052734375,50.28131103515625,-11.644210815429688,70.80216979980469
1667581578772312300,7.449312255859375,50.44329833984375,-11.765548706054688,70.99848937988281
1667581578782470400,7.459470458984375,50.58067321777344,-11.985198974609375,71.13670349121094
1667581578792630500,7.469630615234375,50.58650207519531,-12.100509643554688,71.31483459472656
1667581578802788600,7.47978857421875,50.44285583496094,-12.305023193359375,71.39543151855469
1667581578812946400,7.489946533203125,50.65742492675781,-12.340057373046875,71.49798583984375
1667581578823105500,7.50010546875,50.87957763671875,-12.545974731445312,71.33399963378906
1667581578833263400,7.510263427734375,51.29380798339844,-12.639251708984375,71.43922424316406
1667581578843421400,7.52042138671875,51.66807556152344,-12.89849853515625,71.30598449707031
1667581578853581300,7.530581298828125,51.94117736816406,-13.131866455078125,71.37294006347656
1667581578863740400,7.540740478515625,52.37675476074219,-13.103546142578125,71.30909729003906
1667581578873898500,7.5508984375,52.60731506347656,-13.196319580078125,71.12678527832031
1667581578884057600,7.5610576171875,52.89820861816406,-13.127731323242188,71.16627502441406
1667581578894215400,7.57121533203125,52.97648620605469,-13.312667846679688,71.30386352539062
1667581578904373500,7.58137353515625,52.91462707519531,-13.512115478515625,71.18745422363281
1667581578914531600,7.591531494140625,53.1260986328125,-13.392623901367188,71.21432495117188
1667581578924690400,7.6016904296875,53.157684326171875,-13.500076293945312,71.30853271484375
1667581578934848500,7.6118486328125,53.2054443359375,-13.470489501953125,71.28985595703125
1667581578945006300,7.62200634765625,53.30220031738281,-13.251312255859375,71.19749450683594
1667581578955164400,7.632164306640625,53.3616943359375,-13.14306640625,71.06338500976562
1667581578965323500,7.642323486328125,53.17161560058594,-13.12646484375,71.05801391601562
1667581578975481600,7.652481689453125,53.18241882324219,-13.212722778320312,70.88882446289062
1667581578985639700,7.6626396484375,53.122894287109375,-13.043563842773438,70.89079284667969
1667581578995797500,7.672797607421875,53.11865234375,-13.003128051757812,70.73828125
1667581579005956400,7.682956298828125,53.20942687988281,-12.82086181640625,70.72637939453125
1667581579016114400,7.693114501953125,53.51130676269531,-12.626846313476562,70.40057373046875
1667581579026273500,7.7032734375,53.80186462402344,-12.424560546875,70.13227844238281
1667581579036431600,7.713431640625,53.60008239746094,-12.409072875976562,69.92539978027344
1667581579046589400,7.72358935546875,53.881500244140625,-12.086044311523438,69.52851867675781
1667581579056748300,7.733748291015625,53.76622009277344,-11.986160278320312,69.54563903808594
1667581579066906400,7.74390625,53.758636474609375,-11.606613159179688,69.06343078613281
1667581579077065500,7.7540654296875,53.46488952636719,-11.547409057617188,69.162109375
1667581579087224600,7.764224609375,53.1826171875,-11.333953857421875,69.10124206542969
1667581579097382700,7.774382568359375,52.99018859863281,-11.096771240234375,68.85581970214844
1667581579107540500,7.78454052734375,52.85585021972656,-10.772979736328125,68.9051513671875
1667581579117699300,7.79469921875,52.9354248046875,-10.508132934570312,68.55293273925781
1667581579127858400,7.8048583984375,52.77180480957031,-10.359603881835938,68.57319641113281
1667581579138016500,7.8150166015625,52.61058044433594,-10.266067504882812,68.45419311523438
1667581579148176400,7.82517626953125,52.58232116699219,-10.19244384765625,68.32125854492188
1667581579158335500,7.83533544921875,52.36958312988281,-9.958602905273438,68.28712463378906
1667581579168493600,7.84549365234375,52.28306579589844,-9.998687744140625,68.25222778320312
1667581579178651600,7.855651611328125,52.09541320800781,-9.936431884765625,68.14384460449219
1667581579188809500,7.8658095703125,51.996856689453125,-9.801666259765625,68.24797058105469
1667581579198968300,7.87596826171875,51.783599853515625,-9.857009887695312,68.23600769042969
1667581579209126400,7.88612646484375,51.56622314453125,-10.162368774414062,68.58274841308594
1667581579219284500,7.896284423828125,51.17561340332031,-10.214920043945312,68.64590454101562
1667581579229442300,7.9064423828125,51.00511169433594,-10.160064697265625,68.8204345703125
1667581579239600400,7.916600341796875,51.103790283203125,-10.344741821289062,69.01513671875
1667581579249758500,7.926758544921875,51.01457214355469,-10.420318603515625,69.11463928222656
1667581579259915300,7.936915283203125,50.79570007324219,-10.523147583007812,69.16015625
1667581579270073300,7.9470732421875,50.8380126953125,-10.668411254882812,69.29985046386719
1667581579280231400,7.9572314453125,50.7381591796875,-10.636810302734375,69.29814147949219
1667581579290390500,7.967390625,50.66084289550781,-10.872955322265625,69.63186645507812
1667581579300548600,7.977548583984375,50.507568359375,-11.110504150390625,69.77987670898438
1667581579310706400,7.98770654296875,50.59431457519531,-10.737228393554688,69.63818359375
1667581579320864500,7.997864501953125,50.13072204589844,-10.852645874023438,69.83290100097656
1667581579331022600,8.008022705078124,49.819091796875,-11.025100708007812,70.17109680175781
1667581579341179400,8.018179443359376,49.60877990722656,-10.994277954101562,70.32807922363281
1667581579351337500,8.02833740234375,49.6427001953125,-10.86444091796875,70.44053649902344
1667581579361495600,8.03849560546875,49.46299743652344,-10.74853515625,70.27009582519531
1667581579371653600,8.048653564453126,49.38825988769531,-10.7576904296875,70.28718566894531
1667581579381811500,8.0588115234375,49.12629699707031,-10.733657836914062,70.32864379882812
1667581579391968500,8.068968505859376,48.98773193359375,-10.613983154296875,70.32350158691406
1667581579402126600,8.079126708984376,48.66217041015625,-10.59344482421875,70.37002563476562
1667581579412284400,8.089284423828126,48.77024841308594,-10.508071899414062,70.47438049316406
1667581579422442500,8.0994423828125,48.93086242675781,-10.404022216796875,70.4033203125
1667581579432600600,8.1096005859375,49.09104919433594,-10.29620361328125,70.30574035644531
1667581579442758700,8.119758544921876,48.80131530761719,-10.197769165039062,70.09295654296875
1667581579452916500,8.12991650390625,49.07212829589844,-10.220489501953125,70.068603515625
1667581579463073500,8.140073486328125,48.97102355957031,-10.189743041992188,69.97181701660156
1667581579473232400,8.150232421875,49.2166748046875,-10.316497802734375,70.01708984375
1667581579483390500,8.160390380859376,49.37077331542969,-10.470809936523438,69.95175170898438
1667581579493548300,8.17054833984375,49.27569580078125,-10.445785522460938,70.22689819335938
1667581579503706400,8.180706298828126,49.3089599609375,-10.438385009765625,69.95719909667969
1667581579513864400,8.190864501953126,49.241790771484375,-10.657058715820312,70.04753112792969
1667581579524022500,8.2010224609375,49.16053771972656,-10.635452270507812,70.22261047363281
1667581579534181400,8.211181396484376,49.18206787109375,-10.777908325195312,70.29931640625
1667581579544339500,8.22133935546875,48.990234375,-11.019073486328125,70.45703125
1667581579554498600,8.23149853515625,49.14179992675781,-10.938323974609375,70.50888061523438
1667581579564657400,8.241657470703124,48.97624206542969,-11.118240356445312,70.8031005859375
1667581579574815500,8.2518154296875,48.99403381347656,-11.330078125,70.82421875
1667581579584973600,8.2619736328125,48.71763610839844,-11.23834228515625,71.02822875976562
1667581579595131400,8.27213134765625,48.57475280761719,-11.51837158203125,71.15969848632812
1667581579605290500,8.28229052734375,48.245025634765625,-11.5963134765625,71.47425842285156
1667581579615448600,8.292448486328125,48.25495910644531,-11.578857421875,71.62721252441406
1667581579625606700,8.302606689453125,47.965087890625,-11.683364868164062,71.99537658691406
1667581579635765500,8.312765625,47.66639709472656,-11.747360229492188,72.32270812988281
1667581579645923300,8.32292333984375,47.85432434082031,-12.009429931640625,72.59529113769531
1667581579656082400,8.33308251953125,47.44111633300781,-11.850601196289062,72.77592468261719
1667581579666241300,8.3432412109375,47.36225891113281,-11.81732177734375,72.77604675292969
1667581579676399400,8.3533994140625,47.08172607421875,-11.735321044921875,72.97126770019531
1667581579686558500,8.363558349609375,46.89616394042969,-11.7774658203125,73.23068237304688
1667581579696717600,8.373717529296876,46.77716064453125,-11.999282836914062,73.5440673828125
1667581579706876400,8.38387646484375,46.5594482421875,-11.98724365234375,73.47210693359375
1667581579717035500,8.394035400390624,46.37077331542969,-11.822906494140625,73.60517883300781
1667581579727194600,8.404194580078125,46.42247009277344,-11.943939208984375,73.93768310546875
1667581579737352400,8.4143525390625,46.33732604980469,-12.02032470703125,73.94747924804688
1667581579747510500,8.424510498046875,46.138092041015625,-11.743362426757812,74.0089111328125
1667581579757669400,8.43466943359375,45.90187072753906,-11.736709594726562,74.19078063964844
1667581579767827500,8.444827392578125,45.79753112792969,-11.7987060546875,74.42643737792969
1667581579777986000,8.454986083984375,45.610443115234375,-11.882339477539062,74.55992126464844
1667581579788143000,8.46514306640625,45.643951416015625,-11.7591552734375,74.4537353515625
1667581579798301000,8.475301025390625,45.54118347167969,-11.736831665039062,74.36788940429688
1667581579808459000,8.485458984375,45.54205322265625,-11.852493286132812,74.32148742675781
1667581579818617000,8.4956171875,45.83631896972656,-11.802688598632812,74.639892578125
1667581579828775200,8.505775146484375,45.999359130859375,-11.787109375,74.5384521484375
1667581579838934300,8.515934326171875,45.82258605957031,-11.77313232421875,74.67327880859375
1667581579849092000,8.526092041015625,45.65492248535156,-11.908859252929688,74.67161560058594
1667581579859251000,8.5362509765625,45.84312438964844,-11.94512939453125,74.83110046386719
1667581579869408300,8.546408203125,45.95973205566406,-11.924652099609375,74.74983215332031
1667581579879566000,8.556566162109375,45.96659851074219,-11.895004272460938,74.79763793945312
1667581579889724000,8.566723876953125,46.175933837890625,-11.939910888671875,74.90992736816406
1667581579899883000,8.576883056640625,46.16944885253906,-12.034744262695312,74.84039306640625
1667581579910041000,8.587041015625,46.302490234375,-12.037307739257812,74.87290954589844
1667581579920199200,8.59719921875,46.87420654296875,-11.897430419921875,74.69024658203125
1667581579930357000,8.60735693359375,46.42961120605469,-11.92205810546875,74.77706909179688
1667581579940515000,8.61751513671875,47.024200439453125,-12.192352294921875,74.59938049316406
1667581579950673200,8.627673095703125,47.11151123046875,-12.007171630859375,74.4649658203125
1667581579960831200,8.637831298828125,47.43336486816406,-12.055816650390625,74.74937438964844
1667581579970989000,8.647989013671875,47.5302734375,-11.981658935546875,74.68002319335938
1667581579981147100,8.658147216796875,47.450653076171875,-12.060745239257812,74.68888854980469
1667581579991306000,8.668305908203125,47.70556640625,-11.825225830078125,74.67027282714844
1667581580001465000,8.678465087890626,47.62110900878906,-12.1180419921875,74.87469482421875
1667581580011623200,8.688623046875,47.74504089355469,-11.93048095703125,74.87110900878906
1667581580021782300,8.6987822265625,47.27827453613281,-11.90966796875,74.68429565429688
1667581580031941000,8.708941162109374,47.32598876953125,-11.847793579101562,74.92857360839844
1667581580042100200,8.719100341796874,47.12554931640625,-11.701095581054688,75.09053039550781
1667581580052259300,8.72925927734375,47.1639404296875,-11.642379760742188,75.20672607421875
1667581580062418000,8.73941796875,47.28578186035156,-11.589935302734375,75.50764465332031
1667581580072577000,8.749576904296875,46.82926940917969,-11.703842163085938,75.42216491699219
1667581580082736000,8.759736083984375,46.674713134765625,-11.447418212890625,75.29411315917969
1667581580092894000,8.76989404296875,46.75270080566406,-11.36151123046875,75.60061645507812
1667581580103052000,8.780052001953125,46.621368408203125,-11.511398315429688,75.65452575683594
1667581580113210000,8.790210205078125,46.711822509765625,-11.534469604492188,75.63047790527344
1667581580123368000,8.800367919921875,46.8448486328125,-11.486129760742188,75.77098083496094
1667581580133527000,8.810527099609375,46.77720642089844,-11.155685424804688,75.71409606933594
1667581580143685000,8.82068505859375,46.63871765136719,-10.992691040039062,75.6575927734375
1667581580153843200,8.83084326171875,46.64433288574219,-11.060455322265625,75.80630493164062
1667581580164000000,8.841,46.63172912597656,-11.051513671875,75.8194580078125
1667581580174158000,8.851157958984375,46.6094970703125,-10.868377685546875,75.78187561035156
1667581580184316200,8.861316162109375,46.77351379394531,-11.005767822265625,75.82591247558594
1667581580194474000,8.871473876953125,47.017974853515625,-10.802398681640625,75.82752990722656
1667581580204632000,8.881632080078125,47.1014404296875,-10.500732421875,75.75440979003906
1667581580214791200,8.891791259765625,47.144866943359375,-10.5487060546875,75.77516174316406
1667581580224949200,8.90194921875,47.128814697265625,-10.54998779296875,75.77957153320312
1667581580235107000,8.912107177734375,47.13304138183594,-10.330001831054688,75.64132690429688
1667581580245265000,8.922264892578125,47.067230224609375,-10.317230224609375,75.73233032226562
1667581580255423000,8.932423095703125,47.07759094238281,-10.207489013671875,75.94786071777344
1667581580265582000,8.94258203125,46.85560607910156,-10.001815795898438,76.05856323242188
1667581580275740200,8.952740234375,46.671539306640625,-10.137985229492188,76.3021240234375
1667581580285899300,8.962899169921876,46.3338623046875,-10.0616455078125,76.63970947265625
1667581580296058000,8.97305810546875,45.98075866699219,-9.671127319335938,76.72991943359375
1667581580306215200,8.983215087890626,46.051239013671875,-9.753860473632812,76.98907470703125
1667581580316373000,8.993373046875,46.023681640625,-9.538711547851562,76.82174682617188
1667581580326531000,9.003531005859376,46.16535949707031,-9.60809326171875,76.91864013671875
1667581580336689000,9.01368896484375,46.191162109375,-9.646499633789062,76.80653381347656
1667581580346846200,9.02384619140625,46.24835205078125,-9.704452514648438,76.68086242675781
1667581580357004300,9.03400439453125,46.41636657714844,-9.650344848632812,76.51605224609375
1667581580367162000,9.044162109375,46.33598327636719,-9.574188232421875,76.62562561035156
1667581580377320000,9.05431982421875,45.98472595214844,-9.508224487304688,76.62184143066406
1667581580387478000,9.06447802734375,45.56785583496094,-9.304962158203125,76.75840759277344
1667581580397636000,9.074635986328126,45.434722900390625,-9.132843017578125,76.67831420898438
1667581580407794000,9.0847939453125,45.20903015136719,-8.698776245117188,76.78396606445312
1667581580417952000,9.094951904296876,44.716461181640625,-8.75390625,76.98696899414062
1667581580428110000,9.105110107421876,44.74467468261719,-8.501373291015625,77.15599060058594
1667581580438268200,9.11526806640625,44.73899841308594,-8.611831665039062,77.42202758789062
1667581580448427300,9.12542724609375,44.639373779296875,-8.32867431640625,77.38787841796875
1667581580458585000,9.135585205078126,44.769317626953125,-8.425567626953125,77.40138244628906
1667581580468744000,9.145743896484374,44.68170166015625,-8.701141357421875,77.66842651367188
1667581580478902000,9.155902099609374,44.691162109375,-8.64093017578125,77.51438903808594
1667581580489061000,9.16606103515625,44.68934631347656,-8.525497436523438,77.70895385742188
1667581580499219200,9.17621923828125,44.415008544921875,-8.478408813476562,77.94779968261719
1667581580509378300,9.18637841796875,44.18890380859375,-8.468856811523438,77.93997192382812
1667581580519536000,9.1965361328125,43.97502136230469,-8.391403198242188,77.95797729492188
1667581580529694200,9.206694091796875,43.87266540527344,-8.479782104492188,78.08302307128906
1667581580539852000,9.21685205078125,43.76518249511719,-8.275527954101562,78.21690368652344
1667581580550011100,9.22701123046875,43.60905456542969,-8.044677734375,78.41950988769531
1667581580560170200,9.237170166015625,43.10331726074219,-8.042083740234375,78.38796997070312
1667581580570329000,9.2473291015625,42.9569091796875,-7.62554931640625,78.47781372070312
1667581580580487000,9.25748681640625,42.65931701660156,-7.6512298583984375,78.45198059082031
1667581580590645000,9.26764501953125,42.33430480957031,-7.4763946533203125,78.79371643066406
1667581580600804000,9.27780419921875,42.376220703125,-7.2174530029296875,78.75157165527344
1667581580610961200,9.287961181640625,41.926055908203125,-6.928436279296875,78.9056396484375
1667581580621120000,9.2981201171875,41.680908203125,-6.86553955078125,78.81967163085938
1667581580631279000,9.308279052734376,41.40678405761719,-6.6331939697265625,78.73777770996094
1667581580641437000,9.31843701171875,41.12361145019531,-6.4637603759765625,78.64529418945312
1667581580651595000,9.328594970703126,41.07666015625,-6.3875732421875,78.72830200195312
1667581580661753000,9.338753173828126,41.007598876953125,-6.186431884765625,78.52799987792969
1667581580671913200,9.348913330078124,40.74107360839844,-6.152862548828125,78.49383544921875
1667581580682072000,9.359072021484375,40.581939697265625,-5.9348602294921875,78.38754272460938
1667581580692231200,9.369231201171875,40.378631591796875,-5.6473388671875,78.15640258789062
1667581580702390300,9.379390380859375,40.41094970703125,-5.449188232421875,78.1942138671875
1667581580712548000,9.389548095703125,40.249664306640625,-5.5111846923828125,78.14682006835938
1667581580722707000,9.39970703125,40.10438537597656,-5.5182037353515625,78.16339111328125
1667581580732866000,9.409865966796875,39.89080810546875,-5.588134765625,78.18148803710938
1667581580743024000,9.420024169921875,39.70744323730469,-5.1826629638671875,78.25225830078125
1667581580753182200,9.43018212890625,39.28388977050781,-5.248291015625,78.37373352050781
1667581580763340000,9.440340087890625,39.236083984375,-5.0429840087890625,78.20303344726562
1667581580773498000,9.450498046875,39.51618957519531,-4.9335174560546875,78.045654296875
1667581580783656000,9.460656005859375,39.384796142578125,-4.77972412109375,77.86514282226562
1667581580793814000,9.47081396484375,39.507965087890625,-4.6121368408203125,77.82237243652344
1667581580803972000,9.48097216796875,39.568084716796875,-4.65997314453125,77.64891052246094
1667581580814131000,9.491130859375,39.65425109863281,-4.4484100341796875,77.51652526855469
1667581580824288800,9.501288818359376,39.545074462890625,-4.2882843017578125,77.36700439453125
1667581580834448000,9.51144775390625,39.289276123046875,-4.1230621337890625,77.34725952148438
1667581580844606000,9.52160595703125,39.432403564453125,-4.062225341796875,77.29566955566406
1667581580854765000,9.53176513671875,39.23054504394531,-3.95501708984375,77.20487976074219
1667581580864924000,9.541923828125,39.4261474609375,-3.6104583740234375,76.89016723632812
1667581580875083000,9.5520830078125,39.07695007324219,-3.5470733642578125,76.76930236816406
1667581580885242000,9.5622421875,39.22471618652344,-3.48193359375,76.46119689941406
1667581580895401000,9.57240087890625,39.85902404785156,-3.3771820068359375,76.32772827148438
1667581580905560000,9.58256005859375,39.689727783203125,-3.1551666259765625,75.79634094238281
1667581580915720000,9.592719970703126,39.9537353515625,-3.003173828125,75.25218200683594
1667581580925879000,9.602879150390624,39.97038269042969,-3.1638336181640625,74.88900756835938
1667581580936038100,9.6130380859375,40.65135192871094,-3.1005706787109375,74.28366088867188
1667581580946198000,9.623197998046875,40.60487365722656,-3.1337890625,73.99778747558594
1667581580956356000,9.633356201171875,40.713592529296875,-3.0340118408203125,73.58139038085938
1667581580966515000,9.643514892578125,41.146636962890625,-3.1051177978515625,73.43927001953125
1667581580976672800,9.6536728515625,41.09388732910156,-3.1383209228515625,73.19972229003906
1667581580986832000,9.663831787109375,41.32188415527344,-3.156005859375,73.1669921875
1667581580996991000,9.673990966796875,40.98408508300781,-2.885986328125,73.09642028808594
1667581581007149800,9.68414990234375,40.85954284667969,-2.9124755859375,73.06712341308594
1667581581017309000,9.694308837890626,41.05174255371094,-2.9311370849609375,73.19972229003906
1667581581027468000,9.704468017578124,40.731475830078125,-2.8849029541015625,73.2664794921875
1667581581037626000,9.714626220703124,40.34532165527344,-2.8942108154296875,73.17997741699219
1667581581047785000,9.724784912109374,40.359893798828125,-2.9674835205078125,73.43766784667969
1667581581057942800,9.73494287109375,40.50105285644531,-2.9216766357421875,73.35588073730469
1667581581068102000,9.745101806640625,40.27278137207031,-2.887939453125,73.28584289550781
1667581581078260000,9.755260009765625,40.27360534667969,-2.7459716796875,73.17945861816406
1667581581088418000,9.76541796875,40.37617492675781,-2.683258056640625,73.35250854492188
1667581581098577000,9.775576904296875,40.34608459472656,-2.844390869140625,73.47219848632812
1667581581108736000,9.785736083984375,39.98460388183594,-2.5822296142578125,73.38812255859375
1667581581118895000,9.79589501953125,40.32493591308594,-2.7031097412109375,73.37342834472656
1667581581129053000,9.806052978515625,40.15385437011719,-2.609344482421875,73.27932739257812
1667581581139211800,9.816211669921875,39.85211181640625,-2.79620361328125,73.24497985839844
1667581581149372000,9.826371826171876,40.023406982421875,-2.631317138671875,73.15138244628906
1667581581159530000,9.836530029296876,39.93345642089844,-2.5463104248046875,73.05082702636719
1667581581169688800,9.846688720703124,39.971527099609375,-2.425140380859375,73.04144287109375
1667581581179848000,9.856847900390624,39.95387268066406,-2.272247314453125,73.0130615234375
1667581581190007000,9.867007080078125,40.01202392578125,-2.1477203369140625,73.02313232421875
1667581581200166000,9.877165771484375,40.09852600097656,-2.144561767578125,72.95114135742188
1667581581210325000,9.887324951171875,40.0838623046875,-2.0107421875,72.81610107421875
1667581581220484000,9.897484130859375,40.19970703125,-2.089935302734375,72.61602783203125
1667581581230643000,9.907642822265625,40.07781982421875,-2.309356689453125,72.44413757324219
1667581581240802000,9.917802001953126,40.40214538574219,-2.3457489013671875,72.49159240722656
1667581581250961200,9.927961181640624,40.68052673339844,-2.216156005859375,72.33943176269531
1667581581261120000,9.9381201171875,40.86920166015625,-2.1810455322265625,72.23518371582031
1667581581271278800,9.94827880859375,40.31388854980469,-2.1936492919921875,72.25460815429688
1667581581281438000,9.95843798828125,40.62010192871094,-2.059814453125,72.15733337402344
1667581581291595000,9.968594970703125,40.46116638183594,-2.11053466796875,72.13311767578125
1667581581301754000,9.978754150390625,40.787384033203125,-1.88739013671875,72.12028503417969
1667581581311913000,9.988912841796875,40.76197814941406,-1.7559356689453125,71.93077087402344
1667581581322072000,9.999072021484375,40.3280029296875,-1.5987701416015625,71.80656433105469
1667581581332231200,10.009231201171875,40.70378112792969,-1.77301025390625,71.72274780273438
1667581581342390000,10.01939013671875,40.865753173828125,-1.7509765625,71.69070434570312
1667581581352549000,10.029549072265626,40.74346923828125,-1.938385009765625,71.7122802734375
1667581581362708000,10.0397080078125,40.684417724609375,-1.7708892822265625,71.67860412597656
1667581581372865800,10.04986572265625,40.73423767089844,-2.0479888916015625,71.70817565917969
1667581581383025000,10.06002490234375,40.7109375,-2.068023681640625,71.74072265625
1667581581393184000,10.07018408203125,40.733123779296875,-1.9763946533203125,71.64378356933594
1667581581403344000,10.08034375,40.73980712890625,-2.064422607421875,71.66474914550781
1667581581413503000,10.0905029296875,41.0576171875,-2.1155853271484375,71.76506042480469
1667581581423662800,10.100662841796876,40.877105712890625,-2.3560791015625,71.89604187011719
1667581581433822000,10.110822021484376,41.02471923828125,-2.480377197265625,72.06759643554688
1667581581443981800,10.12098193359375,40.81285095214844,-2.36395263671875,72.00462341308594
1667581581454140000,10.131139892578124,41.11358642578125,-2.666015625,72.097900390625
1667581581464299000,10.141299072265625,41.48667907714844,-2.75360107421875,72.098388671875
1667581581474457900,10.151457763671875,41.23223876953125,-2.8334808349609375,72.18795776367188
1667581581484617000,10.161616943359375,41.643402099609375,-3.400787353515625,72.49424743652344
1667581581494777000,10.171777099609375,41.66926574707031,-3.307525634765625,72.30128479003906
1667581581504936000,10.18193603515625,41.72941589355469,-3.658172607421875,72.33633422851562
1667581581515094000,10.192093994140626,41.86744689941406,-3.7064056396484375,72.21943664550781
1667581581525253000,10.202253173828124,42.016815185546875,-3.89813232421875,72.30656433105469
1667581581535412000,10.212411865234374,42.18965148925781,-4.162872314453125,72.18948364257812
1667581581545570800,10.22257080078125,42.49617004394531,-4.2065277099609375,72.13294982910156
1667581581555731000,10.23273095703125,42.66120910644531,-4.447113037109375,72.05239868164062
1667581581565888800,10.242888671875,43.027496337890625,-4.6350860595703125,71.90336608886719
1667581581576049000,10.253048828125,43.22312927246094,-4.93133544921875,71.86619567871094
1667581581586207700,10.263207763671875,43.87712097167969,-5.13751220703125,71.87397766113281
1667581581596365800,10.27336572265625,44.09716796875,-5.086883544921875,71.95950317382812
1667581581606525000,10.28352490234375,44.06837463378906,-5.2854461669921875,71.80563354492188
1667581581616684000,10.29368408203125,44.32008361816406,-5.2523040771484375,71.64218139648438
1667581581626843000,10.3038427734375,44.19361877441406,-5.24713134765625,71.36201477050781
1667581581637002000,10.314001953125,44.91609191894531,-5.504791259765625,71.37063598632812
1667581581647161000,10.3241611328125,45.543792724609375,-5.5917816162109375,70.96147155761719
1667581581657321000,10.334321044921875,45.31884765625,-5.63018798828125,70.80584716796875
1667581581667479000,10.34447900390625,45.61003112792969,-5.9010009765625,71.0467529296875
1667581581677638100,10.35463818359375,45.910491943359375,-5.9554443359375,71.21194458007812
1667581581687797000,10.364796875,45.82041931152344,-6.2555389404296875,71.09561157226562
1667581581697954800,10.374954833984376,45.95391845703125,-6.0675811767578125,71.10346984863281
1667581581708114000,10.385114013671876,46.0721435546875,-6.3993682861328125,71.05302429199219
1667581581718272000,10.39527197265625,46.055267333984375,-6.576934814453125,71.01081848144531
1667581581728430000,10.40543017578125,46.352752685546875,-6.469512939453125,70.76589965820312
1667581581738589000,10.4155888671875,46.70372009277344,-6.78509521484375,70.9139404296875
1667581581748748000,10.425748046875,46.752105712890625,-6.7626495361328125,70.85728454589844
1667581581758905900,10.43590576171875,47.056427001953125,-6.8834686279296875,70.75291442871094
1667581581769065000,10.44606494140625,47.152069091796875,-7.1662750244140625,70.7216796875
1667581581779223600,10.4562236328125,47.02894592285156,-7.1114044189453125,70.79466247558594
1667581581789381400,10.46638134765625,47.038055419921875,-7.0203857421875,70.51681518554688
1667581581799540200,10.476540283203125,47.110382080078125,-6.9778594970703125,70.39669799804688
1667581581809698300,10.4866982421875,47.10699462890625,-7.0902862548828125,70.21977233886719
1667581581819856400,10.4968564453125,47.67033386230469,-7.0077362060546875,70.06953430175781
1667581581830015500,10.507015380859375,48.01124572753906,-6.59356689453125,69.95123291015625
1667581581840173300,10.51717333984375,48.53419494628906,-6.7015838623046875,69.74026489257812
1667581581850332200,10.527332275390625,48.65696716308594,-6.3445281982421875,69.44424438476562
1667581581860491300,10.5374912109375,49.413421630859375,-5.872100830078125,69.14013671875
1667581581870650400,10.547650390625,50.03663635253906,-6.1018829345703125,68.44247436523438
1667581581880809200,10.557809326171874,50.970123291015625,-6.1950836181640625,68.16374206542969
1667581581890968300,10.56796826171875,51.36395263671875,-5.9680938720703125,67.86866760253906
1667581581901126400,10.57812646484375,51.90278625488281,-5.8855133056640625,67.48582458496094
1667581581911285500,10.588285400390625,52.56144714355469,-5.9343109130859375,67.26715087890625
1667581581921443300,10.598443359375,52.623992919921875,-5.755096435546875,67.11083984375
1667581581931602200,10.608602294921875,53.098114013671875,-5.8206329345703125,66.98623657226562
1667581581941761300,10.61876123046875,53.390777587890625,-5.6972198486328125,66.94941711425781
1667581581951920400,10.62892041015625,53.4620361328125,-5.5826416015625,67.0797119140625
1667581581962079200,10.639079345703125,53.811431884765625,-5.5336761474609375,66.93391418457031
1667581581972238300,10.64923828125,54.11363220214844,-5.683807373046875,66.92604064941406
1667581581982397400,10.6593974609375,54.35307312011719,-5.7031097412109375,66.86067199707031
1667581581992556300,10.669556396484374,54.88267517089844,-5.9586181640625,67.0001220703125
1667581582002714400,10.67971435546875,55.17942810058594,-6.09552001953125,67.0858154296875
1667581582012872400,10.68987255859375,55.64190673828125,-5.8670196533203125,66.85858154296875
1667581582023030300,10.7000302734375,56.19343566894531,-6.0527191162109375,66.61924743652344
1667581582033188400,10.710188232421874,56.58631896972656,-6.0732269287109375,66.74435424804688
1667581582043346400,10.720346435546874,56.93675231933594,-5.88433837890625,66.61979675292969
1667581582053504300,10.730504150390624,57.124755859375,-6.3197174072265625,66.8204345703125
1667581582063662300,10.740662353515624,57.35298156738281,-6.1087188720703125,66.82060241699219
1667581582073819400,10.7508193359375,57.241241455078125,-6.4556427001953125,67.02571105957031
1667581582083977200,10.760977294921876,57.417938232421875,-6.441864013671875,66.89193725585938
1667581582094135300,10.77113525390625,57.815887451171875,-6.3236236572265625,67.16860961914062
1667581582104293400,10.78129345703125,57.64947509765625,-6.3702850341796875,66.99960327148438
1667581582114451500,10.791451416015626,57.5306396484375,-6.5861358642578125,67.21694946289062
1667581582124609300,10.801609375,58.163818359375,-6.6555633544921875,67.32949829101562
1667581582134767400,10.811767333984376,58.086151123046875,-6.81170654296875,67.42842102050781
1667581582144925400,10.821925537109376,58.24168395996094,-6.9296875,67.40455627441406
1667581582155083500,10.83208349609375,58.02589416503906,-6.83935546875,67.52079772949219
1667581582165241300,10.842241455078126,58.0543212890625,-7.1191253662109375,67.67710876464844
1667581582175399400,10.8523994140625,57.81288146972656,-7.29437255859375,67.72212219238281
1667581582185558300,10.862558349609374,58.012054443359375,-6.9922943115234375,67.82400512695312
1667581582195717400,10.87271728515625,57.72625732421875,-6.886138916015625,67.86993408203125
1667581582205876200,10.882876220703125,57.26670837402344,-7.0031585693359375,67.95205688476562
1667581582216035300,10.893035400390625,57.00831604003906,-7.142852783203125,68.22123718261719
1667581582226193400,10.903193359375,56.89714050292969,-6.9340972900390625,68.19737243652344
1667581582236351200,10.913351318359375,56.721771240234375,-6.7874603271484375,68.090576171875
1667581582246509300,10.92350927734375,56.60107421875,-6.9234619140625,68.11482238769531
1667581582256667400,10.93366748046875,56.56813049316406,-6.502899169921875,68.00393676757812
1667581582266826500,10.943826416015625,57.156402587890625,-6.3347015380859375,67.8125
1667581582276984600,10.953984619140625,56.88056945800781,-6.0979156494140625,67.63127136230469
1667581582287142400,10.964142333984375,57.07218933105469,-5.983978271484375,67.38629150390625
1667581582297300200,10.97430029296875,57.37876892089844,-5.962005615234375,67.33880615234375
1667581582307458300,10.984458251953125,57.08152770996094,-5.679046630859375,67.15214538574219
1667581582317616000,10.9946162109375,56.86262512207031,-5.49566650390625,67.2059326171875
1667581582327774200,11.004774169921875,56.6224365234375,-5.2704925537109375,67.23307800292969
1667581582337931500,11.014931640625,56.73271179199219,-4.9423675537109375,67.05242919921875
1667581582348089300,11.02508935546875,56.339874267578125,-4.6512451171875,66.90757751464844
1667581582358247200,11.0352470703125,55.98429870605469,-4.5257720947265625,66.92097473144531
1667581582368405200,11.0454052734375,55.42054748535156,-4.3331451416015625,66.851318359375
1667581582378562600,11.0555625,55.28715515136719,-4.0417327880859375,66.603271484375
1667581582388720400,11.065720458984375,54.69683837890625,-3.8523101806640625,66.45147705078125
1667581582398878200,11.075878173828125,54.125274658203125,-3.5843353271484375,66.3416748046875
1667581582409036300,11.086036376953125,53.90086364746094,-3.352996826171875,66.02903747558594
1667581582419194000,11.096194091796875,53.31001281738281,-3.3272247314453125,66.13771057128906
1667581582429352200,11.106352294921875,53.153533935546875,-3.140716552734375,65.75115966796875
1667581582439510300,11.11651025390625,52.70979309082031,-3.1014404296875,65.51806640625
1667581582449669400,11.12666943359375,52.54789733886719,-2.8872528076171875,65.41815185546875
1667581582459827500,11.136827392578125,52.0772705078125,-2.712493896484375,65.20481872558594
1667581582469985300,11.1469853515625,51.893524169921875,-2.4939422607421875,65.14797973632812
1667581582480143400,11.157143310546875,51.55059814453125,-2.5768280029296875,64.99626159667969
1667581582490300400,11.167300537109375,51.632293701171875,-2.5148468017578125,64.52166748046875
1667581582500458200,11.177458251953125,51.42295837402344,-2.051971435546875,64.06245422363281
1667581582510616300,11.1876162109375,51.165679931640625,-2.1264495849609375,63.87974548339844
1667581582520774400,11.1977744140625,51.096923828125,-2.1026611328125,63.78373718261719
1667581582530932500,11.207932373046875,51.15660095214844,-2.218780517578125,63.57421875
1667581582541091300,11.21809130859375,50.991912841796875,-2.0478363037109375,63.19529724121094
1667581582551249200,11.228249267578125,50.848724365234375,-2.0716400146484375,63.179229736328125
1667581582561407200,11.2384072265625,50.63508605957031,-2.1059112548828125,63.21766662597656
1667581582571565300,11.2485654296875,49.91609191894531,-2.0481719970703125,62.9100341796875
1667581582581723400,11.258723388671875,50.16841125488281,-2.1978302001953125,62.84843444824219
1667581582591880400,11.26888037109375,50.50450134277344,-2.014862060546875,62.64424133300781
1667581582602038300,11.279038330078125,50.525482177734375,-2.212188720703125,62.69647216796875
1667581582612195300,11.2891953125,50.516754150390625,-2.5995635986328125,62.63624572753906
1667581582622353400,11.299353515625,50.232421875,-2.6268157958984375,62.73646545410156
1667581582632511500,11.309511474609375,50.42964172363281,-2.691009521484375,63.096527099609375
1667581582642668300,11.319668212890624,50.20188903808594,-2.7064361572265625,63.236236572265625
1667581582652826400,11.329826416015624,49.98637390136719,-2.83673095703125,63.43153381347656
1667581582662984400,11.339984375,50.12886047363281,-2.5841064453125,63.82951354980469
1667581582673141200,11.350141357421874,50.19415283203125,-2.3657684326171875,63.891998291015625
1667581582683300400,11.36030029296875,50.37445068359375,-2.08001708984375,63.76953125
1667581582693458400,11.37045849609375,50.291259765625,-1.5888824462890625,63.74024963378906
1667581582703616300,11.3806162109375,50.699005126953125,-1.3368072509765625,63.7220458984375
1667581582713775400,11.390775390625,50.84526062011719,-0.895965576171875,63.47889709472656
1667581582723932200,11.40093212890625,50.97590637207031,-0.837890625,63.428619384765625
1667581582734091300,11.41109130859375,50.88038635253906,-0.2998504638671875,63.43023681640625
1667581582744249300,11.421249267578125,50.660430908203125,-0.105224609375,63.48731994628906
1667581582754408400,11.431408447265625,50.55433654785156,0.2100067138671875,63.34783935546875
1667581582764567300,11.4415673828125,50.522064208984375,0.415679931640625,63.26167297363281
1667581582774724400,11.451724365234375,50.329498291015625,0.5248870849609375,63.22761535644531
1667581582784881400,11.46188134765625,50.61100769042969,0.710845947265625,62.86372375488281
1667581582795039500,11.47203955078125,50.5833740234375,0.95001220703125,62.716888427734375
1667581582805197600,11.482197509765625,50.30232238769531,1.001708984375,62.443115234375
1667581582815355600,11.492355712890625,50.21551513671875,1.089324951171875,62.314971923828125
1667581582825513500,11.502513427734375,49.73457336425781,1.0488128662109375,62.20503234863281
1667581582835671600,11.512671630859375,49.515838623046875,0.9591064453125,62.092742919921875
1667581582845830400,11.522830322265625,49.480010986328125,1.03857421875,61.74383544921875
1667581582855988500,11.532988525390625,49.36370849609375,0.87591552734375,61.49784851074219
1667581582866146600,11.543146484375,49.62449645996094,0.90924072265625,61.03498840332031
1667581582876303400,11.553303466796875,49.40370178222656,0.6599578857421875,61.01408386230469
1667581582886461400,11.56346142578125,49.37275695800781,0.697418212890625,60.57635498046875
1667581582896618200,11.5736181640625,49.16520690917969,0.3132781982421875,60.354583740234375
1667581582906776300,11.5837763671875,49.44355773925781,0.133544921875,60.29534912109375
1667581582916934400,11.593934326171874,49.19085693359375,0.18890380859375,59.993438720703125
1667581582927091500,11.604091552734374,49.1160888671875,-0.016876220703125,59.75750732421875
1667581582937250300,11.614250244140624,49.12010192871094,-0.1536865234375,59.81761169433594
1667581582947408400,11.624408447265624,49.152130126953125,-0.2703094482421875,59.72418212890625
1667581582957567500,11.6345673828125,49.12849426269531,-0.4722442626953125,59.57208251953125
1667581582967725600,11.6447255859375,49.13471984863281,-0.5854339599609375,59.68238830566406
1667581582977884400,11.654884521484375,49.473114013671875,-0.7621612548828125,59.29481506347656
1667581582988042200,11.665042236328125,49.61903381347656,-0.772064208984375,59.369354248046875
1667581582998200300,11.675200439453125,49.87544250488281,-0.8712310791015625,59.2178955078125
1667581583008358400,11.6853583984375,49.59370422363281,-1.0152587890625,59.31187438964844
1667581583018516500,11.6955166015625,49.98121643066406,-1.09869384765625,59.08607482910156
1667581583028675600,11.705675537109375,49.83912658691406,-0.8687744140625,58.9532470703125
1667581583038833400,11.71583349609375,49.683502197265625,-0.995147705078125,59.12872314453125
1667581583048990500,11.725990478515625,49.89085388183594,-0.97503662109375,59.144012451171875
1667581583059148500,11.7361484375,50.094329833984375,-0.7728118896484375,59.21278381347656
1667581583069307600,11.7463076171875,50.174285888671875,-0.632415771484375,59.080047607421875
1667581583079466500,11.756466552734375,50.32112121582031,-0.6389312744140625,59.185211181640625
1667581583089624300,11.766624267578125,50.14472961425781,-0.4955291748046875,59.25944519042969
1667581583099782400,11.776782470703125,50.10752868652344,-0.4558258056640625,59.3900146484375
1667581583109940500,11.7869404296875,49.932464599609375,-0.2740325927734375,59.49739074707031
1667581583120098300,11.797098388671875,49.628326416015625,-0.0792694091796875,59.4952392578125
1667581583130256400,11.80725634765625,49.71026611328125,0.388397216796875,59.38539123535156
1667581583140415500,11.81741552734375,49.547882080078125,0.4638671875,59.55230712890625
1667581583150573600,11.827573486328125,49.64959716796875,0.82373046875,59.302825927734375
1667581583160731600,11.837731689453125,49.87651062011719,1.0256500244140625,59.29972839355469
1667581583170890500,11.847890380859376,50.168975830078125,1.13201904296875,59.493988037109375
1667581583181049300,11.85804931640625,50.261871337890625,1.4127349853515625,59.429718017578125
1667581583191209500,11.86820947265625,50.41319274902344,1.6698150634765625,59.558563232421875
1667581583201368600,11.87836865234375,50.49623107910156,1.6027374267578125,59.745452880859375
1667581583211527400,11.88852734375,50.04316711425781,1.7365264892578125,59.4749755859375
1667581583221686300,11.898686279296875,50.06184387207031,1.613250732421875,59.57666015625
1667581583231845400,11.908845458984375,50.14582824707031,1.8253173828125,59.53392028808594
1667581583242003500,11.91900341796875,50.424591064453125,1.7961883544921875,59.49725341796875
1667581583252162600,11.92916259765625,49.96623229980469,1.922027587890625,59.38908386230469
1667581583262320600,11.939320556640626,50.018829345703125,1.62078857421875,59.52894592285156
1667581583272478500,11.949478515625,49.96058654785156,1.6286468505859375,59.85246276855469
1667581583282637300,11.95963720703125,49.7860107421875,1.4952850341796875,59.61958312988281
1667581583292796400,11.96979638671875,49.54310607910156,1.382080078125,59.75311279296875
1667581583302955300,11.979955322265624,49.472747802734375,1.0421142578125,59.78753662109375
1667581583313113300,11.99011328125,49.340789794921875,0.9518280029296875,59.852569580078125
1667581583323271400,12.000271484375,49.6138916015625,0.8242950439453125,60.21095275878906
1667581583333429500,12.010429443359374,49.49015808105469,0.472930908203125,60.20001220703125
1667581583343587300,12.02058740234375,49.54759216308594,0.1431427001953125,60.22894287109375
1667581583353745400,12.030745361328124,49.541015625,0.2461090087890625,60.0548095703125
1667581583363903500,12.040903564453124,49.76313781738281,-0.0330047607421875,60.126495361328125
1667581583374062600,12.0510625,49.95703125,-0.4854736328125,60.386627197265625
1667581583384221400,12.061221435546875,49.671966552734375,-0.4107513427734375,60.18531799316406
1667581583394379300,12.071379150390625,49.73394775390625,-0.66802978515625,60.56437683105469
1667581583404537300,12.081537353515625,50.006988525390625,-0.788055419921875,60.592132568359375
1667581583414696400,12.091696533203125,49.5728759765625,-0.8229217529296875,60.61589050292969
1667581583424854500,12.1018544921875,49.84013366699219,-0.8060455322265625,60.63829040527344
1667581583435013600,12.112013671875,49.55809020996094,-0.95745849609375,60.76023864746094
1667581583445172500,12.12217236328125,49.661773681640625,-1.0210723876953125,60.762451171875
1667581583455331600,12.13233154296875,49.47233581542969,-1.212646484375,60.98687744140625
1667581583465489400,12.142489501953126,49.51353454589844,-1.1610260009765625,60.90234375
1667581583475647500,12.1526474609375,49.67988586425781,-1.4791107177734375,61.195526123046875
1667581583485806600,12.162806640625,49.647430419921875,-1.6597900390625,61.20536804199219
1667581583495965400,12.17296533203125,49.862640380859375,-1.558013916015625,61.01069641113281
1667581583506123500,12.18312353515625,49.8319091796875,-1.9237213134765625,61.49928283691406
1667581583516282600,12.19328271484375,49.823822021484375,-2.1555938720703125,61.615203857421875
1667581583526440400,12.2034404296875,49.48651123046875,-2.106231689453125,61.8233642578125
1667581583536599300,12.213599365234375,49.680755615234375,-2.200103759765625,62.22502136230469
1667581583546758400,12.22375830078125,49.54345703125,-2.284332275390625,62.40171813964844
1667581583556917500,12.23391748046875,49.69660949707031,-2.321258544921875,62.49018859863281
1667581583567076400,12.244076416015625,49.647430419921875,-2.4793853759765625,62.67083740234375
1667581583577234400,12.254234375,50.01837158203125,-2.5080718994140625,62.729095458984375
1667581583587393500,12.2643935546875,50.304595947265625,-2.592041015625,62.69062805175781
1667581583597552600,12.274552734375,50.85711669921875,-2.842376708984375,62.86415100097656
1667581583607711500,12.28471142578125,51.41313171386719,-3.2117767333984375,63.210235595703125
1667581583617870600,12.29487060546875,51.665313720703125,-3.3485870361328125,63.2982177734375
1667581583628028400,12.3050283203125,51.85661315917969,-3.5665435791015625,63.76617431640625
1667581583638187500,12.3151875,52.2310791015625,-3.9022369384765625,63.85169982910156
1667581583648345300,12.325345458984375,52.88615417480469,-4.231414794921875,64.02821350097656
1667581583658503400,12.33550341796875,52.88859558105469,-4.36016845703125,64.13517761230469
1667581583668661200,12.3456611328125,53.44976806640625,-4.55523681640625,64.27445983886719
1667581583678820400,12.3558203125,53.80616760253906,-4.6703948974609375,64.40310668945312
1667581583688978400,12.365978515625,54.64735412597656,-4.864776611328125,64.43141174316406
1667581583699137500,12.376137451171875,54.89375305175781,-5.497100830078125,64.50343322753906
1667581583709295600,12.386295654296875,55.71337890625,-5.6627197265625,64.37321472167969
1667581583719454500,12.396454345703125,56.034515380859375,-6.10028076171875,64.61711120605469
1667581583729612300,12.4066123046875,56.35322570800781,-6.95391845703125,64.92344665527344
1667581583739771400,12.416771484375,56.69645690917969,-7.3221435546875,65.12190246582031
1667581583749930500,12.426930419921876,57.30009460449219,-7.87908935546875,65.25529479980469
1667581583760089300,12.43708935546875,57.43403625488281,-8.2091064453125,65.53536987304688
1667581583770248400,12.44724853515625,57.575225830078125,-8.761611938476562,65.53427124023438
1667581583780408000,12.457407958984374,58.12843322753906,-9.0826416015625,65.51881408691406
1667581583790566100,12.467566162109375,58.1513671875,-9.447509765625,65.58743286132812
1667581583800725200,12.477725341796875,58.54563903808594,-9.713104248046875,65.4620361328125
1667581583810883000,12.487883056640625,59.1114501953125,-10.125869750976562,65.51022338867188
1667581583821042200,12.498042236328125,59.55061340332031,-10.510665893554688,65.32255554199219
1667581583831201000,12.508200927734375,60.05224609375,-10.923355102539062,65.24031066894531
1667581583841360100,12.518360107421875,60.51972961425781,-11.335556030273438,65.28318786621094
1667581583851519200,12.528519287109376,60.762725830078125,-11.5509033203125,65.16606140136719
1667581583861678000,12.538677978515626,60.69871520996094,-11.563217163085938,64.89450073242188
1667581583871837200,12.548837158203124,60.951690673828125,-12.172866821289062,64.79092407226562
1667581583881996000,12.55899609375,60.893768310546875,-12.464202880859375,64.80967712402344
1667581583892155100,12.569155029296875,61.26002502441406,-12.250534057617188,64.57435607910156
1667581583902314200,12.579314208984375,61.03941345214844,-12.381912231445312,64.55615234375
1667581583912473000,12.58947314453125,61.4991455078125,-12.169570922851562,64.23744201660156
1667581583922632200,12.599632080078125,61.6768798828125,-12.26153564453125,64.0018310546875
1667581583932792000,12.6097919921875,62.145660400390625,-12.128585815429688,63.89369201660156
1667581583942952200,12.6199521484375,62.598602294921875,-12.1175537109375,63.748321533203125
1667581583953111300,12.630111328125,63.139984130859375,-12.060348510742188,63.53590393066406
1667581583963270100,12.640270263671875,63.757781982421875,-11.935317993164062,63.47242736816406
1667581583973429200,12.65042919921875,63.968109130859375,-11.703582763671875,63.33082580566406
1667581583983588000,12.660588134765625,64.60783386230469,-11.533798217773438,63.165679931640625
1667581583993747200,12.670747314453125,64.40284729003906,-11.482513427734375,63.3294677734375
1667581584003906300,12.68090625,64.23080444335938,-11.350601196289062,63.34144592285156
1667581584014064000,12.691064208984375,64.53488159179688,-10.857223510742188,63.26069641113281
1667581584024222200,12.70122216796875,64.29998779296875,-10.770614624023438,63.30085754394531
1667581584034380300,12.71138037109375,64.47341918945312,-10.619338989257812,63.5618896484375
1667581584044539100,12.7215390625,64.21209716796875,-10.597412109375,63.535614013671875
1667581584054697000,12.731697021484376,64.32279968261719,-10.446075439453125,63.67376708984375
1667581584064855000,12.74185498046875,64.43869018554688,-10.365188598632812,63.82902526855469
1667581584075014100,12.75201416015625,64.57943725585938,-10.420623779296875,63.99461364746094
1667581584085173200,12.76217333984375,64.78901672363281,-10.327865600585938,63.969146728515625
1667581584095330300,12.772330322265624,65.24134826660156,-10.19122314453125,64.23350524902344
1667581584105488100,12.782488037109376,65.34318542480469,-10.290771484375,64.54867553710938
1667581584115647000,12.79264697265625,65.63908386230469,-10.230789184570312,64.50877380371094
1667581584125805000,12.80280517578125,65.87680053710938,-10.09210205078125,64.71134948730469
1667581584135962400,12.81296240234375,66.09939575195312,-10.02862548828125,64.77735900878906
1667581584146120200,12.8231201171875,66.24711608886719,-9.994293212890625,64.87425231933594
1667581584156279000,12.833279052734374,66.53981018066406,-9.9788818359375,65.123779296875
1667581584166438100,12.843438232421875,66.42161560058594,-10.043731689453125,65.38400268554688
1667581584176596200,12.85359619140625,66.29348754882812,-9.943084716796875,65.12300109863281
1667581584186755000,12.863755126953125,66.01693725585938,-10.089584350585938,65.66140747070312
1667581584196914200,12.8739140625,65.79408264160156,-9.9384765625,65.60981750488281
1667581584207072000,12.884072021484375,65.81715393066406,-9.753158569335938,65.75888061523438
1667581584217230000,12.89422998046875,66.00238037109375,-9.475982666015625,65.58428955078125
1667581584227387100,12.90438720703125,65.916259765625,-9.734359741210938,65.78582763671875
1667581584237545000,12.914544921875,65.90679931640625,-9.7559814453125,65.94955444335938
1667581584247703000,12.924703125,65.76237487792969,-9.63824462890625,65.79801940917969
1667581584257860000,12.934860107421875,66.00006103515625,-9.49859619140625,65.88800048828125
1667581584268018200,12.94501806640625,65.83763122558594,-9.361526489257812,65.75772094726562
1667581584278176000,12.955176025390625,66.07752990722656,-9.424163818359375,65.84925842285156
1667581584288334000,12.965333984375,65.91253662109375,-9.473236083984375,65.81922912597656
1667581584298493200,12.9754931640625,65.74656677246094,-9.167068481445312,65.75679016113281
1667581584308650000,12.98564990234375,65.59245300292969,-8.863052368164062,65.72261047363281
1667581584318809000,12.99580908203125,65.09544372558594,-8.880630493164062,65.76689147949219
1667581584328967200,13.00596728515625,64.60598754882812,-8.780166625976562,65.68533325195312
1667581584339124200,13.016124267578125,64.48544311523438,-8.6474609375,65.7088623046875
1667581584349282000,13.026281982421875,64.33067321777344,-8.558364868164062,65.5654296875
1667581584359441200,13.036441162109375,64.22406005859375,-8.3641357421875,65.50376892089844
1667581584369599000,13.046598876953125,64.2783203125,-8.411636352539062,65.34562683105469
1667581584379757000,13.056757080078125,64.36422729492188,-8.291412353515625,65.14590454101562
1667581584389915100,13.0669150390625,64.18952941894531,-8.32550048828125,64.73744201660156
1667581584400073000,13.077072998046875,64.68724060058594,-8.227920532226562,64.45268249511719
1667581584410231000,13.08723095703125,64.75540161132812,-8.332626342773438,64.24064636230469
1667581584420389000,13.09738916015625,64.85707092285156,-8.39349365234375,64.11482238769531
1667581584430548200,13.10754833984375,64.53561401367188,-8.38726806640625,63.78062438964844
1667581584440706000,13.1177060546875,64.09091186523438,-8.299560546875,63.72053527832031
1667581584450864000,13.127864013671875,63.68536376953125,-8.483291625976562,63.298980712890625
1667581584461022200,13.138022216796875,63.54914855957031,-8.655303955078125,63.304168701171875
1667581584471181000,13.14818115234375,63.08604431152344,-8.893218994140625,63.16766357421875
1667581584481340200,13.158340087890625,63.049468994140625,-9.227767944335938,63.12199401855469
1667581584491499300,13.168499267578126,62.96014404296875,-9.478912353515625,63.03834533691406
1667581584501657300,13.1786572265625,62.64131164550781,-9.79205322265625,62.995086669921875
1667581584511816000,13.18881591796875,62.578643798828125,-10.172027587890625,62.84100341796875
1667581584521973200,13.19897314453125,62.85118103027344,-10.284957885742188,63.01641845703125
1667581584532132000,13.209132080078126,62.671539306640625,-10.576614379882812,62.9974365234375
1667581584542290200,13.219290283203126,62.94075012207031,-10.927139282226562,62.99861145019531
1667581584552447000,13.229447021484376,63.19334411621094,-10.999923706054688,62.99815368652344
1667581584562605000,13.23960498046875,63.405548095703125,-10.843719482421875,63.37037658691406
1667581584572762000,13.24976220703125,63.32891845703125,-10.857040405273438,63.338165283203125
1667581584582920200,13.259920166015625,63.89503479003906,-10.623916625976562,63.41358947753906
1667581584593078000,13.270078125,64.0416259765625,-10.663818359375,63.47998046875
