time,seconds_elapsed,z,y,x
1667581571396870000,0.073869873046875,-0.12612228813767432,-0.2945952330097556,1.3066348253779112
1667581571406892000,0.08389208984375,-0.2941004352301359,-0.40279871035814285,1.3327331432305276
1667581571416914000,0.093913818359375,-0.40096272710263725,-0.45539457451403137,1.3259586806595325
1667581571426935000,0.10393505859375,-0.43911271727681156,-0.5233578114107251,1.3167977613434194
1667581571436957200,0.113957275390625,-0.5205243415504693,-0.6213925075747072,1.342071318809688
1667581571446979000,0.12397900390625,-0.6461503706037998,-0.6836172008194029,1.491155234209448
1667581571457000000,0.134,-0.6959826152652502,-0.6154514270879328,1.5981652639895676
1667581571467021800,0.144021728515625,-0.6646037266612053,-0.4841502750076353,1.654394516211748
1667581571477044200,0.154044189453125,-0.6266448751449585,-0.4000080567263066,1.697446306952834
1667581571487065000,0.164065185546875,-0.8006687321424484,-0.41415377871766684,1.6846790337078272
1667581571497087000,0.1740869140625,-1.0454881268531084,-0.47060164212659,1.6296341689646243
1667581571507108900,0.18410888671875,-1.2217349205970764,-0.4857264382831752,1.4514488083735106
1667581571517130000,0.1941298828125,-1.2467980501830578,-0.4826486382730305,1.2996066803067923
1667581571527152000,0.204152099609375,-1.202718085438013,-0.5076224821403622,1.203088526185602
1667581571537174000,0.214174072265625,-1.1644845086336135,-0.5392062456667422,1.1585668090224266
1667581571547195000,0.22419482421875,-1.1091180107206104,-0.5158228858612477,1.0648678039751946
1667581571557217000,0.234217041015625,-1.074886655294895,-0.464103073887527,0.9829790637090802
1667581571567239200,0.2442392578125,-1.0381646520972252,-0.4296795568905771,0.976495327712968
1667581571577260000,0.254260009765625,-1.0456190597563981,-0.30498204085901376,1.0645020394027231
1667581571587282000,0.264281982421875,-1.1213894632726906,-0.08212444871813059,1.171459754473716
1667581571597304000,0.274303955078125,-1.3142495381653307,0.19654899253845215,1.33830962818861
1667581571607325200,0.2843251953125,-1.5137182175427675,0.45979733951762314,1.494071267786622
1667581571617347000,0.29434716796875,-1.5231237592697142,0.6720011434361338,1.5930414912350475
1667581571627369000,0.304368896484375,-1.2047709263145923,0.849045809559524,1.6458277633965015
1667581571637389800,0.314389892578125,-0.6188455995708704,0.8957485240235924,1.681569523385167
1667581571647412000,0.324411865234375,0.10039631072878837,0.7895690998487174,1.7051752937696874
1667581571657433000,0.33443310546875,0.859691414475441,0.6424567767828703,1.6734993219152092
1667581571667455000,0.344455078125,1.4722586644291877,0.44605654506534337,1.562787368877232
1667581571677477000,0.35447705078125,1.8526590804964302,0.2761605816528201,1.4839882651895284
1667581571687498000,0.364498046875,1.9869097300320862,0.18484218813180922,1.4586952723704278
1667581571697520000,0.37452001953125,1.909368809711933,0.19057693239152432,1.423343680743128
1667581571707542000,0.3845419921875,1.715785096719861,0.28485972867608067,1.3674072739876806
1667581571717563000,0.39456298828125,1.3831868807911871,0.3740767660036683,1.313102121695876
1667581571727585000,0.4045849609375,0.9245844501465559,0.4651259871944785,1.1260584779970346
1667581571737607000,0.41460693359375,0.5371230096518993,0.5523834148868918,0.9399417398847639
1667581571747628000,0.4246279296875,0.17042378667891026,0.588485824881494,0.7383560683533549
1667581571757650000,0.43464990234375,-0.06808277162313461,0.6245324130356311,0.6721859984837472
1667581571767672000,0.444672119140625,-0.23958675475418567,0.7298460141614079,0.5929021434864029
1667581571777693000,0.45469287109375,-0.42733577024340624,0.8043255010843277,0.4866566683379933
1667581571787715000,0.464715087890625,-0.5554314042806625,0.8078288330301642,0.4672216808320954
1667581571797737200,0.4747373046875,-0.56586161288023,0.8296563416957855,0.5043860575024038
1667581571807758000,0.484758056640625,-0.4668313298076391,0.8558262634798884,0.5526766987450421
1667581571817780000,0.494780029296875,-0.3095657153874635,1.0950669812753795,0.6122501102959736
1667581571827802000,0.504802001953125,-0.12390052043497561,1.3489017493516207,0.6435439144324511
1667581571837823200,0.5148232421875,-0.03650222296714783,1.4680997911840676,0.8126577144913375
1667581571847845000,0.52484521484375,-0.0009124386698007583,1.4775196536973119,1.0363033152047545
1667581571857867300,0.5348671875,0.0737608172595501,1.5931518197417258,1.249238721333444
1667581571867888000,0.54488818359375,0.12871464271843433,1.7792466382831333,1.2907681248128413
1667581571877910000,0.554909912109375,0.10753799917697907,1.8915677800834179,1.2092178227208554
1667581571887932200,0.56493212890625,0.007117138528823852,1.8485127744719385,1.1739156962584703
1667581571897953000,0.574953125,-0.17853695050776003,1.7048790873020887,1.1043203281152993
1667581571907975200,0.58497509765625,-0.2275812596619129,1.6162430647328494,1.1222623005844652
1667581571917997000,0.5949970703125,-0.1254039107352495,1.639813909934461,1.0751133767228573
1667581571928018200,0.60501806640625,0.037001989182829854,1.5171943692207335,0.8250344540487975
1667581571938040000,0.6150400390625,0.21486966212689876,1.2892349238961933,0.8076821180358529
1667581571948062200,0.625062255859375,0.5697083514362573,1.4228046054303645,0.8334069994661957
1667581571958083000,0.6350830078125,0.6501391479790211,1.4923215015098452,0.7267780779581516
1667581571968105000,0.64510498046875,0.5412801293313503,1.3916405286207794,0.9092734837681055
1667581571978127400,0.65512744140625,0.39488896014690394,1.26335521723032,1.0842243924826382
1667581571988148200,0.665148193359375,0.2708329568892717,1.266269935633242,1.3141018002577125
1667581571998170000,0.675170166015625,0.11265899545252323,1.2456813211128115,1.2108319799192249
1667581572008191200,0.685191162109375,-0.08080664411783219,1.3426044027730821,1.4367398995414375
1667581572018213000,0.695213134765625,-0.3723328449457884,1.4552259888246655,1.1338855914261192
1667581572028235300,0.7052353515625,-0.6958721406280994,1.2182152220383287,0.8765972488299012
1667581572038256000,0.715256103515625,-0.6790624601244926,1.044947736366093,0.8094440862070769
1667581572048278000,0.725278076171875,-0.5734942997157574,0.9504396068930625,0.5419515988521277
1667581572058300000,0.7352998046875,-0.34458734440803523,0.8433037587761878,0.4160471181835979
1667581572068321300,0.7453212890625,-0.11354980681240558,0.725192635397613,0.2430879678081721
1667581572078343200,0.75534326171875,0.12674597299396992,0.5806240054652094,0.20913959404230117
1667581572088365000,0.765364990234375,0.31855040135383605,0.40380876418352124,0.23983378831781446
1667581572098386200,0.77538623046875,0.320476985502243,0.47363837947398424,0.4252992959797382
1667581572108408300,0.785408203125,0.1489496214956045,0.962428735372424,0.5861103644544259
1667581572118430200,0.79543017578125,-0.384461674156785,0.556597817711532,0.20427238986473528
1667581572128451000,0.805451171875,-0.5654892724364996,0.2560921916142106,0.4292356490479782
1667581572138473000,0.815472900390625,-0.44009705213904377,0.21070377461910247,0.6093659696944057
1667581572148495000,0.8254951171875,-0.2793967870950699,0.42698505710959433,0.3394907519213855
1667581572158516200,0.83551611328125,-0.017851883032917976,0.6807239635959267,0.3564790403949097
1667581572168538000,0.8455380859375,0.10839724635481834,0.7343412797540426,0.3894793927209452
1667581572178560000,0.85556005859375,0.11382979279756546,0.6990130690023303,0.4025277844622731
1667581572188581000,0.8655810546875,0.027135844206809995,0.6571507803067564,0.40486265715062614
1667581572198603300,0.875603271484375,-0.06413081912696361,0.655180357016623,0.3591302490234375
1667581572208625200,0.885625244140625,-0.19947978529334068,0.6682493896871805,0.28385712750479575
1667581572218646000,0.89564599609375,-0.28412030848562714,0.7333578216746449,0.22837346948552875
1667581572228668200,0.905668212890625,-0.32457039229571816,0.7999909790113567,0.1742632187113166
1667581572238690000,0.91568994140625,-0.4148392767637968,0.8507204647734761,0.05850041202455759
1667581572248711200,0.925711181640625,-0.49389527782201764,1.082398930621147,-0.02051803350225091
1667581572258733000,0.935733154296875,-0.5244914916157722,1.4057131853759288,-0.15160886730011552
1667581572268755200,0.945755126953125,-0.6419681164830923,1.0200076486378908,-0.49551202883627266
1667581572278776000,0.955776123046875,-0.3717290338337421,0.5987614274412393,-0.261883196105808
1667581572288798200,0.965798095703125,0.024656886872649192,0.4306953098043799,-0.14360208645518868
1667581572298820000,0.975820068359375,0.16151742664575575,0.589390372505784,-0.38040553063377736
1667581572308841200,0.98584130859375,0.13770458938181399,0.8911161880478262,-0.4786291734986007
1667581572318863000,0.995863037109375,-0.10387889214754104,0.697700525099039,-0.6201973064407705
1667581572328885000,1.005885009765625,-0.14624094705879687,0.5952525425374507,-0.5919470712512731
1667581572338906000,1.015906005859375,-0.1573369260907173,0.6058274203047156,-0.7389446818962693
1667581572348928300,1.02592822265625,-0.2366968785315752,0.6787810128346086,-1.0189650077171624
1667581572358949000,1.03594921875,-0.2900052748709917,0.7236141340345144,-1.093682979571074
1667581572368971000,1.045970947265625,-0.29088965649008747,0.7224383682534098,-1.0993765150375663
1667581572378993200,1.0559931640625,-0.3371440426647663,0.6846274007752537,-0.9833553496755659
1667581572389014300,1.06601416015625,-0.5122621246397495,0.5780062241822481,-0.8864506804548203
1667581572399036200,1.0760361328125,-0.7409001998782158,0.4484697436869144,-0.7687623125329613
1667581572409058000,1.08605810546875,-0.922681831395626,0.33310119701474905,-0.746414579385519
1667581572419079200,1.0960791015625,-1.0373124191820622,0.2214718368709087,-0.708029026889801
1667581572429101300,1.106101318359375,-1.1382920827567578,0.16286241151392458,-0.6209541161574423
1667581572439123200,1.116123291015625,-1.1462819124668835,0.16686726324111223,-0.6119502870991825
1667581572449144000,1.12614404296875,-1.0474608882308005,0.19555588984787464,-0.6562998625658452
1667581572459166000,1.136166015625,-0.7957055567771196,0.2340606848090887,-0.6585315671406686
1667581572469188000,1.14618798828125,-0.36950258995592594,0.27349486957490443,-0.6484880197711289
1667581572479209200,1.156209228515625,0.04676292021870613,0.2682058232560754,-0.6461604536063968
1667581572489231000,1.166231201171875,0.3505886306494474,0.21078151603043077,-0.7802258097030222
1667581572499253000,1.1762529296875,0.34111469986140724,0.18245500073432921,-0.896282777030766
1667581572509274400,1.1862744140625,0.05796703580021858,0.16037439409047363,-1.1099721433319152
1667581572519296300,1.196296142578125,-0.40695466099381444,0.25105244388133285,-1.2293566476471722
1667581572529318100,1.206318115234375,-0.8852350210547447,0.44745326012074943,-1.2167350664831698
1667581572539339000,1.216339111328125,-1.2100181793183087,0.6608394056916237,-1.103321745532006
1667581572549361200,1.226361083984375,-1.2451298247098923,0.8604416483208537,-0.9386989002168178
1667581572559383000,1.236383056640625,-0.9903811566591262,0.9665759181797504,-0.7717348986029624
1667581572569404200,1.246404052734375,-0.5693558847367763,0.9328981049835682,-0.7261788699559867
1667581572579426000,1.256426025390625,-0.12634791358709335,0.8284881746992468,-0.7576246863164007
1667581572589448200,1.2664482421875,0.19986556974053382,0.6742752258479595,-0.9035079059787094
1667581572599469300,1.27646923828125,0.4933657009899616,0.5460030662000179,-1.0119823092229663
1667581572609491200,1.2864912109375,0.7559878788948059,0.7481552855730056,-0.8561527189552783
1667581572619513000,1.29651318359375,0.8039531606405973,0.5891133091300725,-0.8565157070487737
1667581572629534200,1.3065341796875,0.7932955730259418,0.2702408362150192,-0.7786566606901586
1667581572639556000,1.31655615234375,0.8999123657047748,0.21114713447242975,-0.5750386065483093
1667581572649578000,1.326577880859375,0.8647516204744576,0.22661709080487488,-0.7251071490712463
1667581572659599000,1.33659912109375,0.6371604239404202,0.1223477380350232,-0.9747489955022931
1667581572669621200,1.346621337890625,0.46306467075049873,0.25485972720980643,-0.8286658693537116
1667581572679643100,1.35664306640625,0.32417350193262096,0.6007283436000347,-0.6163458917096257
1667581572689664000,1.3666640625,-0.0594867927134037,0.5969073240071535,-0.6735325907871127
1667581572699686100,1.37668603515625,-0.299581496989727,0.5183712551698089,-0.35544615368321536
1667581572709707000,1.38670703125,-0.317483648905158,0.5946694819524884,-0.31101869067475196
1667581572719729200,1.396729248046875,-0.17973112872838973,0.6991282198145985,-0.16809359016567468
1667581572729751000,1.4067509765625,0.04220481852293014,0.730336428026855,-0.020505174020677804
1667581572739772200,1.416772216796875,0.25754677433669565,0.7269386022821068,0.09501052603721619
1667581572749794300,1.426794189453125,0.38014556452333925,0.6759969350740314,0.08044730928614735
1667581572759816200,1.436816162109375,0.4066314203888178,0.5890840830355882,0.008854337584972382
1667581572769836800,1.4468369140625,0.4499024068385362,0.48146571209877725,-0.07221724564593751
1667581572779859000,1.45685888671875,0.5031348153322934,0.38688948582559823,-0.17364347937777638
1667581572789880800,1.466880859375,0.5344049828648567,0.31136487376391886,-0.1683531178846955
1667581572799901700,1.476901611328125,0.5729197146981955,0.28429917218387124,-0.0008677227452397346
1667581572809923800,1.486923828125,0.5082926364868879,0.28852789579480886,0.18517900060443207
1667581572819945700,1.49694580078125,0.29916940905749795,0.35503362735956906,0.2719068697310984
1667581572829966800,1.506966796875,0.056338557815551756,0.458532288017869,0.2689183554396033
1667581572839989000,1.516989013671875,-0.10664484972953796,0.4977437699437141,0.26988486238420006
1667581572850011000,1.527010986328125,-0.18244857099354267,0.45946167782247066,0.3478687041662633
1667581572860031700,1.53703173828125,-0.12870996654331684,0.38112113155722616,0.4096673905512318
1667581572870054000,1.547053955078125,-0.03061901014745235,0.3188099290728569,0.46412802566569294
1667581572880076000,1.557075927734375,0.042778819018602365,0.28195465488433835,0.48991073823049663
1667581572890097000,1.567096923828125,0.09505611874461173,0.24936405240297316,0.5427962329827248
1667581572900118800,1.577118896484375,0.05453881491720676,0.2669987855538726,0.5832235204391181
1667581572910140700,1.587140625,0.06798574098944664,0.2651078572407365,0.6479987749494612
1667581572920161800,1.597161865234375,0.10428279677331447,0.23932810381799935,0.755808722935617
1667581572930184000,1.607183837890625,0.13930617935955525,0.22689853809475896,0.845797767549008
1667581572940205800,1.617205810546875,0.1442483119368553,0.21943740843385456,0.9466287433680146
1667581572950226700,1.627226806640625,0.11241817243397235,0.1860112319111824,0.9904854938164352
1667581572960248800,1.637248779296875,0.06713993781507015,0.15034253715872764,1.0208719373170285
1667581572970271000,1.64727099609375,0.022761866906285285,0.15092559774369,1.046829604589939
1667581572980291800,1.657291748046875,-0.08505144208073616,0.15688246032148598,0.9824077666271477
1667581572990313700,1.667313720703125,-0.2998784341096878,0.14547522338330746,0.9102000970937311
1667581573000336000,1.6773359375,-0.547002598631382,0.1555371831923723,0.8488656306870281
1667581573010357000,1.68735693359375,-0.7498036373019218,0.16458441300094126,0.8415405484959483
1667581573020379000,1.69737890625,-0.8072375891387462,0.20986644701212642,0.939237171811983
1667581573030399700,1.707399658203125,-0.6734937200814485,0.28074615587741136,1.0730040564186871
1667581573040421600,1.717421630859375,-0.37687107289731503,0.28946400760114194,1.155808596355468
1667581573050443800,1.72744384765625,-0.06994447384178638,0.2486576576992869,1.1459260117013006
1667581573060465000,1.73746484375,0.10482406404316424,0.19656886628270148,1.0729843288049101
1667581573070486800,1.74748681640625,0.07757189998030663,0.13705664686709643,0.9750862646326423
1667581573080509000,1.757509033203125,-0.006006546938419342,0.07814882308542728,0.9253862680487335
1667581573090529800,1.76752978515625,-0.216226921954751,0.06966770272701979,0.8713061566844582
1667581573100552000,1.777552001953125,-0.32382629593014717,0.11786591644585132,0.8812523080941289
1667581573110573800,1.78757373046875,-0.30459786384701726,0.18805121330618857,0.898891790485382
1667581573120594700,1.7975947265625,-0.21840718860328195,0.20582535492777823,0.9386051575187593
1667581573130616800,1.807616943359375,-0.15170271959602832,0.20389730947464704,0.9366622067574412
1667581573140638700,1.817638671875,-0.1659077705591917,0.14871873534917832,0.8857442126858979
1667581573150659800,1.827659912109375,-0.23898294364213943,0.14603139596134423,0.8363241290219128
1667581573160681700,1.837681640625,-0.2926747863411903,0.18151567405760288,0.827136979286
1667581573170704000,1.847703857421875,-0.37034079434573647,0.21525369300842284,0.8434042234759778
1667581573180724700,1.857724853515625,-0.3695335696160793,0.2625792155459523,0.9872427125029265
1667581573190747000,1.867746826171875,-0.2613181095689535,0.35341479398608205,1.1046670226611197
1667581573200769000,1.87776904296875,-0.14982465076446533,0.3994777492418885,1.1378158435471355
1667581573210790000,1.887789794921875,-0.0893716433674097,0.4054819580927491,1.0899696581363678
1667581573220811800,1.897811767578125,-0.08792261360287666,0.4248313862070441,1.031432494297996
1667581573230833700,1.907833740234375,-0.15972762061953544,0.5467541768282651,1.0932263949099927
1667581573240854800,1.917854736328125,-0.3855319337368011,0.2831491253659129,1.010023284109682
1667581573250877000,1.927876953125,-0.45696518483161924,0.21539836217612027,1.089567726271972
1667581573260898800,1.93789892578125,-0.5536480279952287,0.257449159181118,1.020713385754451
1667581573270919700,1.947919677734375,-0.7099684705197811,0.33665216749459503,1.0197100539308042
1667581573280941800,1.95794189453125,-0.7365782450258731,0.4437687263891101,1.1154293858245015
1667581573290964000,1.9679638671875,-0.7432388719588517,0.5083735927686095,1.1141920991145073
1667581573300984800,1.97798486328125,-0.7137894901126622,0.5283695020928979,1.1830076419916002
1667581573311006700,1.9880068359375,-0.6744301241487264,0.5428349575579167,1.227387393400818
1667581573321027800,1.99802783203125,-0.5986421849757433,0.5700275003880262,1.265785074725747
1667581573331050000,2.008050048828125,-0.49012511163353917,0.6117167706042528,1.3038938561066984
1667581573341072000,2.01807177734375,-0.4428758692026138,0.6633148558944464,1.3258166418403385
1667581573351092700,2.0280927734375,-0.4582920495212078,0.7278741295665502,1.3392299579039215
1667581573361114600,2.038114501953125,-0.4830675943374633,0.761252375294268,1.3000355732433497
1667581573371137000,2.048136962890625,-0.49921793414950366,0.7658364882141351,1.2415528430059553
1667581573381158000,2.058157958984375,-0.45883039418160915,0.7882032183229922,1.2701833096846937
1667581573391179800,2.0681796875,-0.3804740658253431,0.8562406894996761,1.2661439711660145
1667581573401201700,2.07820166015625,-0.2718605463713407,0.8791168304353952,1.2721382431447505
1667581573411223000,2.08822314453125,-0.18086743928194046,0.9024792935833335,1.2501537903517483
1667581573421245000,2.098244873046875,-0.07218962242007256,0.8591568692073226,1.1895994414720683
1667581573431266800,2.108266845703125,-0.006447860965132713,0.8138996773764491,1.1707380891356616
1667581573441287700,2.11828759765625,-0.0024181670576334,0.7810001550763845,1.1695471257854253
1667581573451309800,2.128309814453125,0.05751403133571147,0.7668865817889571,1.1939032030805945
1667581573461332000,2.13833203125,-0.07649637970328331,0.7176198620557784,1.1825087525587528
1667581573471352800,2.148352783203125,-0.37962709360718727,0.7028253207668662,1.087611696833372
1667581573481374700,2.158374755859375,-0.5695780030548572,0.7290452191725373,0.9165537039041519
1667581573491396900,2.16839697265625,-0.5952490354061126,0.7928978058800101,0.889273044399172
1667581573501418000,2.17841796875,-0.5540057553917169,0.8633391233280301,0.8785098775181919
1667581573511440000,2.18843994140625,-0.46740123865008354,0.9067834205180406,0.8324938301440328
1667581573521461800,2.198461669921875,-0.27622517132163044,0.8731658130764961,0.7623191277429461
1667581573531483000,2.20848291015625,-0.022167992666363715,0.7832870969697833,0.6774800132386386
1667581573541504800,2.2185048828125,0.10753507656753063,0.6524895104974507,0.5582410548739135
1667581573551526000,2.22852587890625,0.11618249340355395,0.5716171076670289,0.39214872152805325
1667581573561547800,2.2385478515625,0.10073942507803439,0.49622459755241866,0.2595256731942296
1667581573571570000,2.24856982421875,0.009915829336643218,0.420993415479362,0.22795834934599696
1667581573581590800,2.2585908203125,-0.12979367012679577,0.3477648054003715,0.19072021331973374
1667581573591613000,2.268613037109375,-0.23675474619865416,0.31726065380424257,0.18187062497511505
1667581573601634800,2.278634765625,-0.25433891820609567,0.4007596057459712,0.16009214308299125
1667581573611656000,2.288656005859375,-0.19564532169699667,0.5208715475529432,0.15589673721976577
1667581573621677800,2.298677734375,-0.07455576702952385,0.6035694122448563,0.20057130685709415
1667581573631699700,2.30869970703125,-0.0023123685956001282,0.6139060973420739,0.24805958220828322
1667581573641720800,2.318720947265625,-0.038865444967150685,0.6674316435635089,0.20390264323689042
1667581573651743000,2.328742919921875,-0.2364443650752306,0.6921493207126855,-0.02637647720687091
1667581573661764900,2.338764892578125,-0.5789981578290462,0.7232292263701557,-0.24460217176340518
1667581573671785700,2.34878564453125,-0.9215414291888475,0.723113198775053,-0.3696718455756083
1667581573681808000,2.358807861328125,-1.232485447192192,0.7436573896318673,-0.4680891478490084
1667581573691830000,2.368830078125,-1.2671756523013114,0.786415165862441,-0.4950459822271019
1667581573701851000,2.378850830078125,-1.0752928980082272,0.7847346654295921,-0.5747304173819721
1667581573711872800,2.388872802734375,-0.5891922195851802,0.7156202126711606,-0.6678441698871552
1667581573721894700,2.398894775390625,0.1108124908030033,0.5923638353586197,-0.7372360513474792
1667581573731916000,2.408916015625,0.787813926744461,0.4619558327257633,-0.6724583856843411
1667581573741938000,2.41893798828125,1.3217863634109497,0.30367461152225733,-0.600604717220366
1667581573751959800,2.428959716796875,1.6358037975102662,0.15584785657674075,-0.6164172033801675
1667581573761980700,2.438980712890625,1.9093162027418613,-0.016231588354706762,-0.6154194245144724
1667581573772002600,2.44900244140625,2.217766650363803,-0.12256021174192427,-0.5499605716541409
1667581573782024700,2.459024658203125,2.3490800774037837,-0.22235534170717,-0.4617170555338263
1667581573792045600,2.469045654296875,2.339416761523485,-0.2580620303824544,-0.3811141172945499
1667581573802067500,2.4790673828125,2.11310742149353,-0.25667262185066936,-0.3164018450178206
1667581573812088600,2.489088623046875,1.53333301859498,-0.23909867897629736,-0.30933000693544743
1667581573822110500,2.4991103515625,0.6598930647522211,-0.1802966536566615,-0.2530460471176542
1667581573832132600,2.509132568359375,-0.2745902635961771,-0.0926695158690214,-0.17198467932008205
1667581573842153500,2.519153564453125,-1.1066805544406175,-0.0318216639354825,-0.1546209451302886
1667581573852175400,2.52917529296875,-1.7154262002795935,-0.04002279830873012,-0.13863500209972263
1667581573862197500,2.539197509765625,-1.88151108097136,-0.1273933309867978,-0.05264160299375653
1667581573872218600,2.549218505859375,-1.5493717147260904,-0.16936463301479815,-0.08996822102107108
1667581573882240500,2.559240478515625,-0.9795657481342553,-0.28487171137481926,-0.19485534036308527
1667581573892262400,2.569262451171875,-0.3781359782665968,-0.5720858942225575,-0.2715223273929208
1667581573902283500,2.579283447265625,-0.023148235875368118,-0.2518810036599636,-0.05281183586097322
1667581573912305700,2.5893056640625,0.27300153310000896,0.07702420296967029,-0.38741614004820585
1667581573922327600,2.59932763671875,0.3360521557748318,-0.7820391427353024,-0.4019033689536154
1667581573932348400,2.609348388671875,0.7469979322314262,-1.145798220603168,0.037738267568126316
1667581573942370300,2.619370361328125,0.8618786953866481,-1.4133894190922378,0.23944340076074003
1667581573952392700,2.629392822265625,0.5745341641575098,-1.5148706024482845,0.11570556007418781
1667581573962413600,2.63941357421875,0.09549860181510447,-1.2719459354430436,0.11842888409085571
1667581573972435500,2.649435546875,-0.16037585539519786,-0.9550093990266323,-0.05789444548804313
1667581573982457300,2.659457275390625,-0.5831511858552694,-0.960802595475316,0.23499683314803987
1667581573992478700,2.669478759765625,-0.33476562309563157,-0.8726645855560898,-0.3694334337098524
1667581574002500600,2.67950048828125,0.3639572307884693,-0.643219870109856,-1.18458650868088
1667581574012522500,2.6895224609375,1.1161726054072378,-0.5295902760595083,-1.6126923865139484
1667581574022543400,2.69954345703125,1.7474761200129985,-0.46554362808465954,-1.5838775031790135
1667581574032565500,2.7095654296875,1.746900365951657,-0.5103241423144936,-1.0477963307302445
1667581574042587400,2.71958740234375,1.6795622752159833,-0.3492898230105638,-0.6260686096269636
1667581574052608500,2.7296083984375,1.686022995662689,-0.11155132647156715,-0.07753054505661129
1667581574062630400,2.73963037109375,1.677813385722041,0.12772358585447072,0.24406938006095585
1667581574072651500,2.749651611328125,1.451080851843953,0.2564250768303871,0.44332858140617604
1667581574082673700,2.759673583984375,1.031997361639142,0.3323252442061901,0.37701793402209877
1667581574092695600,2.769695556640625,0.36233225993514057,0.2113198606908321,0.219491622839123
1667581574102716400,2.77971630859375,-0.5798381157845258,0.10539601871222257,-0.4045841324701905
1667581574112738600,2.789738525390625,-1.5542963116467,0.23419337127804754,-1.086539391426742
1667581574122760400,2.799760498046875,-2.210873383718729,0.3454012911394238,-1.6377800660192965
1667581574132781600,2.809781494140625,-2.4002280808389185,0.5305576597869396,-1.9886907682299613
1667581574142803500,2.819803466796875,-2.20579914919436,0.673929188889265,-2.220517264246195
1667581574152825600,2.82982568359375,-1.8347382238805292,0.681958181566,-2.2154954905614255
1667581574162846500,2.839846435546875,-1.4714771586626767,0.36129765619039533,-2.0989127457939087
1667581574172868600,2.84986865234375,-1.1737404127568005,-0.0323009718850255,-1.9423697465598582
1667581574182890500,2.859890380859375,-0.8152157284110784,-0.2580345578536391,-1.8153323894038795
1667581574192911600,2.86991162109375,-0.3613105156719684,-0.2114998934328556,-1.8658786275535821
1667581574202933500,2.87993359375,-0.005676876592636108,-0.06986702469140291,-1.89614677843675
1667581574212955400,2.889955322265625,0.2586766551494598,0.06378536669015884,-1.806647855427861
1667581574222976500,2.8999765625,0.529592614147067,0.26044191125631333,-1.5729042737439274
1667581574232998700,2.90999853515625,0.739292180159688,0.32548838392347096,-1.4330471825033426
1667581574243020500,2.9200205078125,0.5899649575233459,0.18612141428738832,-1.4286689674191175
1667581574253041400,2.93004150390625,-0.01445405728816986,0.009515139581263064,-1.4951013414867222
1667581574263063600,2.9400634765625,-0.7242196987122297,-0.008436696694791317,-1.555664238999039
1667581574273085700,2.950085693359375,-1.2421253821969032,0.05053571675568819,-1.5128632081486284
1667581574283106600,2.9601064453125,-1.5138748694092035,0.2536374919384718,-1.5500775249078869
1667581574293128400,2.97012841796875,-1.400921274924278,0.535323851275444,-1.5487468608260153
1667581574303150300,2.980150390625,-0.9963947178602218,0.7522980844661593,-1.4729504460856317
1667581574313171500,2.99017138671875,-0.574002249237895,0.6765349874734878,-1.3488830446511506
1667581574323193600,3.000193603515625,0.05432429538369178,0.5726692470684647,-1.287358462499827
1667581574333214500,3.01021435546875,0.6115308926433325,0.4213885522767901,-1.1064921191964299
1667581574343236400,3.020236328125,0.9557026419878005,0.1757075723007321,-0.7516704540871083
1667581574353258500,3.030258544921875,1.1229466295868158,-0.03504559441804886,-0.46690885202325877
1667581574363279600,3.040279541015625,1.46723762139678,0.18639292470514773,-0.3094152740661055
1667581574373301500,3.050301513671875,1.5751678347617386,0.30456717644780873,-0.26784100853167475
1667581574383323400,3.060323486328125,1.1470412064015865,-0.05091419467926025,-0.2478352354004979
1667581574393344500,3.070344482421875,1.0868214232385158,-0.15833821208775042,-0.26525230721272525
1667581574403366700,3.08036669921875,0.9950415496855973,-0.2983262362316251,-0.3704020960789174
1667581574413388500,3.090388427734375,0.7838549599856138,-0.43902211638391014,-0.5096729118641465
1667581574423409400,3.100409423828125,0.5237865582168102,-0.47628830946087836,-0.5379645750425756
1667581574433431300,3.110431396484375,0.2894949872612953,-0.45258799266070127,-0.4253841977842152
1667581574443453400,3.120453369140625,0.18978548975288867,-0.3358069488421082,-0.2959250203087926
1667581574453474600,3.130474609375,0.09117781600654125,-0.22414047155827282,-0.10466346665397286
1667581574463496400,3.140496337890625,-0.10707330427467822,-0.13966390675604343,0.12732541684973983
1667581574473518600,3.1505185546875,-0.20754151119589803,-0.04212064737081527,0.3110222343387082
1667581574483539500,3.16053955078125,-0.09156476949751377,0.04800736732184887,0.3755283530514687
1667581574493561600,3.1705615234375,0.1289776775687933,0.14143354677706957,0.42006541391424834
1667581574503583500,3.18058349609375,0.18647417324781418,0.10150281066596507,0.5579183987908065
1667581574513604400,3.190604248046875,0.23281389961838722,0.02267272731810808,0.6032584100669249
1667581574523626500,3.20062646484375,0.27850597573518754,-0.010653788222372531,0.5591604712737723
1667581574533648400,3.2106484375,0.2997644523411989,-0.03130933049917221,0.5141633551511913
1667581574543669500,3.22066943359375,0.35304186902046203,-0.03051058133691549,0.5053395223023369
1667581574553691400,3.23069140625,0.35388474958539007,-0.01740326248258352,0.5416963089168071
1667581574563712500,3.24071240234375,0.3009241437703371,-0.0045984337061643595,0.5846849347611889
1667581574573734400,3.250734375,0.2301087323129177,-0.0176198278427124,0.6286997618481517
1667581574583756500,3.260756591796875,0.11733400152623653,-0.02846680054962635,0.643763256271556
1667581574593777400,3.27077734375,-0.07269348028898238,0.029695757822692393,0.5210384285524488
1667581574603799600,3.280799560546875,-0.22128771247565746,0.03134849346578121,0.40939566093776375
1667581574613821400,3.290821533203125,-0.3672206164985895,-0.011885668104887007,0.4188405482944101
1667581574623842600,3.300842529296875,-0.33386195225417614,-0.05846417166739702,0.4468088978026062
1667581574633864400,3.310864501953125,-0.1873626465201378,-0.025698797141015528,0.5495134124085307
1667581574643886600,3.320886474609375,-0.06675181528031826,0.005464110624790191,0.5835002915538847
1667581574653907500,3.330907470703125,-0.02260346147418022,0.01395516785532236,0.5532477766312659
1667581574663929300,3.340929443359375,0.032733810344338414,0.014538228440284727,0.6403222489722072
1667581574673951500,3.350951416015625,0.10801438451707362,-0.007241641691327095,0.7202355244468898
1667581574683972600,3.36097265625,0.22734920447170734,0.0038882396101951595,0.7599563441343605
1667581574693994500,3.370994384765625,0.4106903403908014,0.06815203746706247,0.7670449872210622
1667581574704016400,3.381016357421875,0.4714151504665613,0.0038470308169722555,0.8016507289171219
1667581574714037500,3.39103759765625,0.30577625997662544,-0.09502660038918256,0.8346699320740998
1667581574724059600,3.4010595703125,0.04765197801291942,-0.1122287873417139,0.8359503272734582
1667581574734081500,3.41108154296875,-0.2170452526003122,-0.08134966495335101,0.8711703284103423
1667581574744102400,3.421102294921875,-0.44236441254913805,-0.0424070630967617,0.9511574728388339
1667581574754124300,3.431124267578125,-0.5667307969301939,0.001071136362850666,1.095716969616711
1667581574764146700,3.441146728515625,-0.6126870769411326,0.03964198229759931,1.1721236982751637
1667581574774167600,3.45116748046875,-0.5323772764295339,0.0592079757720232,1.2086151806525884
1667581574784189400,3.461189453125,-0.38941315908432006,-0.024381869323551655,1.1700184696242213
1667581574794210600,3.47121044921875,-0.19008359591662882,-0.13492577231824399,1.0781278291732073
1667581574804232400,3.481232421875,-0.12513503066599369,-0.2688943900421262,1.0705068327754734
1667581574814254600,3.491254638671875,-0.17269699230790136,-0.2993497340604663,0.9842075095254927
1667581574824275500,3.501275390625,-0.2780997330218553,-0.2633846867099404,0.9770562495313584
1667581574834297300,3.51129736328125,-0.4193348346173763,-0.24440000025480985,1.0965699331842362
1667581574844319500,3.521319580078125,-0.4885948333263397,-0.20512217509448527,1.2147751645870506
1667581574854340600,3.531340576171875,-0.4315039958387613,-0.13077449785768985,1.2805275935664773
1667581574864362500,3.541362548828125,-0.3129962743580341,-0.1372056999489665,1.2969099885687232
1667581574874384400,3.55138427734375,-0.144571552541852,-0.23054273981600998,1.2642131492339075
1667581574884405200,3.5614052734375,-0.027498832300305365,-0.37553397907465697,1.1578583684921264
1667581574894427600,3.571427734375,0.04957680859565734,-0.46664895897805686,1.0718399810753763
1667581574904449500,3.581449462890625,0.08690379194915294,-0.4688350708454847,1.0441823049515486
1667581574914470400,3.591470458984375,0.0749631787866354,-0.4377700704962015,0.9685780517823993
1667581574924492300,3.6014921875,0.07228723757565021,-0.38063364030122754,0.9096309189036488
1667581574934514400,3.611514404296875,0.07769815670847892,-0.3609530805364251,0.9731054660789668
1667581574944535600,3.62153564453125,0.1388414844572544,-0.2689326762259006,1.0152990325555205
1667581574954557400,3.631557373046875,0.21071195792555808,-0.178218093816936,1.015490171213448
1667581574964579600,3.64157958984375,0.21510931610167025,-0.15491612868458032,0.9993117743507027
1667581574974600400,3.651600341796875,0.15249123962521552,-0.17116788304448127,0.8836238595310598
1667581574984622600,3.66162255859375,0.06895780089199542,-0.1290972122952342,0.7042959778413176
1667581574994644500,3.67164453125,0.06259118846952914,-0.054798050375282764,0.5647322069915012
1667581575004665300,3.681665283203125,0.07144903318583964,-0.04905483054816723,0.534138221687451
1667581575014687500,3.6916875,0.04630874671041965,-0.07402355984896421,0.547866266256012
1667581575024709400,3.70170947265625,-0.014466332247853278,-0.048773967780172824,0.5659392081610858
1667581575034730500,3.71173046875,-0.15379881509244442,-0.020310674361884593,0.5931935641810298
1667581575044752400,3.72175244140625,-0.2697743877470493,0.02177899334877729,0.6112331518057733
1667581575054773500,3.7317734375,-0.2907669068932533,0.055224751354753965,0.6182995099954307
1667581575064795400,3.74179541015625,-0.20575462777912615,0.01699760429114103,0.4241346726471558
1667581575074817500,3.751817626953125,-0.011249123767018317,-0.14567834473997354,0.12880433029588312
1667581575084838400,3.76183837890625,0.23545301595032214,-0.26514789699018,-0.1122597670018673
1667581575094860500,3.771860595703125,0.37198037824630736,-0.28107641074508427,-0.3241310875630006
1667581575104882400,3.78188232421875,0.2573608963757753,-0.44401101071238513,-0.4849436904076487
1667581575114903600,3.791903564453125,0.03207622321844101,-0.5319745408475399,-0.7691951509922742
1667581575124925400,3.801925537109375,-0.32162147936224933,-0.5960954231023788,-1.0910356799326837
1667581575134947600,3.811947509765625,-0.6469049883633852,-0.5824199489712715,-1.2674341571070253
1667581575144968400,3.821968505859375,-0.8829600618600845,-0.4416767225459218,-1.140833949259296
1667581575154990300,3.831990234375,-0.9706786773234605,-0.18820932647734878,-1.0099315872382373
1667581575165012500,3.842012451171875,-1.0718126546770335,0.09480302076637745,-0.9329535614978521
1667581575175033600,3.85203369140625,-1.019705450820923,0.3403261798322201,-0.845623726156354
1667581575185055500,3.862055419921875,-0.8532558284699916,0.3062742726266384,-0.8524903239902109
1667581575195077400,3.872077392578125,-0.5527472797632217,0.08642448399960995,-1.0579089247480034
1667581575205098500,3.882098388671875,-0.16222703621983528,-0.27545360242724415,-1.2667846071571112
1667581575215120600,3.89212060546875,0.11716273661255835,-0.681489979532361,-1.2951932477787136
1667581575225142500,3.902142578125,0.8456301558971404,-0.5823451301693916,-1.540707346755266
1667581575235163400,3.912163330078125,1.336381290474534,-0.3782388541191816,-1.3766381898000835
1667581575245185300,3.922185302734375,0.9038777622044086,-0.9004039486140012,-1.4584505038291216
1667581575255206400,3.932206298828125,0.10119535215198994,-1.4994266573399304,-1.4982014994591473
1667581575265228500,3.942228515625,-0.5609095434308051,-1.3246388302326202,-1.78975283472836
1667581575275250400,3.95225048828125,-0.9365694869726896,-0.3461445107221603,-2.5692928541243076
1667581575285271300,3.962271240234375,-1.2022305941820144,-0.24472937833964822,-1.677141039418429
1667581575295293700,3.972293701171875,-0.9403437448143959,-0.028905191966891286,-1.0713586272992193
1667581575305315600,3.982315673828125,-0.6574824964791536,-0.06440320632755756,-0.6195118083946406
1667581575315336400,3.99233642578125,-0.3676555007845163,-0.5704875191152096,-0.6318567645743489
1667581575325358300,4.0023583984375,0.4808896657764911,-1.124445928233862,-1.0055715653978288
1667581575335380500,4.01238037109375,1.4996166269540785,-1.6339228060692548,-1.3542165146335958
1667581575345401600,4.022401611328125,1.5151970579236744,-2.0768436834573745,-1.4154881449371575
1667581575355423500,4.032423583984375,0.9509270981490612,-2.1470307338833807,-1.1427686436489224
1667581575365445400,4.0424453125,0.8987655337572097,-1.4856448002249,-1.0824658583775162
1667581575375466200,4.05246630859375,1.2040110478579997,-0.5081722249776125,-1.4722874521322546
1667581575385488400,4.06248828125,1.3805237990617751,-0.1964852796524763,-1.4391643502093852
1667581575395510500,4.072510498046875,1.0395604903697966,-0.5107359379857779,-1.1264929238915442
1667581575405531400,4.082531494140625,1.1129121423065662,-0.23124913451969623,-0.8242148812942206
1667581575415553500,4.092553466796875,1.7560171538650988,0.1478910523533821,-0.650681876553595
1667581575425575400,4.102575439453125,2.063569191342592,0.05800035354793071,-0.6830079828798771
1667581575435596500,4.112596435546875,1.9571160647928714,-0.06775017866790295,-0.8406517829626798
1667581575445618400,4.122618408203125,1.5343500866830349,-0.005721884778141975,-0.869061008106172
1667581575455640600,4.132640625,0.8039864783883094,0.24760522603690624,-0.651041942037642
1667581575465661400,4.142661376953125,0.2745528541952371,0.6790595375150442,-0.9766313021175562
1667581575475683300,4.152683349609375,-0.03851239374577999,1.0863654961645604,-1.0023122713409363
1667581575485704400,4.162704345703125,-0.3666670742690563,1.3776999738126992,-0.8054559664189815
1667581575495726300,4.172726318359375,-0.5072130245566367,1.5824848797768354,-0.8070224850833415
1667581575505748500,4.18274853515625,-0.6184703365176916,1.6922306181311606,-0.8865919886216521
1667581575515769600,4.19276953125,-0.12072130587697029,1.6873469377428292,-0.45334202589839695
1667581575525791500,4.20279150390625,0.4001461500227451,1.7038006444156168,-0.6387434553481638
1667581575535813600,4.212813720703125,0.9200450531512498,1.7804793949484825,-0.4187054506726563
1667581575545834500,4.22283447265625,1.3234364687055349,1.5178431885182857,-0.6763152072429657
1667581575555856400,4.2328564453125,1.1875719542324543,1.2124983056962488,-0.9281453574985266
1667581575565878300,4.242878173828125,1.3219792556345462,1.5588064825475214,0.15439911907315254
1667581575575899400,4.2528994140625,1.1931436168849467,1.4111644365191458,0.6148686587639153
1667581575585921500,4.262921630859375,0.8456897771298885,1.1414707127928734,0.7109227025046945
1667581575595943400,4.272943359375,0.9485124382227659,1.4324100536435842,0.8093415756806731
1667581575605964500,4.282964599609375,0.957947206044197,1.4002718711048363,1.0793258067861198
1667581575615986400,4.292986328125,0.6900397812128066,0.901336845549941,1.359144764816016
1667581575626008600,4.303008544921875,0.5162929875910282,0.44506957985460754,1.0898365332759916
1667581575636029400,4.313029541015625,0.0095288758456707,0.05010580090582371,0.3352376245215535
1667581575646051300,4.32305126953125,-0.1813666209757328,-0.39473347732424735,-0.21956337290108202
1667581575656073500,4.333073486328125,-0.2633528302669525,-0.9286030381381511,-0.30273645388931036
1667581575666094600,4.343094482421875,-0.2381166822016239,-1.1882990994632243,-0.13661533284038305
1667581575676116500,4.353116455078125,0.15038579177856445,-1.4084586846917866,0.1609405035406351
1667581575686137300,4.363137451171875,0.6489853017687797,-1.6163368804961442,-0.015310235726088285
1667581575696159500,4.373159423828125,0.8809165733337402,-1.4046744899779557,-2.3204408428966996
1667581575706181600,4.383181640625,0.8651321442246437,-1.8966484443485736,-1.46711633310467
1667581575716202500,4.393202392578125,1.1729068845421076,-2.7679192374587056,0.22504107365980744
1667581575726224400,4.403224365234375,1.1194997040033339,-3.5283494827151296,2.203901498879492
1667581575736246300,4.413246337890625,0.7448761177718639,-3.5816344981789587,2.7037054162234067
1667581575746267600,4.423267578125,1.0406365951687098,-3.0985423539221286,-0.5045720085285603
1667581575756289500,4.43328955078125,1.5467957267582415,-3.59716758287549,-1.0756911035455763
1667581575766312200,4.443312255859375,2.126496479898691,-4.421933229920268,-0.2626224701657891
1667581575776333300,4.453333251953125,3.258008693256974,-4.003340738102794,-0.8820677891954779
1667581575786355200,4.463355224609375,3.8709833549678323,-3.7774031539946793,1.2041964874275028
1667581575796377000,4.473377197265625,3.924891470766067,-3.389618472895026,2.918786383013427
1667581575806398200,4.483398193359375,3.792763804733753,-2.3136212260097264,2.970005405858159
1667581575816420400,4.49342041015625,3.3034394880890843,-2.4392080920964476,3.2030554523199797
1667581575826442200,4.503442138671875,3.7730391135662793,-2.468288640630245,1.5063323450751602
1667581575836463000,4.513463134765625,4.19426721458435,-1.4474696756094694,0.7717612020879984
1667581575846485200,4.5234853515625,4.500429259008169,-1.1107792219311,1.3727613483667374
1667581575856507400,4.53350732421875,4.159689237678051,-1.1046809050559996,1.974004363490641
1667581575866528300,4.5435283203125,2.5856746646046638,-0.490559995919466,2.1559534605294464
1667581575876550100,4.553550048828125,0.14953122077584266,1.4124012848377228,0.4695008412778377
1667581575886571300,4.5635712890625,-2.1075345897972584,2.9626725787520405,-0.08391133213490247
1667581575896593400,4.573593505859375,-3.0526018560022115,3.446077442219853,0.06027706630825996
1667581575906615300,4.583615234375,-2.6044015769064424,3.5808073997050522,-0.24990181254148483
1667581575916636200,4.59363623046875,-1.0960884332776069,3.573894259315729,-1.049827032840252
1667581575926658000,4.603657958984375,0.43692076019048687,3.5180975532919168,-1.5236068666115403
1667581575936680200,4.61368017578125,1.571097808843851,3.552787758401036,-1.457932909695804
1667581575946701300,4.623701416015625,1.6086872425258159,3.5430800188571214,-1.7344027034282683
1667581575956723200,4.63372314453125,0.4258019848048687,3.595617430824041,-2.162817501080036
1667581575966745000,4.6437451171875,-1.448628782516718,4.07347167442739,-1.839925563390553
1667581575976766200,4.65376611328125,-3.245051012006402,5.047129075300694,-1.097878531564772
1667581575986788400,4.663788330078125,-4.134325079318881,5.694258520069718,-0.5125774741992354
1667581575996810200,4.673810302734375,-4.283275869858264,5.892029163357615,-0.049259120948612685
1667581576006831000,4.6838310546875,-3.8231554358661173,5.8152288322716945,0.12063508889824151
1667581576016853200,4.693853271484375,-2.7878344827622175,5.732624198821187,0.16093202797323464
1667581576026875100,4.703875244140625,-1.2802110749632118,5.63474133221805,0.5051652982465923
1667581576036896300,4.713896240234375,0.4853963295459747,5.507072983682155,1.0510457609802484
1667581576046918100,4.723918212890625,1.6753163082092999,5.556607122179866,1.3382599438279867
1667581576056940300,4.733940185546875,2.0530162331461903,5.670999809557199,1.4711413508370519
1667581576066961400,4.74396142578125,2.036765940091014,5.797978422263264,1.4669571970202029
1667581576076983300,4.7539833984375,1.625080158922076,5.922395660048723,1.388869894863665
1667581576087005200,4.764005126953125,1.046013027510047,5.999284253939986,1.4784280007138848
1667581576097026000,4.774026123046875,0.5871423013180493,5.912372863206267,1.6153987228631972
1667581576107048200,4.784048095703125,0.3916068697363138,5.551686032390594,1.7927302431039511
1667581576117069300,4.7940693359375,0.6067933427274227,4.9859489226728675,2.0134797570496796
1667581576127091200,4.80409130859375,1.2901222281247378,4.113701393485069,2.130750337950885
1667581576137113300,4.81411328125,1.948767338642478,3.100283060109615,1.9931334268525243
1667581576147134200,4.82413427734375,2.2295330760031935,2.3405595018178222,1.6298549721084534
1667581576157156400,4.83415625,2.023375128120184,1.7945529284864663,1.3832466481544077
1667581576167178200,4.84417822265625,1.7497762136489152,1.4563807118177412,1.1581200881682336
1667581576177199000,4.85419921875,1.5042647450208664,1.3124369357854127,0.7948128457210958
1667581576187221200,4.86422119140625,0.9566086509168148,1.1498925041794776,0.6203304313011467
1667581576197243100,4.8742431640625,0.3338941009581089,0.944358825674653,0.7235577276721596
1667581576207264300,4.88426416015625,-0.08402852877378464,0.8480196813821792,0.7898189829565584
1667581576217286100,4.8942861328125,-0.22925299226641654,0.6387368794769048,0.7457347804278135
1667581576227308300,4.904308349609375,-0.4717722933411598,0.43203824884593484,0.3938265916123986
1667581576237329200,4.9143291015625,-1.1519593735814093,0.2229804878681898,-0.23378683630377053
1667581576247351300,4.924351318359375,-2.07026839672029,-0.09321370574831962,-0.7365035723544657
1667581576257373400,4.93437353515625,-2.726746684592962,-0.3889490487039089,-0.9703478379338979
1667581576267394300,4.944394287109375,-2.912144753041863,-0.7080693589001894,-0.8136718599699437
1667581576277416200,4.954416259765625,-2.9736937389820812,-0.9202432060718536,-0.8019380214259028
1667581576287438000,4.96443798828125,-2.826198407948017,-1.1547896285712718,-0.6132967332720756
1667581576297459200,4.974459228515625,-2.504165425175428,-1.291930738851428,-0.3775616855099797
1667581576307481300,4.9844814453125,-1.8395675437331198,-1.4219547106027601,-0.13446516906917094
1667581576317502200,4.994502197265625,-0.9972288305968046,-1.7055892813980578,-0.016436609407514333
1667581576327524000,5.004524169921875,-0.4343324972629547,-1.9352678056001662,-0.1907254009515047
1667581576337546000,5.0145458984375,-0.37738895929157734,-1.9815747987449168,-0.6497780595816671
1667581576347567400,5.0245673828125,-0.31556144867092367,-2.2898639183253047,-0.702425653924793
1667581576357589200,5.03458935546875,-0.052202480924129484,-2.2769372167348862,-0.9731551504395901
1667581576367611100,5.044611083984375,0.08842880955934523,-2.2211703213274476,-1.354949505083263
1667581576377632300,5.05463232421875,0.049213528241217136,-2.368348256975412,-1.7458669312506914
1667581576387654400,5.064654296875,-0.0825964501440525,-2.5815023473560808,-2.0140920437291263
1667581576397676300,5.07467626953125,-0.32374855451881884,-2.4030144966870544,-1.5516358602657914
1667581576407697200,5.084697265625,-0.4569061481207609,-2.446210664334893,-1.2982032432496546
1667581576417719000,5.094718994140625,-0.8392752339124679,-2.731251010274887,-1.8431103309065102
1667581576427741200,5.1047412109375,-1.0925497377574442,-1.8136948513299225,-1.328375094151497
1667581576437762300,5.11476220703125,-1.0242565382540225,-1.9410580794394015,-1.2436857633814216
1667581576447784200,5.1247841796875,-0.5358446602791548,-1.6781085692763327,-0.6264050750397145
1667581576457806000,5.13480615234375,-0.06764087307453155,-1.5466963580369948,-0.08632818401828407
1667581576467827200,5.1448271484375,-0.09448328729271888,-1.8876643429040907,-0.26944647096693514
1667581576477849300,5.154849365234375,-0.5660980519846082,-2.3107956471949813,-1.042159566952288
1667581576487870200,5.1648701171875,-1.1339335952863097,-2.658517782497406,-1.7308872426532207
1667581576497892000,5.17489208984375,-1.6014064378678798,-2.531169167435169,-2.042455676165223
1667581576507914200,5.184914306640625,-1.8052134387105703,-2.1433774720728396,-1.924510849264264
1667581576517935400,5.194935302734375,-1.6519845324605702,-2.8871733933925627,-2.4681013013646007
1667581576527957200,5.204957275390625,-1.2757003195405006,-3.182787155795097,-2.7377394955113528
1667581576537979100,5.214979248046875,-1.22836749047935,-3.4961429111152884,-2.6477026662334797
1667581576548000000,5.225,-1.640140365409851,-3.9215100116342305,-2.3993838850997387
1667581576558022100,5.235022216796875,-2.8760113633871076,-4.1645770097196095,-1.8966529743932186
1667581576568044300,5.245044189453125,-4.86531704864502,-4.269033994016051,-1.3795621144227683
1667581576578065200,5.255065185546875,-6.560147620141506,-4.116780654799938,-1.1708804932810366
1667581576588087300,5.26508740234375,-7.394936064028739,-3.688410865333676,-0.7700432922542094
1667581576598109200,5.275109130859375,-7.696052515500783,-3.173770321124792,-0.16962503751665353
1667581576608130300,5.28513037109375,-7.309775900876522,-3.812469791200757,-0.6430872567061334
1667581576618152200,5.295152099609375,-6.478730150648951,-4.49570866022706,-1.1869898434955626
1667581576628174300,5.30517431640625,-5.474957012975215,-4.937673844325542,-1.3303461019635199
1667581576638195200,5.3151953125,-4.794121697959303,-5.113626039037108,-1.3132080662883818
1667581576648217000,5.325217041015625,-4.486034822952747,-5.0526598214209075,-1.1150665438614784
1667581576658239200,5.3352392578125,-4.446260446447134,-4.620650214147568,-0.419172191401571
1667581576668260000,5.345260009765625,-4.521958369249105,-4.231372664141655,0.39398083232603964
1667581576678282200,5.3552822265625,-4.4776866813242435,-4.127286851245165,1.1524359050519764
1667581576688303400,5.365303466796875,-4.282576781678199,-4.067892412990331,1.825686025635898
1667581576698325200,5.3753251953125,-4.0040234596699475,-3.985767672011256,2.0642735402196646
1667581576708347400,5.385347412109375,-3.809414495283365,-4.0066900485306975,1.5856396905459462
1667581576718368300,5.3953681640625,-3.649552434629202,-4.106737399691343,1.116326480794698
1667581576728390100,5.40539013671875,-3.0594553751587865,-4.079821335715055,0.8445922642167657
1667581576738412000,5.415412109375,-2.562921565526724,-3.958253642141819,0.6389043449983001
1667581576748433200,5.42543310546875,-2.13733468477726,-3.8908343028634786,0.43982941417880356
1667581576758455300,5.435455322265625,-1.783369271171093,-3.7141543783992526,0.07477993117421865
1667581576768477000,5.445476806640625,-1.5865408771693705,-3.4880320853739977,-0.010079787726700306
1667581576778498000,5.455498046875,-1.4184370578706265,-3.0589246292829513,0.02945741902217269
1667581576788520000,5.46552001953125,-1.2903911081939934,-2.578747495689988,-0.19783844782710075
1667581576798541800,5.475541748046875,-1.114122687140107,-2.367632217660546,-0.5955974104523658
1667581576808563000,5.48556298828125,-0.9386153135865927,-2.268358773481846,-0.956657604625076
1667581576818584800,5.495584716796875,-0.6671282767027616,-2.1213673003166913,-1.1523084792800247
1667581576828606700,5.505606689453125,-0.2275204693853855,-1.897943744856119,-0.9679095048710703
1667581576838627800,5.5156279296875,0.19484101957678793,-1.5892133112490177,-0.565928540636599
1667581576848650000,5.52564990234375,0.3958282868236303,-1.1679846257090567,-0.14176307099238036
1667581576858670800,5.5356708984375,0.29645138227045537,-0.8257651794761419,-0.045628801622241734
1667581576868693000,5.54569287109375,0.009623568391799927,-0.6927946328788995,-0.09698840198144316
1667581576878715000,5.55571484375,-0.39938627156615253,-0.6160743812918663,-0.2759859557382762
1667581576888735700,5.56573583984375,-0.7289286070555449,-0.595037438482046,-0.35741000110208987
1667581576898758000,5.5757578125,-0.723280956557393,-0.6938192997515201,-0.23455299837067722
1667581576908779800,5.58577978515625,-0.3480751865237951,-0.7474673033088445,0.19840835666954515
1667581576918801000,5.59580078125,0.255442495533824,-0.868516525965929,0.6747882899366319
1667581576928823000,5.605822998046875,0.7469763049215078,-0.8861533049434422,0.7867964202649891
1667581576938845000,5.615844970703125,0.7160591886103153,-0.6891787804692984,0.44159547400325533
1667581576948865800,5.62586572265625,0.19641221441626547,-0.38963410835862156,-0.16939488202258943
1667581576958888000,5.635887939453125,-0.6559796907007693,-0.14299568152725695,-0.9154472039669752
1667581576968910000,5.64591015625,-1.3469547069370746,0.16599603336453436,-1.3817397507227955
1667581576978931000,5.655930908203125,-1.317684188789129,0.44019875894784927,-1.1927914424464106
1667581576988952800,5.665952880859375,-0.7515630481898784,0.8181447676002979,-0.6053006199516355
1667581576998974700,5.675974609375,-0.04887187519669532,1.294123864981532,-0.15601356853246687
1667581577008995800,5.685995849609375,0.37948388574421404,1.7093834129840135,-0.025293723471462724
1667581577019018000,5.69601806640625,0.8223866429537534,1.9869880559653044,-0.22448329364657402
1667581577029039900,5.706039794921875,1.3475409823924303,2.204649394637346,-0.5428589229553937
1667581577039060700,5.716060791015625,1.7340128273278475,2.475675828272104,-0.8608568049930035
1667581577049083000,5.726082763671875,1.965820764774084,2.740394686195254,-0.870581057280302
1667581577059104000,5.73610400390625,2.0928736117601394,3.0053859313189983,-0.5255233188815415
1667581577069126000,5.7461259765625,2.4036954646885396,3.137587831631303,0.16337708303779364
1667581577079147800,5.756147705078125,3.0978146241694686,3.3089912769973275,1.0452281607426703
1667581577089169000,5.7661689453125,3.6585488110333677,3.5213732139617204,1.6759443769797682
1667581577099191000,5.77619091796875,3.808010473704338,3.6252608739376067,1.8307374638065694
1667581577109213000,5.786212890625,3.486793483489752,3.640834875166416,1.674920879150927
1667581577119233800,5.79623388671875,2.9478718999832867,3.6744174112945793,1.3915695092111826
1667581577129255700,5.806255615234375,2.459379357987642,3.701284959954023,1.1530142894618212
1667581577139277800,5.81627783203125,2.24515033185184,3.7021278405189513,0.8961343084707856
1667581577149299000,5.826298828125,2.4761732564002275,3.679169574257731,0.8637015268996358
1667581577159320800,5.83632080078125,2.865101846837997,3.609510347098112,0.6616760026462376
1667581577169343000,5.846343017578125,3.031172114482522,3.534282964417338,0.42624943631142376
1667581577179363800,5.85636376953125,3.0818986776351927,3.4480414357692,0.3020961101591587
1667581577189386000,5.866385986328125,3.009583967530727,3.379808442020416,0.3776610542312264
1667581577199407900,5.876407958984375,2.9196272177517413,3.4005993011146782,0.6679466073483228
1667581577209428700,5.8864287109375,2.7160259686142205,3.357678443276882,0.921022081489861
1667581577219451000,5.896450927734375,2.3604233091950415,3.2229607607513664,1.094676228392124
1667581577229472000,5.906471923828125,1.9530998148888348,3.1119314123272894,1.1298996635951102
1667581577239494000,5.916493896484375,1.797938479271531,2.9496459239184856,1.011818935354799
1667581577249515800,5.926515869140625,1.808287439328432,2.7296237013339995,0.7808512481249869
1667581577259537000,5.936536865234375,1.9344506439983844,2.430281273797154,0.5870074228920042
1667581577269558800,5.946558837890625,2.230116428849101,2.2116145574748516,0.4673310960233211
1667581577279581000,5.956580810546875,2.420374796810746,2.1411603805452586,0.3837036953963339
1667581577289601800,5.966601806640625,2.444390463170409,2.1404478483617306,0.4440497352875769
1667581577299624000,5.9766240234375,2.5407009658902884,2.069571062105894,0.5773408921413123
1667581577309645800,5.986645751953125,2.6301994505077597,1.9557675727933643,0.6806814396284521
1667581577319667000,5.9966669921875,2.6715812622100112,1.8208230957746505,0.7401276080705225
1667581577329688800,6.006688720703125,2.64107214217782,1.6169979747533798,0.6394821448862552
1667581577339711000,6.0167109375,2.6322797639131545,1.5075503425627945,0.5803714920088648
1667581577349731800,6.02673193359375,2.5769991907179355,1.5080454326033592,0.6573160538710653
1667581577359753700,6.036753662109375,2.338162962070107,1.5750836636096237,0.8292018759265541
1667581577369775900,6.04677587890625,2.078631735917926,1.6278507926791905,1.002765860327333
1667581577379797000,6.056796875,1.8358704427808523,1.636746046796441,1.095808739553392
1667581577389819000,6.06681884765625,1.6960189044982195,1.5488199260622262,1.0817550797596573
1667581577399840000,6.076840087890625,1.5575602818787098,1.4579285257816315,0.9082835959479212
1667581577409862000,6.08686181640625,1.2563701806485652,1.3893874889969824,0.6603549831755459
1667581577419884000,6.096884033203125,0.996411084473133,1.37672849843204,0.438718457262218
1667581577429905000,6.10690478515625,0.8767834190517664,1.4687889424920082,0.23444033177644014
1667581577439926800,6.1169267578125,0.9748001411676406,1.7030588861376046,0.10519888870492577
1667581577449948700,6.12694873046875,1.1494511901527642,2.0198007767647503,0.04061901063621044
1667581577459970000,6.136969970703125,1.2833178088068962,2.361523963913321,0.038006197789311406
1667581577469992000,6.146991943359375,1.367992818790674,2.593359373888373,0.2765589333206415
1667581577480013800,6.157013916015625,1.3252888185739515,2.6825615059077736,0.4380434806101024
1667581577490035000,6.167034912109375,1.016137529206276,2.5880267806887627,0.4658154307633638
1667581577500057000,6.17705712890625,0.6347527782768011,2.30975402918756,0.347862712816894
1667581577510079000,6.187078857421875,0.2785024686038494,1.980492848727107,0.2544157828345895
1667581577520099800,6.197099853515625,-0.19934651430249212,1.6893740596562623,0.3317984438531101
1667581577530121700,6.207121826171875,-0.6091261695891619,1.5387702412128448,0.561150366449356
1667581577540142800,6.217142822265625,-0.7094739650011063,1.5896616395384073,0.7476616568371653
1667581577550165000,6.2271650390625,-0.6132242525577545,1.6612936280757187,0.7838073214516044
1667581577560187000,6.237186767578125,-0.47355333153903484,1.654700221160054,0.7540767845764755
1667581577570207700,6.247207763671875,-0.3478507301181555,1.5660405254542826,0.7024575103677809
1667581577580230000,6.25722998046875,-0.20826398025155066,1.4854600913077591,0.6119926649361849
1667581577590252000,6.267251953125,-0.04727905304729938,1.542177419307828,0.48437590045705436
1667581577600273000,6.27727294921875,0.07304711603224277,1.7042957344561813,0.4011358917124569
1667581577610294800,6.287294677734375,0.2654138544499874,1.8916162954002618,0.43719037091210483
1667581577620317000,6.29731689453125,0.6818214034438133,2.0380717619925734,0.4585398868024349
1667581577630337000,6.3073369140625,1.1325064850926398,2.150191828262806,0.41815439266115423
1667581577640359000,6.31735888671875,1.4925719691395758,2.2493998059898614,0.3524586623050272
1667581577650379800,6.3273798828125,1.7280501195311546,2.352930323091149,0.29667203928381203
1667581577660402000,6.33740185546875,1.9189181438237428,2.5143273382276297,0.25347002641707655
1667581577670422800,6.3474228515625,1.9899907449126242,2.702572028279304,0.03829436708092689
1667581577680445000,6.35744482421875,1.889062519264221,2.8605244559198617,-0.11339461625069379
1667581577690466800,6.367466796875,1.887262776365876,2.862207878962159,-0.18812983150035142
1667581577700488000,6.377488037109375,1.9872125123709439,2.7746412391901014,-0.25993834564834833
1667581577710509800,6.387509765625,2.057058202013373,2.5136487083137036,-0.24373320690914987
1667581577720532000,6.397531982421875,2.053248288336396,2.2796347852557894,-0.1519869433648884
1667581577730552800,6.407552734375,2.029922357806563,2.18526431068778,0.14045242678523062
1667581577740574700,6.41757470703125,2.0470973644912243,2.1168477770656344,0.5531543992593884
1667581577750596900,6.427596923828125,2.0325743336200714,1.9131746317356824,0.7646534159094095
1667581577760618000,6.437617919921875,1.6975982826441525,1.7383540714025496,1.1096949338257311
1667581577770639600,6.4476396484375,1.412986391249299,1.4623060102134942,0.7360033677473664
1667581577780661800,6.457661865234375,1.3459084127545355,0.9791969148218631,0.5730190834194422
1667581577790683000,6.467682861328125,1.6146669014573096,0.6530792930841446,0.3800627085454762
1667581577800704800,6.477704833984375,1.61483407471776,0.36359891887009144,0.13435703251957892
1667581577810725600,6.4877255859375,1.320092418974638,0.04633563471734523,-0.06009498773962259
1667581577820747800,6.497747802734375,0.7151806522101164,-0.3192138336986303,-0.22088731498122213
1667581577830769700,6.507769775390625,-0.0977414123058319,-0.5792898342519999,-0.22381606190949677
1667581577840790800,6.517790771484375,-0.954569838565588,-0.8437433192372321,-0.08627177765592932
1667581577850812700,6.527812744140625,-1.5229519098341464,-1.1200637676268814,0.0882071296326816
1667581577860834800,6.537834716796875,-1.6555594683378934,-1.3811223494768141,0.2775121423922479
1667581577870856000,6.54785595703125,-1.4797487279236317,-1.6353350109547375,0.4564484674811363
1667581577880877800,6.5578779296875,-1.3094950371146201,-1.9169588264495134,0.3812798292502761
1667581577890899700,6.567899658203125,-1.2057231124728918,-2.2342525057405234,0.27404256658554077
1667581577900920800,6.5779208984375,-0.9725351188451051,-2.437322424480319,0.247830413094908
1667581577910942700,6.587942626953125,-0.6987883203357458,-2.5358418354213237,0.09367094799652695
1667581577920964600,6.597964599609375,-0.5542430712789297,-2.5922137109845873,0.013076485324651003
1667581577930985700,6.60798583984375,-0.44480888309180733,-2.601302441847324,-0.04067161760628223
1667581577941008000,6.6180078125,-0.40534605675339697,-2.5051795706540343,-0.2426560791969299
1667581577951029800,6.62802978515625,-0.6222375800967216,-2.3862574231535194,-0.44162250814065335
1667581577961050600,6.638050537109375,-1.0020318469643592,-2.1842811448693276,-0.54172363531515
1667581577971072800,6.64807275390625,-1.1260019255042075,-2.027781838646531,-0.545116931015253
1667581577981093600,6.65809375,-1.0560802480161189,-1.9721996521562337,-0.5904569788239896
1667581577991115800,6.66811572265625,-0.9215133721381426,-1.876861793860793,-0.7325070500642061
1667581578001137700,6.6781376953125,-1.186792786553502,-1.8564198943346737,-0.8766875574618578
1667581578011158800,6.68815869140625,-1.6158295154958962,-1.8734306503683327,-0.8495328624241053
1667581578021181000,6.698180908203125,-1.9468074367463588,-1.774230271425843,-0.785377493377775
1667581578031202800,6.708202880859375,-2.1910931629717347,-1.6606132445961237,-0.7661911468707024
1667581578041223700,6.7182236328125,-2.361407059535384,-1.6927128486901521,-0.7805160248212516
1667581578051245600,6.72824560546875,-2.291128239172697,-1.8956120870381592,-0.7621234590403735
1667581578061268000,6.73826806640625,-2.129166575890779,-2.1271569896340368,-0.7023756773032248
1667581578071288800,6.748288818359375,-2.290688094189763,-2.2441157281070945,-0.597022913210839
1667581578081310700,6.758310791015625,-2.6006471928089856,-2.28752290815711,-0.37188217856884
1667581578091332600,6.76833251953125,-2.820519193267822,-2.2020757447570563,-0.1831719168320298
1667581578101353700,6.778353759765625,-2.9092297423779963,-2.0919939063161612,-0.12325126274600624
1667581578111376000,6.7883759765625,-2.9064240373075005,-2.1286106955736877,-0.3339708194561302
1667581578121397800,6.798397705078125,-2.7179151433616875,-2.361483631902933,-0.7045182422898709
1667581578131418600,6.808418701171875,-2.4565549482166764,-2.6287346386522055,-1.168802664093673
1667581578141440800,6.818440673828125,-2.4440216298580166,-2.9027696064531803,-1.5894045960374175
1667581578151462000,6.8284619140625,-2.415833061727881,-3.1512814259409905,-1.8961428329139947
1667581578161483800,6.83848388671875,-2.321371401745081,-3.345501683270931,-2.1481420561261473
1667581578171505700,6.848505615234375,-2.5258833359867334,-3.656998658981919,-2.349176523515582
1667581578181526800,6.85852685546875,-2.817769017776847,-4.064669359290599,-2.2573262150749565
1667581578191549000,6.868548828125,-2.894000609064102,-4.378538324829936,-1.7767548214673996
1667581578201570800,6.87857080078125,-2.9694653076320883,-4.766203178942203,-1.2383340270899235
1667581578211591700,6.888591796875,-3.255314047345519,-5.286679005175829,-1.0088632273543625
1667581578221613600,6.898613525390625,-3.6571062110096215,-5.642455852118134,-1.0480910028278827
1667581578231635700,6.9086357421875,-4.320172060579061,-5.875747306120395,-1.2022215340927243
1667581578241656800,6.91865673828125,-5.064136324203014,-6.061015610709786,-1.3543411639265714
1667581578251678700,6.9286787109375,-5.595235251259804,-6.045147594970464,-1.4216422836527227
1667581578261700900,6.938700927734375,-5.985199029964209,-5.881661498600244,-1.613107104794681
1667581578271721700,6.9487216796875,-6.0626043412059545,-5.6413324010461565,-1.7507376060269773
1667581578281744000,6.958743896484375,-5.761397873362898,-5.380012537911534,-1.8091719670780002
1667581578291764700,6.9687646484375,-5.413533114719391,-4.998489839816093,-1.898430359329283
1667581578301786600,6.97878662109375,-4.860402388596534,-4.643135017678142,-1.8510960689634084
1667581578311808800,6.988808837890625,-4.3060774842530485,-4.283454149034619,-1.7416474138595164
1667581578321830000,6.998829833984375,-3.9548791972726582,-3.8197161090672016,-1.5859025792658328
1667581578331851800,7.008851806640625,-3.656795829886198,-3.228440653467178,-1.427212485000491
1667581578341873700,7.018873779296875,-3.3137013543844223,-2.7259043885499237,-1.3217936699345707
1667581578351894800,7.028894775390625,-2.856490085837245,-2.325571191522479,-1.2064858404736964
1667581578361916700,7.038916748046875,-2.4694629451066255,-1.9274878192484377,-1.074286351314187
1667581578371938800,7.048938720703125,-2.26747497638464,-1.5553192249536514,-0.9020388563394546
1667581578381959700,7.058959716796875,-2.104325564622879,-1.2920225087881088,-0.8190783221233635
1667581578391981800,7.06898193359375,-1.844086482462287,-1.1036083073884249,-0.8328413284074515
1667581578402003700,7.079003662109375,-1.4291881689876318,-0.9570219078928232,-0.7784753127738833
1667581578412024800,7.08902490234375,-0.9469646242588758,-0.7747557077288627,-0.7638020597770809
1667581578422046700,7.099046630859375,-0.4219540772050619,-0.522000259321928,-0.9675663905218242
1667581578432067800,7.10906787109375,0.09383563703894615,-0.33011750502884385,-1.2967729181855916
1667581578442089700,7.11908984375,0.4562994143992662,-0.22175649903118608,-1.7465936380900442
1667581578452111600,7.129111572265625,0.6910515886038542,-0.0473567944586277,-2.188186920136213
1667581578462132700,7.1391328125,0.8546043204694986,0.22127894464731215,-2.4438041877150534
1667581578472155000,7.14915478515625,0.9690659814298153,0.5200000254154205,-2.466449150243401
1667581578482176800,7.1591767578125,1.0835025079488754,0.7526233708977699,-2.1946897261589764
1667581578492197600,7.16919775390625,1.1467793405950069,0.9736515556544065,-1.6322896519094705
1667581578502219800,7.1792197265625,1.3640332675099371,1.14295013769567,-0.7696075311854481
1667581578512242000,7.189241943359375,1.6945026547163724,1.352718677291274,0.22273016636893153
1667581578522262800,7.1992626953125,1.688981260946393,1.6512679086238145,0.7460438463769853
1667581578532284700,7.20928466796875,1.485425019994378,1.8529548485726117,0.47339477997645735
1667581578542306600,7.219306640625,1.438691910392046,1.7974755379348992,-0.3520169098868966
1667581578552328000,7.229327880859375,1.6288766285955905,1.7271657379120586,-1.1861946745298801
1667581578562349800,7.239349853515625,2.070173704174161,1.826256811261177,-1.5795112707935273
1667581578572370700,7.24937060546875,2.6233482694387433,1.9433798003852367,-1.696114766088128
1667581578582392600,7.259392578125,2.998237228608131,2.137233562490344,-1.2286128435425459
1667581578592415000,7.2694150390625,3.1775252897441386,2.6805571803480386,-0.9223385709159075
1667581578602435800,7.279435791015625,3.171556152206659,2.549642397236824,-1.0402907043404876
1667581578612457700,7.289457763671875,2.7984505693227053,2.450638417649269,-0.9145311120353639
1667581578622479600,7.299479736328125,2.4349603715240953,2.4459768555790182,-1.1336031942881644
1667581578632500700,7.309500732421875,2.3648604148596526,2.367366260200739,-1.0182358166597782
1667581578642523000,7.31952294921875,2.494947514975071,2.3732377825826405,-0.812409731079638
1667581578652544800,7.329544677734375,2.586340435037017,2.4728970112085342,-0.7272327629230916
1667581578662565600,7.339565673828125,2.5527964773535725,2.446774143436551,-0.7822071927785873
1667581578672587800,7.349587890625,2.449211599716544,2.3919582651436326,-0.8079919146373867
1667581578682610000,7.35960986328125,2.38178057000041,2.448774961864948,-0.6710453040160238
1667581578692630800,7.369630859375,2.33696410767436,2.595152687045932,-0.6517929065354168
1667581578702652700,7.379652587890625,2.2638269752711055,2.7331056982308626,-0.8705411636613309
1667581578712673800,7.389673828125,2.2822195410519837,2.782014982828498,-1.1528348412416876
1667581578722696000,7.399696044921875,2.459075406605005,2.769256039020419,-1.5327571184031665
1667581578732717800,7.4097177734375,2.6810271359473465,2.7327830421477555,-1.8834702522151172
1667581578742738700,7.41973876953125,2.9552397984027863,2.7654934716165065,-1.9795621437482536
1667581578752760600,7.429760498046875,3.195754773917794,2.8979987387895583,-1.8665895523019134
1667581578762782700,7.43978271484375,3.1928274882942436,3.0381629962831735,-1.687051169666648
1667581578772803600,7.449803466796875,2.971282586187124,3.0605700584024187,-1.4886244005575775
1667581578782825500,7.459825439453125,2.62579800067842,3.094561175331473,-1.4244082412347197
1667581578792847400,7.469847412109375,2.2165163580417633,3.1890175746172664,-1.4861583027049898
1667581578802868500,7.479868408203125,2.050381792989373,3.1674276740998026,-1.499910349203646
1667581578812890600,7.489890625,2.079285231390595,2.9854572420120236,-1.6604032551072536
1667581578822912500,7.49991259765625,1.8963374787032603,2.7814918357372282,-1.9662743537604808
1667581578832933400,7.509933349609375,1.7493594495415687,2.6580133401066064,-2.3437420773766933
1667581578842955300,7.519955322265625,1.8963111752182245,2.587327692508697,-2.6085294704914093
1667581578852976600,7.5299765625,2.2859949679374694,2.377821603241563,-2.662176889526844
1667581578862998500,7.53999853515625,2.4887469067692756,2.0414678341716526,-2.6075124024033545
1667581578873020400,7.5500205078125,2.346427517068386,1.7203946363419294,-2.6626684724360703
1667581578883041300,7.560041259765625,2.0312983223348855,1.4371131167680025,-2.8698779751986265
1667581578893063400,7.5700634765625,1.6042735177367924,1.1439549308240413,-3.2239205456942317
1667581578903085600,7.58008544921875,1.2504022121548652,0.789417854809761,-3.5690853977292774
1667581578913106400,7.5901064453125,1.1025035610169172,0.42936815285384655,-3.586925005802512
1667581578923128300,7.60012841796875,1.1878116082072256,0.190499190980196,-3.261481045542657
1667581578933150500,7.610150390625,1.3937614662975073,-0.07894611094295978,-2.627375040736794
1667581578943171600,7.620171630859375,1.4543758017361164,-0.46697687575817104,-1.7674807971656321
1667581578953193500,7.630193359375,1.3424620716929434,-0.9466057278186082,-0.9875611308023333
1667581578963215400,7.64021533203125,1.0019403692886233,-1.3681231671720742,-0.538247191376239
1667581578973236500,7.650236572265625,0.34857495273947714,-1.5702338854908942,-0.2250442885302007
1667581578983258400,7.66025830078125,-0.4441700006663799,-1.4850345593720673,0.1586040234170854
1667581578993279500,7.670279541015625,-1.3343492001250385,-1.3638228396296501,0.4988483701847493
1667581579003301400,7.68030126953125,-2.141699601988494,-1.5373177043169737,0.9711860423237085
1667581579013323500,7.690323486328125,-2.327586622998118,-1.6800158642023801,1.4805597520455718
1667581579023344600,7.7003447265625,-1.7449714437156916,-1.7135066303938626,2.106656345658004
1667581579033366500,7.710366455078125,-0.8045330063551663,-1.8619722677648067,2.6564181798696516
1667581579043388400,7.720388427734375,-0.11256313386261463,-2.0655062968850135,2.9533424403488633
1667581579053409500,7.730409423828125,0.03186696438193321,-2.3429344142556188,3.5257629733532667
1667581579063431400,7.740431396484375,0.0011623217776417733,-2.3968454526633023,3.749160225328803
1667581579073453300,7.750453369140625,-0.5308972670048475,-2.3057751886844633,4.326468530374765
1667581579083474400,7.760474365234375,-1.3700024050474167,-2.143686099630594,5.013162508291006
1667581579093496600,7.77049658203125,-2.145965150478482,-1.7844985674619673,5.461574968832731
1667581579103518500,7.7805185546875,-2.8574770510479808,-1.378980076751113,5.659667099159956
1667581579113539600,7.79053955078125,-3.355436217308044,-1.114578029692173,5.563487529343366
1667581579123561500,7.8005615234375,-3.5643440484210847,-1.0395078833997249,5.137171165275573
1667581579133582300,7.810582275390625,-3.37095147408694,-1.0502671778231858,4.896698275336623
1667581579143604500,7.8206044921875,-2.9669252677604554,-1.2181459561944008,4.694385312443972
1667581579153626400,7.83062646484375,-2.732197935736179,-1.2897089711487293,4.102708290305733
1667581579163647500,7.8406474609375,-2.745234527441859,-1.390449565270543,3.4151576955601572
1667581579173669600,7.850669677734375,-2.8136194968819614,-1.4463029699176548,2.809373529875278
1667581579183691500,7.86069140625,-2.779318875612318,-1.2786661836087703,2.411194734402746
1667581579193712400,7.87071240234375,-2.5029694933891293,-0.9460282201915979,2.2004608569063246
1667581579203734300,7.880734375,-1.9547604415774344,-0.6283902575075626,2.2468594738572834
1667581579213756700,7.890756591796875,-1.2216694541454314,-0.3115396458089352,2.3304944732688364
1667581579223777500,7.900777587890625,-0.6283230374902486,-0.030849896293878555,2.350822098765522
1667581579233799400,7.91079931640625,-0.2042190887749195,0.19474866511821745,2.1767066179618237
1667581579243821300,7.9208212890625,0.07285539285242557,0.37226328684091564,1.9520425609208643
1667581579253842400,7.930842529296875,0.14988894817233084,0.45368835511803624,2.2813833824887872
1667581579263864600,7.940864501953125,0.30736966664791104,0.7867477588176727,2.065707080154121
1667581579273885400,7.950885498046875,0.4265355597764253,1.1068763692736625,1.925436585807055
1667581579283907300,7.9609072265625,0.5635796394228935,1.2092378425955772,1.9065403082877397
1667581579293929500,7.970929443359375,0.7502168942779303,1.0976724875986577,1.9141569207713007
1667581579303950600,7.98095068359375,0.7899760732144117,0.9177408678621053,1.8835715206325052
1667581579313972500,7.990972412109375,0.6063192954748868,0.8256377537041902,1.911984399037808
1667581579323994400,8.000994384765624,0.2489005265444517,0.8864695312857628,2.1057092740662395
1667581579334015500,8.011015380859375,-0.09690379243791103,1.0472568900913,2.0541130884721874
1667581579344037600,8.02103759765625,-0.22084289131760595,1.2080337275028228,1.948041362455487
1667581579354059500,8.0310595703125,-0.027166239345073697,1.2856927212446927,1.8134237793035803
1667581579364080400,8.041080322265625,0.25914193457365037,1.2791495832115412,1.6872642278954386
1667581579374102300,8.051102294921876,0.508611200916767,1.2220008780568838,1.511803616093099
1667581579384123600,8.06112353515625,0.6587251900166273,1.0726496900230647,1.4380949674122034
1667581579394145500,8.0711455078125,0.6535404808551073,0.8650286838501692,1.3460612652286887
1667581579404167400,8.08116748046875,0.4816986440718174,0.498307249045372,1.1651590468943118
1667581579414188300,8.091188232421874,0.35343992842733857,0.025294600254297254,1.0223759852044283
1667581579424210400,8.10121044921875,0.16512568027079105,-0.35995968558490277,0.7229718906082212
1667581579434232600,8.111232666015624,-0.17674013021886348,-0.5863432598948478,0.5028029530294239
1667581579444253400,8.12125341796875,-0.4412298555612564,-0.7292091775625944,0.42671661543175576
1667581579454275300,8.131275390625,-0.6000806933462619,-0.7085463287621736,0.34217794517874717
1667581579464297500,8.14129736328125,-0.6431880136668682,-0.6247650527477264,0.36257571330219507
1667581579474318600,8.151318603515625,-0.43558746576011176,-0.5560702867060899,0.39837300287038085
1667581579484340500,8.161340576171876,-0.07879121264219284,-0.4817769700050354,0.4095492075316608
1667581579494362400,8.1713623046875,0.2384609655946493,-0.3663362348794937,0.5025890180177986
1667581579504383500,8.181383544921875,0.6005559096425771,-0.22041911294758318,0.5090474003769457
1667581579514405400,8.1914052734375,0.9331552946150302,-0.00009176993668079376,0.4577724095612764
1667581579524426500,8.201426513671874,1.1681342633128164,0.2813350616812706,0.3991578696377575
1667581579534448400,8.211448486328125,1.4591419932246208,0.517785271975398,0.4449598358698189
1667581579544470500,8.221470458984374,1.8174802150875329,0.7306137836635113,0.5732308264739812
1667581579554491400,8.231491455078125,2.1168039379239083,0.9928408247709274,0.754887224176526
1667581579564513500,8.241513427734375,2.3285586829006673,1.2419880195528268,0.7636584135226905
1667581579574535400,8.251535400390624,2.4820810191392897,1.4293565112918614,0.5736895300269127
1667581579584556500,8.261556640625,2.5306243930339813,1.5635218206316233,0.3162421244114637
1667581579594578400,8.271578369140625,2.386988660037517,1.7433979107886552,-0.009202858761698006
1667581579604600300,8.281600341796874,2.205571185657382,1.9540064083397388,-0.15442016186118124
1667581579614621400,8.291621337890625,2.1448954754203555,2.1472019987970588,-0.10992255622595548
1667581579624643600,8.3016435546875,2.227314815431833,2.297048276871443,0.07167005552537739
1667581579634664400,8.31166455078125,2.121986308997869,2.5221529172867534,0.35745932013653214
1667581579644686300,8.321686279296875,2.0796008732110263,2.7941204311639067,0.6890769275300205
1667581579654708500,8.33170849609375,2.1412977431893347,2.9829250931859015,0.8879385078597813
1667581579664729300,8.341729248046875,2.257960129064321,3.0509505816638467,1.0417229291006922
1667581579674751500,8.35175146484375,2.2030928128451106,2.987933276736736,1.0043548830844462
1667581579684773400,8.3617734375,1.9305092128962278,2.807563265582919,0.7121024868737906
1667581579694794500,8.37179443359375,1.5785516319811344,2.483556936910748,0.26861973781920967
1667581579704816600,8.381816650390626,1.5463666876912117,2.2031004116296766,-0.21145532363876698
1667581579714838500,8.391838623046874,1.7468787386417388,2.114741160175204,-0.5156631652548909
1667581579724859400,8.401859375,2.0256822360187767,2.2453046456307173,-0.5384017974160611
1667581579734881300,8.41188134765625,2.2505805402070282,2.4145284088701007,-0.22843473468609152
1667581579744902400,8.42190234375,2.2714894727230073,2.571985161948204,0.19052878240086138
1667581579754924500,8.431924560546875,2.0025790083289143,2.666186125168204,0.5200488329932094
1667581579764946400,8.441946533203126,1.6287819360494613,2.6870062103569508,0.7357827837992459
1667581579774968000,8.451968017578125,1.159202184316516,2.5673984186798333,0.6747207045931368
1667581579784990000,8.461989990234375,0.8240624672114849,2.3403163407117127,0.5574737602958455
1667581579795012000,8.47201220703125,0.77026599509418,2.1498586507856845,0.4842150108069181
1667581579805033200,8.482033203125,0.7523802097916603,2.0041028568953276,0.4060056897059083
1667581579815055000,8.49205517578125,0.6636825201630592,1.8889397696673869,0.22342392078675327
1667581579825077000,8.502076904296874,0.6758990276575088,1.8938281262308359,0.08204327324070036
1667581579835098000,8.51209814453125,0.5580331112116574,2.0237655887424943,-0.07344590609148144
1667581579845120300,8.522120361328126,0.2708370485424995,1.9823796853870153,-0.0845852858737111
1667581579855142100,8.53214208984375,0.44471068341434,1.8571119682520627,0.11938227582555264
1667581579865163000,8.5421630859375,0.9335036696612834,1.7573066091537475,0.39013478788975625
1667581579875185000,8.552184814453126,1.3678934500694273,1.723386803895235,0.7489492124296724
1667581579885206000,8.5622060546875,1.6126134760588406,1.7358464724957943,1.0688615497864782
1667581579895228200,8.572228271484375,1.4287164598226547,1.7115742010265589,1.1264007886286824
1667581579905250000,8.58225,0.9233429256528616,1.6641110235840082,0.9143192959155887
1667581579915271200,8.592271240234375,0.3318804230481386,1.5472884787112473,0.5798651499219238
1667581579925293300,8.602293212890626,-0.14617664965093136,1.2861784589350223,0.03960362304858863
1667581579935315200,8.612315185546874,-0.13661270249187946,0.9869283858567476,-0.28950273217633365
1667581579945336000,8.622336181640625,0.21545359949469564,0.8719149362325668,-0.2682972278665751
1667581579955358000,8.63235791015625,0.6585632774531841,0.9662363109618425,-0.024173268074169755
1667581579965380000,8.642380126953125,0.9593623335391283,1.2050988430947065,0.18277261531613767
1667581579975401200,8.652401123046875,1.0483891089916229,1.4344634790420532,0.2600100226450711
1667581579985423000,8.662423095703126,0.9955740491271018,1.5469155537456274,0.22253990449383854
1667581579995444000,8.67244384765625,0.820015237647295,1.5130249745815991,0.21755532101429997
1667581580005466000,8.682466064453125,0.7868371906667947,1.446416367164254,0.1520421076182276
1667581580015488300,8.69248828125,0.8169009050190448,1.2372194899767637,0.10112404048144817
1667581580025509000,8.702509033203125,0.6140899294763803,0.8699094416290521,-0.05811616194732487
1667581580035531000,8.712531005859375,0.1726297722905874,0.5002899472951888,-0.14572357212118803
1667581580045553200,8.72255322265625,-0.37661592909246683,0.2130126360833645,-0.1274196710044518
1667581580055574300,8.73257421875,-0.8435910512849688,-0.0750584558546543,-0.06995700452979654
1667581580065596200,8.74259619140625,-1.141051610597968,-0.2704208689570427,-0.03726520669627934
1667581580075618000,8.7526181640625,-1.285953418007493,-0.35564474499523635,0.04232902942448854
1667581580085639000,8.762638916015625,-1.4245879817157983,-0.38635552507936954,0.030506708879396317
1667581580095661000,8.7726611328125,-1.5180267283916473,-0.4828869770735502,0.027322160559147594
1667581580105682200,8.78268212890625,-1.3763526508569717,-0.6341939753502607,0.02339797285273671
1667581580115704000,8.7927041015625,-1.009141678969562,-0.8005851455122232,0.017857326393015682
1667581580125726000,8.802725830078124,-0.7347904848262667,-0.918873671284318,0.09316617681216448
1667581580135747000,8.8127470703125,-0.7289648474127054,-0.9516945753902196,0.23161446070075034
1667581580145769200,8.822769287109375,-0.8793646677166223,-0.9323352104038,0.35464272834584115
1667581580155791000,8.832791015625,-1.1644827550679444,-0.9858078573942184,0.34665450607091186
1667581580165812000,8.84281201171875,-1.721040533030033,-1.0046540121614933,0.3629533144429326
1667581580175834000,8.852834228515626,-1.971879918682575,-0.9283031784087419,0.5794625604704022
1667581580185856000,8.86285595703125,-1.7813658223941922,-0.8964894055187702,0.6819511673033237
1667581580195877000,8.872877197265625,-1.5796140005156396,-1.0211661710232496,0.6756156806714833
1667581580205899000,8.88289892578125,-1.6009446655750275,-1.229596740013361,0.4106795267358422
1667581580215919900,8.892919921875,-1.493836289986968,-1.4723171166181563,0.18825462692379952
1667581580225942000,8.90294189453125,-1.1461790366142988,-1.6776561493337154,-0.21718509946241973
1667581580235964200,8.912964111328124,-0.6829241039887071,-1.8683342040121553,-0.5004624908505008
1667581580245985000,8.922985107421875,-0.23731705625653265,-1.8628724314749239,-0.6343837988339364
1667581580256007200,8.933007080078125,0.15136048202961683,-1.7563310421198606,-0.8296009582467376
1667581580266029000,8.943029052734374,0.2822954311460256,-1.899482206469774,-0.9621116322472691
1667581580276050200,8.95305029296875,-0.196476511824131,-2.115577026477456,-0.6479913222953677
1667581580286072000,8.963072021484376,-1.2243582548379897,-2.07726220113039,-0.1610141532987356
1667581580296094200,8.97309423828125,-3.015958763259649,-2.240971000340581,0.2575159408070147
1667581580306115000,8.983114990234375,-5.143533686044812,-2.684954538524151,0.2970091440173797
1667581580316137000,8.993136962890626,-6.454093137520552,-3.0932886711776253,0.27472791850119826
1667581580326158000,9.003157958984374,-6.18531126794219,-3.5020997736930846,0.21456308039575814
1667581580336180000,9.013179931640625,-4.865575407320261,-4.193725362792611,-0.34679362228065724
1667581580346202000,9.0232021484375,-3.2814883530437946,-5.022961433249712,-0.9881063435949384
1667581580356223200,9.03322314453125,-1.929869161427021,-5.609184281635284,-1.322660223636031
1667581580366245000,9.0432451171875,-0.9773720374822616,-5.740459130230546,-1.1316960454925895
1667581580376267300,9.053267333984374,-0.7550035440325736,-5.581213155648112,-0.908592661897093
1667581580386288000,9.0632880859375,-1.1467618049383164,-5.525715724831819,-0.6534314675226808
1667581580396310000,9.07331005859375,-1.9106173484683036,-5.35241784402132,-0.23751725500375032
1667581580406332000,9.083331787109374,-2.6859657613933083,-5.018014039975404,0.01771876730569638
1667581580416353000,9.09335302734375,-3.285921951577067,-4.837216743320226,0.3376740578882396
1667581580426375200,9.103375244140626,-3.6883284477472302,-4.646085099655389,0.7538610959991813
1667581580436396000,9.11339599609375,-3.9384564702600238,-4.302669137114286,0.9335144833162426
1667581580446418000,9.12341796875,-4.070904454287886,-4.014706766247749,0.8952427664585411
1667581580456440000,9.133440185546876,-4.094462440007924,-3.8308816462039945,0.4496396642491221
1667581580466461200,9.143461181640625,-3.712268710783124,-3.6570617873460054,0.06006751521080732
1667581580476483000,9.153483154296875,-3.091141137754917,-3.372999346527457,-0.15843611950427292
1667581580486505000,9.1635048828125,-2.7105355545043945,-3.0392391010820865,-0.2873813561081886
1667581580496526000,9.173526123046875,-2.317937335643172,-2.637198515614867,-0.2363620936192572
1667581580506548200,9.18354833984375,-1.846077948540449,-2.1227117006629705,-0.17936068798080085
1667581580516570000,9.193570068359374,-1.484401522165537,-1.633832789698243,-0.0007088789217174052
1667581580526591000,9.203591064453125,-1.2440408604294062,-1.233379181161523,-0.03902617935365997
1667581580536612900,9.21361279296875,-1.2581149784892798,-0.9905752179265022,-0.34165976652354
1667581580546634200,9.22363427734375,-1.1777040556907654,-1.0033090272933245,-0.5327667141385376
1667581580556656000,9.23365625,-0.7335305478930473,-1.1384563334077595,-0.5902285768955946
1667581580566678000,9.243677978515626,-0.4258060764580965,-1.208507190233469,-0.5676259922042489
1667581580576699100,9.25369921875,-0.6259937177598476,-1.1157312913805246,-0.3551920327916741
1667581580586721300,9.26372119140625,-1.1484008043169975,-0.9449404249548912,-0.11145020418465137
1667581580596743200,9.2737431640625,-1.777557954543829,-0.9047668199986219,0.10541808441355824
1667581580606764000,9.283763916015625,-2.167123673841357,-0.9763386027812957,0.2220752095915377
1667581580616786000,9.293785888671875,-2.3661229821413756,-1.1124784270644188,-0.11606880389600992
1667581580626808000,9.30380810546875,-2.512369774419069,-1.5823948634058236,-0.5627537099927663
1667581580636829200,9.3138291015625,-2.4059423668324946,-2.042710527709126,-0.611989596196264
1667581580646851000,9.32385107421875,-2.1311527812719344,-2.107072817504406,-0.388805256319046
1667581580656872000,9.333871826171874,-1.7967735271453857,-1.9736282236546276,-0.15051745533421634
1667581580666894000,9.34389404296875,-1.5781868903219698,-1.942386697694659,0.11802256831228733
1667581580676916200,9.353916259765626,-1.5053279903382062,-1.9456962606340646,0.13786971681565047
1667581580686937000,9.36393701171875,-1.7223960392922162,-1.8262299232542514,-0.2621172971226275
1667581580696959000,9.373958984375,-2.026265004342794,-1.6686235325723886,-0.8553492936179041
1667581580706981000,9.383981201171874,-2.1830524798572064,-1.4921195491969586,-1.3621701039865612
1667581580717002200,9.394002197265625,-1.8727432526260612,-1.4603747498899697,-1.5114998108409343
1667581580727024000,9.404024169921875,-1.171999706569314,-1.5748568691164255,-0.9428418452404439
1667581580737046000,9.4140458984375,-0.25065876838862894,-1.480794437584281,0.01926204209178686
1667581580747067000,9.42406689453125,0.3157125475794077,-1.1696119346499443,0.6850884424157441
1667581580757089000,9.434089111328126,0.21351941656172274,-0.8549205468118191,0.8254530447870493
1667581580767110100,9.444110107421874,0.0023217209458351136,-0.601361965328455,0.8142227718509734
1667581580777132000,9.454132080078125,-0.220570504117012,-0.3108534171104431,0.6398011477075517
1667581580787154000,9.46415380859375,-0.4342039024472236,-0.04058978454172611,0.2530050392538309
1667581580797175000,9.474175048828124,-0.47680911846458907,0.18060498895347118,-0.20295915184170008
1667581580807197000,9.484197021484375,-0.18293723129332065,0.2373024432092905,-0.5380713964179158
1667581580817219000,9.494218994140626,0.36900983800292014,0.17965104922950267,-0.652610506528616
1667581580827240000,9.504239990234375,0.9958581267654896,0.16210487114489078,-0.565072508329153
1667581580837261800,9.51426171875,1.5211328777134419,0.2509603816837072,-0.2562820150978863
1667581580847284000,9.524283935546874,1.801267331433296,0.5257920528203248,0.034841596278548236
1667581580857305000,9.53430517578125,1.737382011500001,0.8127128056794405,0.24120531413303686
1667581580867327000,9.544326904296875,1.4027987592339515,1.0359984139740466,0.4075753501754254
1667581580877347800,9.554347900390624,0.8765963720470666,1.3072668396711349,0.6905684812620282
1667581580887370000,9.564369873046875,0.4280144001573324,1.5875895094394683,1.0569850879013538
1667581580897392000,9.57439208984375,0.30265140595436096,1.8132862705290316,1.1815653342287986
1667581580907413000,9.5844130859375,0.5212935723572969,1.9035627537816762,1.03838399393633
1667581580917435000,9.594434814453125,0.8604460322350264,1.9544184962719677,0.7729928627748042
1667581580927456800,9.604456787109376,1.0087532641738652,2.014670428138971,0.4151877979405224
1667581580937478100,9.61447802734375,0.985668741184473,2.1593752516716718,0.06696670014001428
1667581580947500000,9.6245,1.09776133492589,2.3588649738371372,-0.22386026637740433
1667581580957522000,9.63452197265625,1.5458394489467142,2.4041543143719433,-0.30919366720467806
1667581580967542800,9.644542724609375,2.117227716293931,2.504798462381959,-0.39999432046189903
1667581580977565000,9.65456494140625,2.589128019928932,2.468066522312164,-0.7198989859689027
1667581580987586000,9.6645859375,2.836511712169647,2.133205622148514,-0.8286522792197764
1667581580997608000,9.67460791015625,2.8379391146242616,2.0578747790932654,-0.6366334774568676
1667581581007629800,9.6846298828125,2.443354105859995,2.282521738868952,-0.38616277898624535
1667581581017651200,9.694651123046874,1.9782675738930702,2.550077281522751,0.007859042937308549
1667581581027673000,9.704673095703125,1.7769196566402912,2.803089335039258,0.43811004304029044
1667581581037695000,9.714695068359376,1.7967852175831793,2.974352495151758,0.6834745044130831
1667581581047715800,9.7247158203125,2.0881565201103687,3.0000065763682127,0.8284637709103524
1667581581057738000,9.734738037109375,2.5149282267302273,2.916718636828661,0.9103155401669442
1667581581067759900,9.744759765625,2.8851076930344104,2.7513082943975924,1.006123061800748
1667581581077781000,9.754781005859375,3.0504163286566732,2.553461663264036,1.1225232896082102
1667581581087803000,9.764802978515625,3.0346248852849005,2.3631436740696428,1.2159268919054418
1667581581097823700,9.77482373046875,2.8024142122566698,2.2883500066310165,1.2344482716977596
1667581581107846100,9.78484619140625,2.561738493221998,2.2856723118543623,1.1388741204284132
1667581581117868000,9.794867919921876,2.348827563947439,2.2176666971206664,0.9052408672511577
1667581581127889000,9.804888916015624,2.2132570639848708,2.018673818561435,0.558637360715121
1667581581137911000,9.8149111328125,2.1484207269370557,1.715437890717387,0.21102372728846966
1667581581147933000,9.824932861328126,2.227503031480312,1.4085375951468944,-0.04774031388349831
1667581581157954000,9.8349541015625,2.3959908816605804,1.0905728847265244,-0.08891279368400573
1667581581167976000,9.844975830078125,2.4839351225733757,0.9118605776518582,0.19272263918332755
1667581581177996800,9.854996826171876,2.2605372860759494,0.9392840066283941,0.6316635070245713
1667581581188019000,9.86501904296875,1.6661901679456232,1.0613801079899072,0.9854987183798104
1667581581198041000,9.875041015625,0.9868407075732946,1.1374176380097865,1.1418393999747931
1667581581208062000,9.88506201171875,0.5199643695801496,1.195187105411291,1.250311026740074
1667581581218083800,9.895083740234375,0.3766746735423803,1.2399749261647461,1.1019606863118707
1667581581228106000,9.90510595703125,0.4825730888187885,1.0776344926983117,0.734552146025747
1667581581238127000,9.915127197265624,0.7423498141646385,0.9365887761950492,0.4335530373230576
1667581581248149000,9.92514892578125,0.9851602071404456,0.8597691558867693,0.3236521084070205
1667581581258171100,9.935171142578126,1.0486392843604087,0.6932716027408838,0.1887988168030977
1667581581268192000,9.94519189453125,1.1818798800706862,0.5157014514386654,0.10855419048219919
1667581581278214000,9.9552138671875,1.436884568709135,0.3216489518910646,-0.17406711161732671
1667581581288235000,9.965235107421876,1.4962486118257046,-0.0517009611427784,-0.5820657287061214
1667581581298257000,9.9752568359375,1.0803414135694502,-0.06917290494740008,-0.38701165090054274
1667581581308279000,9.985279052734375,0.7345242351055145,0.18219313492774963,-0.3169143245846033
1667581581318300000,9.9952998046875,0.17646774301826954,0.06195932030677795,-0.49924905994012947
1667581581328322000,10.005322021484375,-0.07997311590313912,-0.06155775376856327,-0.38071664240956304
1667581581338344000,10.015343994140625,-0.08415127837061881,0.006686345896124839,-0.27711232941970226
1667581581348365000,10.025364990234374,-0.1631014809668064,-0.013344634741544723,-0.24094503749534485
1667581581358387000,10.035386962890625,-0.23975801966786384,-0.10081658196747302,-0.21726269474327564
1667581581368408000,10.045407958984375,-0.2153688438206911,-0.056557753524184226,-0.24466961097642778
1667581581378430000,10.055429931640624,-0.07546469856798649,0.12754092276394366,-0.2683611599482596
1667581581388452000,10.0654521484375,0.17198036847114562,0.23110826474428176,-0.14670169643834233
1667581581398473000,10.075472900390626,0.4630097256928682,0.18461130198538303,0.06237374632656574
1667581581408494800,10.085494873046875,0.6014484745681286,0.052475452646613116,0.1714307717643678
1667581581418517000,10.09551708984375,0.46310850989222524,-0.03297755597233772,0.2669827112019062
1667581581428537900,10.105537841796876,0.42698739519715306,0.028026071044802665,0.46868908650353547
1667581581438560000,10.11556005859375,0.6112134972572326,0.24491058012545108,0.7347679807335138
1667581581448582000,10.125581787109375,0.8601672152936458,0.4628203406006097,0.9531948969505727
1667581581458603000,10.13560302734375,1.0588093807190655,0.6830529910653829,0.9772263454012572
1667581581468625200,10.145625244140625,1.36775784099102,0.8540016784012318,0.875148511326313
1667581581478646000,10.15564599609375,1.9015613508313893,0.9529705866754055,0.8633328397177159
1667581581488668000,10.16566796875,2.44778361274004,0.9849632232636213,0.9258582694746553
1667581581498689800,10.175689697265625,2.804015802234411,0.9970277550667523,1.0563470822587608
1667581581508711000,10.1857109375,2.95263984503746,1.0550234324395655,1.2574264117032288
1667581581518733000,10.195733154296875,3.013619506657123,1.2473352257996797,1.4334972643584012
1667581581528755000,10.2057548828125,2.91537774361372,1.464932267063856,1.4632481133691966
1667581581538775800,10.21577587890625,2.6530612706571817,1.5139239692479372,1.3936277569152413
1667581581548798000,10.2257978515625,2.4351667077511547,1.4755436774492263,1.310999450328201
1667581581558819000,10.235819091796875,2.314070138821006,1.500753522029519,1.24356257539317
1667581581568841000,10.245841064453124,2.143553997683525,1.4469897831380367,1.3065674592301249
1667581581578862800,10.25586279296875,1.7614917858839034,1.4218401443123816,1.456776725398004
1667581581588884000,10.265884033203125,1.3840385291844606,1.367881175109744,1.6746506839074193
1667581581598906000,10.275906005859374,1.0865998894423246,1.3862193803548812,1.7896692480981349
1667581581608928000,10.285927978515625,0.8636632407158613,1.4259025714457034,1.6813859835118055
1667581581618948900,10.295948974609376,0.7344517543911934,1.4094032720655203,1.2262871770739554
1667581581628970800,10.305970703125,0.7036117949694395,1.2673580231308936,0.3465428623899817
1667581581638993200,10.3159931640625,0.9309235900402069,0.9150479755163192,-0.4356963329620659
1667581581649014000,10.326013916015626,1.3429320272922516,0.5823299326002598,-0.9411877944231033
1667581581659036000,10.336035888671875,1.6155232260257004,0.3013099282175302,-1.0600237249448894
1667581581669056800,10.346056884765625,1.5559487550288438,0.24606968703269957,-0.9527657117530703
1667581581679079200,10.3560791015625,1.2207236977279186,0.35580841112434863,-0.5448524348601699
1667581581689101000,10.36610107421875,0.5566828656464815,0.612214198732376,0.09326324397847056
1667581581699122000,10.376121826171875,-0.3187491387963295,0.9443623328059911,0.5201356344938278
1667581581709143800,10.386143798828124,-1.193788344529271,1.12665016027987,0.5760860697746276
1667581581719166000,10.396166015625,-1.62298406342566,1.174327272734046,0.49895957547426223
1667581581729187000,10.40618701171875,-1.6042130197212099,1.145208730277419,0.17588775117322802
1667581581739209000,10.416208984375,-1.227744390144944,1.0806973874002694,-0.3429733333401382
1667581581749229800,10.426229736328125,-0.6743848237022757,0.9501672196924685,-0.8151920552745461
1667581581759252000,10.436251953125,-0.08118073812723159,0.7999421714335679,-1.047656849194318
1667581581769274000,10.446274169921875,0.6765250506013631,0.6029799219191074,-1.0289876584291457
1667581581779294200,10.456294189453125,1.1826660620123148,0.43052083002030844,-0.7450060277618468
1667581581789316400,10.46631640625,1.362510003465414,0.39335225209891794,-0.30381197416633365
1667581581799338200,10.476338134765625,1.3804425505191087,0.348267494225502,0.36087300103753805
1667581581809359400,10.486359375,1.095045646226406,0.24198855519890783,1.0426372674666344
1667581581819381200,10.49638134765625,0.534034980508685,0.12691899147331714,1.36887720040977
1667581581829403400,10.5064033203125,-0.20199439846277237,-0.08370821077823638,1.3457254574030637
1667581581839424300,10.51642431640625,-1.0821429100334643,-0.2908598458737135,1.0153731207050383
1667581581849446400,10.5264462890625,-1.7761060021698474,-0.4180722673356533,0.4878983754947781
1667581581859467300,10.53646728515625,-1.7038906607866287,-0.5618278273195028,0.0737048492886126
1667581581869489400,10.546489501953126,-1.0439560949802398,-0.8926642942726611,-0.22594342932701109
1667581581879511300,10.55651123046875,-0.25316139885932204,-1.3164701368242502,-0.5787368765443563
1667581581889532400,10.566532470703125,0.14813187537193298,-1.537037133809924,-0.9887778131157159
1667581581899554300,10.57655419921875,0.0880012317970395,-1.4571487735807895,-1.1894500230640173
1667581581909576400,10.586576416015625,0.055149640291929244,-1.2463655039846897,-1.165529633772373
1667581581919597300,10.596597412109375,-0.06973609178811312,-0.9612924248188733,-1.0898714584589004
1667581581929619200,10.606619140625,-0.4472597833752632,-0.7528887438356876,-0.9826850491985678
1667581581939640300,10.616640380859375,-0.8967091857492924,-0.6717413234561681,-0.8895648669525981
1667581581949662500,10.626662353515625,-1.2317653162240982,-0.6394605175763368,-0.8872209341749548
1667581581959684400,10.636684326171874,-1.4510980952396988,-0.664085840266943,-0.7889432230353355
1667581581969705200,10.646705322265625,-1.441271113230288,-0.6453630196183919,-0.5581695970728993
1667581581979727400,10.656727294921875,-1.1424947951436042,-0.6339905617326498,-0.3268327842697501
1667581581989749500,10.66674951171875,-0.7129203060626983,-0.6974865900874138,-0.05826338839828968
1667581581999770400,10.676770263671875,-0.6088058515936136,-0.723163467657566,0.07939999219030142
1667581582009792300,10.686792236328126,-0.8309399517655373,-0.6700503016293049,0.15751958918124437
1667581582019814100,10.696814208984375,-1.1816250285267829,-0.6423784508496523,-0.1211062135413289
1667581582029835300,10.706835205078125,-1.4116303004652262,-0.8022878577768802,-0.6312415552854538
1667581582039857400,10.716857421875,-1.5984601552829145,-0.9912538478404282,-1.0768281447514891
1667581582049880300,10.72688037109375,-1.6279054454758763,-1.0760913549095392,-1.2794997118234634
1667581582059901200,10.736901123046875,-1.4905591680124401,-1.1551543702304363,-1.1990060791775583
1667581582069923300,10.74692333984375,-1.2596101854830979,-1.2736369572699069,-1.0469777808889746
1667581582079945200,10.7569453125,-1.022491282147169,-1.4220248532295225,-0.8920943854302167
1667581582089966300,10.76696630859375,-0.8821782638326287,-1.6233260087311268,-0.5753089479222894
1667581582099988200,10.77698828125,-1.124731174916029,-1.8317898954689502,-0.5019260240644217
1667581582110010400,10.78701025390625,-1.7020336347430944,-1.9870710580736397,-0.7778200637355447
1667581582120031200,10.79703125,-2.0655960209950806,-2.2564865493804214,-1.0358435156732797
1667581582130053400,10.807053466796875,-1.9980168149799107,-2.440702130046487,-1.2517968813836573
1667581582140074200,10.81707421875,-1.7047282806545494,-2.4914661026000977,-1.4673697233438492
1667581582150096400,10.827096435546874,-1.397890821187198,-2.4635037444412706,-1.6629855266854165
1667581582160118300,10.8371181640625,-1.188971299636364,-2.366678862458467,-1.7138818934470414
1667581582170139400,10.847139404296875,-0.9869640416920185,-2.2344652717083693,-1.70756204277575
1667581582180161300,10.857161376953124,-0.9031593848019838,-2.1802093653857706,-1.6557210886403917
1667581582190183400,10.867183349609375,-0.7957932350605725,-2.262172193801403,-1.4808257095053792
1667581582200204300,10.877204345703126,-0.8303691661402582,-2.3557699304312467,-1.2261943842239678
1667581582210226200,10.88722607421875,-1.1068056421250105,-2.558610716590285,-1.0220647272981702
1667581582220248300,10.897248291015625,-1.4097984088629483,-2.7333552890777586,-0.6586345891237259
1667581582230269400,10.90726953125,-1.7464304103523491,-2.6683856810390947,-0.20231851585060356
1667581582240291300,10.917291259765625,-2.059761031231284,-2.5900042182415723,0.06565934386849404
1667581582250312400,10.9273125,-2.3109745108932254,-2.7079502141863108,-0.18226356981545686
1667581582260334300,10.937334228515626,-2.292550965452194,-2.883543512457609,-0.7493725524082779
1667581582270356500,10.9473564453125,-1.8267033859848976,-3.1558582323372364,-1.3735592207461595
1667581582280377300,10.95737744140625,-1.2048942604333162,-3.4555011041253803,-2.071691122999787
1667581582290399200,10.967399169921874,-0.6053051499962806,-3.6866514544457196,-2.5087884088009593
1667581582300421000,10.977421142578125,-0.06354571271538734,-3.7914346019566056,-2.6500959911108017
1667581582310442500,10.9874423828125,0.221435888774693,-3.7466041111052033,-2.798558413611352
1667581582320464400,10.99746435546875,0.22446137407571076,-3.750927819523215,-2.9366090399518607
1667581582330485200,11.0074853515625,-0.011482055740058422,-3.7051866435676812,-3.0437600856378673
1667581582340507400,11.01750732421875,-0.3865267899930477,-3.5753181546390054,-3.027309301574528
1667581582350529500,11.027529541015625,-0.6516627042844891,-3.321655528259277,-2.8167586716905233
1667581582360550400,11.03755029296875,-0.8237100005120038,-2.9947032092630863,-2.308454052504897
1667581582370572300,11.047572265625,-0.8289949551776051,-2.6279151389628645,-1.5228662773773074
1667581582380594200,11.05759423828125,-0.9573463175415993,-2.0955553981900215,-0.860269506624341
1667581582390615300,11.067615234375,-1.2298434082508087,-1.6617641681969164,-0.42437750495970245
1667581582400637400,11.077637451171874,-1.536968160226941,-1.3910042765438555,-0.13823299717009066
1667581582410658300,11.087658203125,-1.6753016951620578,-1.2521020018100737,-0.19256079968512058
1667581582420680200,11.09768017578125,-1.7141186248123645,-1.3181307635128496,-0.40527065342962737
1667581582430702300,11.107702392578124,-1.6678259524539112,-1.3149533025205136,-0.4817047815516591
1667581582440723500,11.117723388671875,-1.595003585088253,-1.0885656365573406,-0.4563534826740622
1667581582450745300,11.127745361328126,-1.6289333272188902,-0.8742728975355625,-0.1720727229297161
1667581582460767200,11.137767333984375,-1.6579197677284478,-0.6297989552617073,0.41856794189810753
1667581582470788400,11.147788330078125,-1.5846119549334048,-0.16865911509394646,0.9142050949513911
1667581582480810500,11.157810546875,-1.5994947590276598,0.17361878332793712,1.1990522564068435
1667581582490831400,11.167831298828125,-1.5281699367433785,0.24075462948977946,1.1051666427463291
1667581582500853200,11.177853271484375,-1.25593237375319,-0.028707039046287536,0.7174944821104406
1667581582510875100,11.187875244140624,-0.9498790504008531,-0.7841963207691908,0.4363821232691407
1667581582520896500,11.197896484375,-0.5769853567019104,-1.1926146245747804,-0.0770344321027398
1667581582530918400,11.20791845703125,-0.42414048133343457,-1.404399764689803,-0.2735536140248179
1667581582540940300,11.217940185546874,-0.34163843147456646,-1.5481436342358588,-0.23044600144326685
1667581582550961200,11.227961181640625,-0.428921578130126,-1.55241239759624,-0.11641659442037343
1667581582560983300,11.2379833984375,-0.7089648464351892,-1.6353934631437061,-0.017054595175385476
1667581582571005400,11.24800537109375,-0.9231459417760371,-1.666474245584011,-0.022699907585978507
1667581582581026300,11.2580263671875,-1.2386159127712248,-1.5481857198119162,-0.2609568750411272
1667581582591048200,11.268048095703126,-1.6236299601137638,-1.3388415431082248,-0.7006660969063639
1667581582601069600,11.278069580078125,-1.7979893326759337,-1.1990133857011793,-1.2606050417393446
1667581582611091500,11.288091552734375,-1.6113158374637364,-1.077442184996605,-1.6487836905926465
1667581582621113300,11.29811328125,-1.0700047284722327,-1.1566139213889837,-1.5246856017589567
1667581582631134200,11.30813427734375,-0.23803777174651622,-1.0550240169614553,-1.0486460063621401
1667581582641156400,11.31815625,0.6688309889674187,-0.7045587204307318,-0.20524024851620196
1667581582651178200,11.32817822265625,1.2129770291239022,-0.3449567622423172,0.8164835563898086
1667581582661199400,11.338199462890625,1.4110066156089305,-0.04129296437501907,1.5492632859155535
1667581582671221200,11.34822119140625,1.0943816293597222,0.10134791236519813,1.7417504358425735
1667581582681242000,11.3582421875,0.2899462381601333,0.18451251778602598,1.3325477036610245
1667581582691264500,11.368264404296875,-0.5080839621722698,0.28035598751604557,0.6664388331338763
1667581582701286400,11.378286376953126,-0.9185586139857769,0.373310750067234,0.19379940156936645
1667581582711307300,11.388307373046874,-0.714524818649888,0.5410545038819313,-0.1743646332591772
1667581582721329400,11.398329345703125,-0.10925473996698856,0.35813247015774247,-0.23874767358154056
1667581582731351300,11.408351318359376,-0.06677168902456761,-0.11241700339019298,-0.03274374721646309
1667581582741372400,11.418372314453125,0.09336100526452064,0.05502221451997757,-0.06678747111558914
1667581582751394300,11.428394287109375,0.15981296081542967,0.3092331224322319,-0.011280687949061393
1667581582761415200,11.438415283203126,0.008413608080148696,0.4858592708826065,-0.08224836735874413
1667581582771437300,11.448437255859375,-0.10119593667387962,0.686801529943943,-0.16013503237664697
1667581582781459500,11.45845947265625,-0.14731763637959958,0.9592734862118959,-0.16774784546792507
1667581582791480600,11.46848046875,0.04552139572501182,1.2562602905333042,-0.1060091821745038
1667581582801502500,11.47850244140625,0.39460722059607506,1.4250702122747898,0.20654168650358914
1667581582811524400,11.4885244140625,0.7283411625564098,1.5000842444658278,0.5725944282665848
1667581582821545500,11.49854541015625,0.97362642121315,1.4759177714586258,1.0269541067749262
1667581582831567600,11.508567626953125,1.3162532792031765,1.5918115110486746,1.3994979641228913
1667581582841588500,11.51858837890625,1.6604396415948868,1.8050579558879136,1.540977980390191
1667581582851610400,11.5286103515625,1.7967156594783067,1.9907804339855908,1.837562633651495
1667581582861632300,11.53863232421875,1.8552923516094684,2.1789333541005846,1.916862380337715
1667581582871653600,11.548653564453126,2.0042741218090057,2.3549726425737143,1.8271140126124024
1667581582881675500,11.558675537109375,2.196106022697687,2.57363351367712,1.5362065282046793
1667581582891697400,11.568697509765625,2.385283025163412,2.773541753515601,1.279948040112853
1667581582901718300,11.57871826171875,2.527006202536821,2.799053211390972,1.087712526859343
1667581582911740400,11.588740478515625,2.5989596781134603,2.7431302486389875,1.0858256901994348
1667581582921761500,11.598761474609375,2.597406603452563,2.8293343678861853,1.2874661606580018
1667581582931783400,11.608783447265624,2.473686115759611,3.1366245395570993,1.599009313598275
1667581582941805300,11.618805419921875,2.1203917332828044,3.442207322788238,1.8786492617994546
1667581582951826700,11.62882666015625,1.5679145026326178,3.7170313951402902,2.0792817242592574
1667581582961848600,11.6388486328125,1.0464812295436858,3.9494828911870714,2.060294699716568
1667581582971870500,11.648870361328125,0.7169207738757133,4.033090564200282,1.9610545732855795
1667581582981891300,11.658891357421876,0.6038619654506444,4.01054672395885,1.953448482196033
1667581582991913500,11.66891357421875,0.8838783457487821,3.944312210550904,1.90129890050292
1667581583001934600,11.6789345703125,1.37023855189085,3.749355455639958,1.8725828013673425
1667581583011956500,11.68895654296875,1.809274112278223,3.448483334317803,2.0177637179791925
1667581583021978400,11.698978271484375,1.9562024570792913,3.1883015353024002,2.032617588239908
1667581583031999200,11.708999267578125,1.9200877721250056,3.0001071141332387,1.9569635045796632
1667581583042021600,11.719021728515624,1.801894231159985,2.7596657883763314,1.8217983705475926
1667581583052043500,11.72904345703125,1.5184507990226148,2.4081951141953466,1.6996029004648328
1667581583062064400,11.739064453125,1.1760609646588562,2.0647300518155096,1.5231231747478247
1667581583072086500,11.74908642578125,0.8736910059943794,1.8064163847595451,1.281895082527399
1667581583082107600,11.759107666015625,0.6558493423193693,1.5504203469961881,1.02130499497205
1667581583092129500,11.769129638671876,0.5918114621728658,1.2234890707880257,0.9510784893184899
1667581583102151400,11.7791513671875,0.6771428902387618,0.8406985447138547,1.011935109080374
1667581583112172300,11.78917236328125,0.6761281602382659,0.45133974616527556,1.1250430173441768
1667581583122194400,11.7991943359375,0.5474252079576254,0.11773498354256152,1.1310296905383468
1667581583132216600,11.809216552734375,0.3981728041231632,-0.14897709402441978,0.8588260298177599
1667581583142237400,11.819237548828125,0.22641572301387786,-0.38134441891908644,0.2161228770583868
1667581583152259300,11.82925927734375,0.032445056530833245,-0.7222995443046093,-0.4362017982661724
1667581583162280400,11.839280517578125,-0.016160276684165,-1.1829466325193643,-0.8680784268096089
1667581583172302600,11.849302490234376,0.08432312780618667,-1.436578863760829,-1.098093343359232
1667581583182324500,11.859324462890624,-0.013289105162024497,-1.4745768782436848,-1.1957079144150018
1667581583192345300,11.869345458984375,-0.19783903234899042,-1.4069108707278966,-1.3171852993562816
1667581583202367500,11.879367431640626,-0.4431593623191118,-1.2627163348048924,-1.4752914562538266
1667581583212389400,11.889389404296875,-0.7735603604644536,-1.0719634613245725,-1.6571318322211503
1667581583222410500,11.899410400390625,-1.1375953326642512,-0.9328922597646713,-1.79212131742537
1667581583232432400,11.909432373046876,-1.340161393535137,-0.8496814771145582,-1.6980679459825156
1667581583242453500,11.91945361328125,-1.4205483509361743,-0.830600929069519,-1.4092384368926285
1667581583252475400,11.929475341796875,-1.4949404518365859,-0.8031903595745563,-1.0116022238641977
1667581583262497500,11.93949755859375,-1.6843536011457443,-0.7022621339261531,-0.6358253759443759
1667581583272518400,11.949518310546875,-1.8717431356728076,-0.6289075593799353,-0.41149347346723075
1667581583282540500,11.95954052734375,-1.8677093501120805,-0.6798065564900636,-0.25610358979105946
1667581583292562400,11.9695625,-1.770845305162668,-0.7522533685415983,-0.07628361373543739
1667581583302583600,11.97958349609375,-1.4144681542396544,-0.7032166581720113,0.1770461274281144
1667581583312605400,11.98960546875,-0.8915005111902952,-0.5460895754396915,0.41478550074994563
1667581583322626300,11.999626220703124,-0.4609107075870037,-0.38981414110064505,0.49415246745347974
1667581583332648400,12.0096484375,-0.014666823256015777,-0.16436229468286037,0.43383068522065876
1667581583342670300,12.01967041015625,0.43365503639280795,0.06170037710964679,0.29800767180174587
1667581583352691500,12.02969140625,0.8433686407059431,0.181461313521862,0.10824088674932718
1667581583362713600,12.039713623046875,1.1552473092108964,0.28425591756403445,0.02844546550065279
1667581583372735500,12.049735595703124,1.338662094888091,0.39072424168288705,0.008193535588681697
1667581583382756400,12.05975634765625,1.503468626207113,0.5756798270612955,-0.018240005567669866
1667581583392778500,12.069778564453125,1.5638415541052817,0.7925333564817905,0.1042681837260723
1667581583402799400,12.07979931640625,1.5008704264074564,0.9504676639437675,0.3033735827490687
1667581583412821500,12.089821533203125,1.404374045726657,1.0922679982066155,0.4825225276753306
1667581583422843400,12.099843505859376,1.3491525092422962,1.1744511913746594,0.7593886272490024
1667581583432864500,12.109864501953124,1.2511767036586998,1.1674568024426697,1.1099056539669632
1667581583442886400,12.119886474609375,1.1345318534404039,1.1551695677995681,1.229898353308439
1667581583452908500,12.129908447265626,1.0613742627710103,1.294864454215765,1.1165385161101817
1667581583462929400,12.139929443359375,1.0179086305320262,1.5644395199984311,0.8150015011385082
1667581583472951300,12.149951416015625,1.1901976265609264,1.9203776949822902,0.5102350027263164
1667581583482972400,12.159972412109376,1.5149743550837038,2.2777327510267495,0.3965443261384964
1667581583492994600,12.16999462890625,1.8517185847759245,2.5188053604245186,0.4805179098546505
1667581583503016400,12.180016357421875,2.1355317270085212,2.571553784793615,0.6247939865812658
1667581583513037600,12.19003759765625,2.2200293345987796,2.5156588790923355,0.728406044486165
1667581583523059500,12.2000595703125,2.1522797404527663,2.351768878096342,1.0786071371227501
1667581583533080600,12.21008056640625,1.926927847278118,2.204166579556465,1.3951403534352778
1667581583543102500,12.2201025390625,1.435235632458329,2.1399299619674683,1.7157479795798658
1667581583553124400,12.230124267578125,1.023558034595847,2.2275731741070746,1.7765242275819182
1667581583563145500,12.2401455078125,0.8839473193317651,2.4915093572199343,1.5414549502521753
1667581583573167600,12.250167724609375,1.0418272662580013,2.7312720530629155,1.1347241611421108
1667581583583189500,12.260189453125,1.2365505046740173,2.667437586534023,0.7537535439714789
1667581583593210400,12.27021044921875,1.3905010031968355,2.3723370343506334,0.46532910855114457
1667581583603232300,12.280232177734375,1.5160422765761612,2.0712708517611027,0.17097586760371922
1667581583613253400,12.29025341796875,1.6222668550670145,1.8649772947996854,-0.01026566568762064
1667581583623275500,12.300275634765624,1.6550503497719764,1.6660440374732017,-0.12596563627123833
1667581583633297400,12.31029736328125,1.7276579053431749,1.3949194041609763,-0.07230857262462377
1667581583643318500,12.320318603515625,1.7442215021312235,1.250503334441781,0.28195933105945586
1667581583653340700,12.330340576171874,1.51528006003201,1.3704764522999524,0.6245733295679092
1667581583663362600,12.340362548828125,1.1418319473206997,1.6309645407855509,0.6978630221843719
1667581583673383400,12.350383544921876,0.5421335312902927,1.608457525423169,0.46338265065848827
1667581583683405300,12.3604052734375,-0.11520751089155673,1.3632178594738245,-0.21412381219565868
1667581583693426400,12.370426513671875,-0.5146528191685676,1.0432412247091531,-1.2363903456762433
1667581583703448600,12.380448486328126,-0.8559037126302719,0.7644710450798272,-2.1310367536768315
1667581583713470500,12.390470458984375,-0.8804784741774201,0.6776596075892448,-2.512644207446277
1667581583723491300,12.4004912109375,-0.6523182455837726,0.6902502090930939,-2.218236605963111
1667581583733513500,12.410513427734376,-0.327573373503983,0.8263526239752769,-1.5699161978438496
1667581583743535600,12.42053564453125,0.20151041433811187,1.0249135408580303,-0.693442867654562
1667581583753556500,12.430556396484375,0.560874472117424,1.0189408961892128,0.4628595035672188
1667581583763578400,12.440578369140624,0.6655173343747853,0.9516092351943254,1.5009054977208376
1667581583773600000,12.45060009765625,0.7423331552907824,1.045035706910491,2.0617671103566884
1667581583783622100,12.4606220703125,0.6718003601670265,1.122463229984045,2.076568665908277
1667581583793644300,12.470644287109375,0.003049450698494911,0.8497218091249465,1.3754869739383457
1667581583803665200,12.4806650390625,-0.5294301170617342,0.6909989816337824,0.4402469820037484
1667581583813687000,12.49068701171875,-0.671579410892725,0.739900082924962,-0.15720833127498626
1667581583823709200,12.500709228515625,-0.5389668839529156,0.7107745262056588,-0.2531359721571207
1667581583833730300,12.510730224609375,-0.18999474858939647,0.7447896085321902,-0.22618220651894808
1667581583843752200,12.520752197265624,0.1684104010298848,0.8460346450448035,-0.13940437903702257
1667581583853773000,12.53077294921875,0.43353433262258767,0.8242191190779209,0.2651230548098683
1667581583863795000,12.540794921875,0.683584321463108,0.6915513548195362,0.6209178758002817
1667581583873817000,12.550817138671874,0.7438944132581353,0.5324976879388094,0.9345395885802805
1667581583883838200,12.560838134765625,0.5920718666747212,0.40484570601582526,1.1565735893785953
1667581583893860000,12.570860107421876,0.3792185128062963,0.19893851802349088,1.0380600226789711
1667581583903882000,12.580882080078124,-0.15274667569100855,-0.10820961482822894,0.6672879973091185
1667581583913903400,12.5909033203125,-0.8519397774353623,-0.38974107586443424,0.24345205188021063
1667581583923925200,12.60092529296875,-1.1692813875213264,-0.5336714078933,0.030192601428925988
1667581583933946000,12.610946044921874,-1.2113748546242713,-0.7032780329704285,0.10718144082427024
1667581583943968000,12.620968017578125,-0.951371334785223,-0.803345842397213,0.24425679239183662
1667581583953990100,12.630990234375,-0.54288464191854,-0.7488760010629892,0.25172347501069303
