time,seconds_elapsed,z,y,x
1667581571396870000,0.073869873046875,-9.482108249276877,-2.12938445642516,1.3136694001898168
1667581571406892000,0.08389208984375,-9.488008997753262,-2.094503404919058,1.3270751174688338
1667581571416914000,0.093913818359375,-9.493224686574935,-2.0656996275000274,1.334896897135675
1667581571426935000,0.10393505859375,-9.498021273201703,-2.0451716571256515,1.3323862294889985
1667581571436957200,0.113957275390625,-9.50280090869367,-2.0337771335385737,1.3156421615675091
1667581571446979000,0.12397900390625,-9.507209372785686,-2.0311080604597924,1.287614921478927
1667581571457000000,0.134,-9.510798337188362,-2.035378723516315,1.253927463671565
1667581571467021800,0.144021728515625,-9.513745496556162,-2.042929431156814,1.218796967449039
1667581571477044200,0.154044189453125,-9.516839370918273,-2.050457342443615,1.1814314787160605
1667581571487065000,0.164065185546875,-9.520136074376106,-2.0581587106011807,1.1407782735493033
1667581571497087000,0.1740869140625,-9.522667638680339,-2.0687484936766327,1.0997557236135005
1667581571507108900,0.18410888671875,-9.523741405391693,-2.0837008558757604,1.0615651822332293
1667581571517130000,0.1941298828125,-9.523667755633593,-2.101892053865641,1.0257616821199655
1667581571527152000,0.204152099609375,-9.523155714458227,-2.1210613031074406,0.9904491803940385
1667581571537174000,0.214174072265625,-9.522633151888847,-2.1397557744443416,0.9546154312729835
1667581571547195000,0.22419482421875,-9.522334461203217,-2.1568542087614535,0.9184289231915026
1667581571557217000,0.234217041015625,-9.522448442971706,-2.1714640411332247,0.8821041026178746
1667581571567239200,0.2442392578125,-9.523257421267033,-2.1823944543398914,0.845641773269698
1667581571577260000,0.254260009765625,-9.525080545040964,-2.188279712986201,0.809110397273302
1667581571587282000,0.264281982421875,-9.52786929897666,-2.189374230224639,0.772482282904163
1667581571597304000,0.274303955078125,-9.530586156719922,-2.189272961807251,0.738510674393177
1667581571607325200,0.2843251953125,-9.531481644254923,-2.193797745755315,0.7130832415394485
1667581571617347000,0.29434716796875,-9.529109654426573,-2.2080309998996555,0.7007532637331635
1667581571627369000,0.304368896484375,-9.522748887223004,-2.2345405289016664,0.7031833404242992
1667581571637389800,0.314389892578125,-9.51251800058782,-2.273162666632235,0.7177198883641511
1667581571647412000,0.324411865234375,-9.499283255961537,-2.321558887141198,0.7378082252122461
1667581571657433000,0.33443310546875,-9.484653257584572,-2.374811315509677,0.7563160879358649
1667581571667455000,0.344455078125,-9.47053822299242,-2.42725841884464,0.7666212819162755
1667581571677477000,0.35447705078125,-9.458289566794038,-2.475085168902576,0.7649153547812253
1667581571687498000,0.364498046875,-9.44843920390904,-2.5172435179352757,0.7489082228321582
1667581571697520000,0.37452001953125,-9.440779044544696,-2.5545517965883016,0.7185689064089208
1667581571707542000,0.3845419921875,-9.43484088666737,-2.588231363350153,0.674697177587077
1667581571717563000,0.39456298828125,-9.429799385368824,-2.62028683604151,0.6191682556539774
1667581571727585000,0.4045849609375,-9.424598894116281,-2.6528277541622516,0.5566164128141478
1667581571737607000,0.41460693359375,-9.418563705605267,-2.6869638325199485,0.49119226594101634
1667581571747628000,0.4246279296875,-9.411144369259477,-2.7238144305333494,0.42612380063775923
1667581571757650000,0.43464990234375,-9.402181895124912,-2.763302683573961,0.36540114598646756
1667581571767672000,0.444672119140625,-9.39168797363937,-2.8054692159131167,0.3097119189251214
1667581571777693000,0.45469287109375,-9.379314229756593,-2.851517558121681,0.2601846850922331
1667581571787715000,0.464715087890625,-9.364943174576759,-2.901857460044324,0.21781919611487535
1667581571797737200,0.4747373046875,-9.34882673703432,-2.9557074159145356,0.183348387643788
1667581571807758000,0.484758056640625,-9.331588601985572,-3.0112060157746074,0.15645592373879624
1667581571817780000,0.494780029296875,-9.314076910692453,-3.065793930530548,0.13878100470798088
1667581571827802000,0.504802001953125,-9.297132790154219,-3.117169020719826,0.13023218027506955
1667581571837823200,0.5148232421875,-9.281281141027808,-3.1640920999363065,0.12931099204323254
1667581571847845000,0.52484521484375,-9.266443637380004,-3.2071807155564427,0.13191753041297197
1667581571857867300,0.5348671875,-9.252381794279813,-3.2473955293059347,0.13505867798291146
1667581571867888000,0.54488818359375,-9.238502322009206,-3.2865462209552523,0.13812139915493316
1667581571877910000,0.554909912109375,-9.224209008240699,-3.3262931249320506,0.14186013815868645
1667581571887932200,0.56493212890625,-9.208931359609961,-3.3682319859951733,0.1448404965431895
1667581571897953000,0.574953125,-9.191769212406873,-3.4147876932039853,0.14485440633753313
1667581571907975200,0.58497509765625,-9.172054458111525,-3.4675594984486695,0.14082874928433448
1667581571917997000,0.5949970703125,-9.149134770295023,-3.5279411941751837,0.13171391586596146
1667581571928018200,0.60501806640625,-9.122997289475798,-3.595511047840118,0.11663491334617138
1667581571938040000,0.6150400390625,-9.09526289485395,-3.6656294169440864,0.09867293013543821
1667581571948062200,0.625062255859375,-9.069124244990943,-3.7303658007487654,0.0757910353123676
1667581571958083000,0.6350830078125,-9.046753423228859,-3.7847692988485098,0.04639942066855728
1667581571968105000,0.64510498046875,-9.028575376981497,-3.828189630641043,0.013092709232022753
1667581571978127400,0.65512744140625,-9.014613487124443,-3.8609140886351465,-0.021647765901254022
1667581571988148200,0.665148193359375,-9.005030250743031,-3.8828330749765034,-0.05849271734186914
1667581571998170000,0.675170166015625,-8.999037732329963,-3.8959126290410753,-0.09782755621932446
1667581572008191200,0.685191162109375,-8.995162936723231,-3.9036519911214707,-0.13758618716653437
1667581572018213000,0.695213134765625,-8.991688538610935,-3.9100305862426756,-0.17770126686859875
1667581572028235300,0.7052353515625,-8.987177198666334,-3.918575419487059,-0.21400190284904091
1667581572038256000,0.715256103515625,-8.981391601002215,-3.9299607368543743,-0.24575923284403978
1667581572048278000,0.725278076171875,-8.974881196194886,-3.9430420444846153,-0.2726038572856225
1667581572058300000,0.7352998046875,-8.968408200788497,-3.956214829790592,-0.2939426873851567
1667581572068321300,0.7453212890625,-8.962868686839938,-3.967540525925159,-0.30982622948717325
1667581572078343200,0.75534326171875,-8.959255172517896,-3.9747038416832683,-0.322265622484684
1667581572088365000,0.765364990234375,-8.958476004838943,-3.9755087283253667,-0.33380620347894724
1667581572098386200,0.77538623046875,-8.960701864194869,-3.9694720785096287,-0.3456920907795429
1667581572108408300,0.785408203125,-8.963951221379638,-3.9610163848534223,-0.35821233046092094
1667581572118430200,0.79543017578125,-8.966541237872839,-3.9544188862845298,-0.36618020406756546
1667581572128451000,0.805451171875,-8.967622603368758,-3.9515421618044373,-0.37072730944529175
1667581572138473000,0.815472900390625,-8.96761909623742,-3.951045318198204,-0.37608094543293114
1667581572148495000,0.8254951171875,-8.967159662032127,-3.9515494683280585,-0.3816887023121118
1667581572158516200,0.83551611328125,-8.96668853738904,-3.9521012569919227,-0.38700511156190187
1667581572168538000,0.8455380859375,-8.966793166807294,-3.951250193120539,-0.3932203693475574
1667581572178560000,0.85556005859375,-8.967586947533487,-3.9486929098531602,-0.4007320966845378
1667581572188581000,0.8655810546875,-8.968880494475364,-3.944838572512567,-0.40965106047093863
1667581572198603300,0.875603271484375,-8.970389145472645,-3.940473655301332,-0.41853648731391874
1667581572208625200,0.885625244140625,-8.971509673935174,-3.93723248142302,-0.42496535131763663
1667581572218646000,0.89564599609375,-8.971862725156544,-3.9360511626839636,-0.4284389091797173
1667581572228668200,0.905668212890625,-8.971366466072201,-3.937143341834843,-0.42879681923929597
1667581572238690000,0.91568994140625,-8.969832680633663,-3.9410359653592106,-0.42511257776860145
1667581572248711200,0.925711181640625,-8.966942219889164,-3.948408247692883,-0.41762101643681526
1667581572258733000,0.935733154296875,-8.96178381421268,-3.9612238901242613,-0.40683852380085733
1667581572268755200,0.945755126953125,-8.954739740920067,-3.9786420579150317,-0.3916892873227596
1667581572278776000,0.955776123046875,-8.94725201551318,-3.996731841357052,-0.37841614691484715
1667581572288798200,0.965798095703125,-8.941112197583914,-4.0112236003071065,-0.37010369765423234
1667581572298820000,0.975820068359375,-8.93716433674097,-4.02043098911345,-0.36553792410865427
1667581572308841200,0.98584130859375,-8.934899314418434,-4.025725003868342,-0.3626334713714197
1667581572318863000,0.995863037109375,-8.934082737338542,-4.027885396772623,-0.3587320069534704
1667581572328885000,1.005885009765625,-8.9348163123101,-4.0265924343526365,-0.3549597218731418
1667581572338906000,1.015906005859375,-8.937486992824077,-4.021006450913847,-0.35101562388986346
1667581572348928300,1.02592822265625,-8.942073151570558,-4.011359501646459,-0.34453287427444007
1667581572358949000,1.03594921875,-8.948321106049418,-3.9982831624522803,-0.3341589989719912
1667581572368971000,1.045970947265625,-8.956414396134019,-3.981096173068881,-0.3223303582839668
1667581572378993200,1.0559931640625,-8.966124473765491,-3.959894979608059,-0.31340419757179916
1667581572389014300,1.06601416015625,-8.976407382848858,-3.9367715859130024,-0.31035091094840317
1667581572399036200,1.0760361328125,-8.985693682110309,-3.9152734553322195,-0.3135665485266596
1667581572409058000,1.08605810546875,-8.992305793726445,-3.899264569817483,-0.3233446498930454
1667581572419079200,1.0960791015625,-8.994841449683904,-3.892082257097959,-0.3389852500846609
1667581572429101300,1.106101318359375,-8.992322744861244,-3.8961712799772616,-0.3582743628464639
1667581572439123200,1.116123291015625,-8.984632774880527,-3.9119972101405263,-0.3782018465770408
1667581572449144000,1.12614404296875,-8.972871609938144,-3.9372444641217585,-0.3950538683850318
1667581572459166000,1.136166015625,-8.959169832322,-3.9672199156686663,-0.4059903094736859
1667581572469188000,1.14618798828125,-8.946336069712043,-3.9954309878915546,-0.4122929532818496
1667581572479209200,1.156209228515625,-8.936882597190142,-4.016029247023165,-0.4171643587104976
1667581572489231000,1.166231201171875,-8.932604481479524,-4.024894398263097,-0.4233094373367727
1667581572499253000,1.1762529296875,-8.934054095765948,-4.020809174776077,-0.4314517541948706
1667581572509274400,1.1862744140625,-8.940304972854257,-4.00621044832021,-0.4377296654205769
1667581572519296300,1.196296142578125,-8.9492855671674,-3.9860070337250826,-0.4386536849303171
1667581572529318100,1.206318115234375,-8.958076191866397,-3.966929408289492,-0.4321217624109238
1667581572539339000,1.216339111328125,-8.964141775515674,-3.9548116849943993,-0.41714598280359055
1667581572549361200,1.226361083984375,-8.965691343045235,-3.953450918035209,-0.39621812639143317
1667581572559383000,1.236383056640625,-8.962614419817925,-3.9626200206577775,-0.3735912475090474
1667581572569404200,1.246404052734375,-8.955825782591104,-3.9798189927399155,-0.35300752835944293
1667581572579426000,1.256426025390625,-8.947077827990055,-4.000955012010038,-0.33547804568130524
1667581572589448200,1.2664482421875,-8.938103078895807,-4.022266972368955,-0.3194803391477093
1667581572599469300,1.27646923828125,-8.930681988984347,-4.040041113990545,-0.30228480113167316
1667581572609491200,1.2864912109375,-8.92575213136673,-4.052153576588631,-0.2852828859915957
1667581572619513000,1.29651318359375,-8.92343917824924,-4.0584611523002385,-0.2674123713234439
1667581572629534200,1.3065341796875,-8.924154048520325,-4.058167137789726,-0.2472587506867945
1667581572639556000,1.31655615234375,-8.92826908262372,-4.0502494965329765,-0.22776704629128797
1667581572649578000,1.326577880859375,-8.935754469943046,-4.034594539022446,-0.2114745945948176
1667581572659599000,1.33659912109375,-8.945040184682608,-4.014721087034046,-0.19661414846284314
1667581572669621200,1.346621337890625,-8.955297959324717,-3.992507793921232,-0.1813879377583973
1667581572679643100,1.35664306640625,-8.966044394266605,-3.968921166628599,-0.16760560571933164
1667581572689664000,1.3666640625,-8.975781359905003,-3.9474429097920654,-0.15306551411552355
1667581572699686100,1.37668603515625,-8.983485942932964,-3.9305572414427994,-0.13446736102625728
1667581572709707000,1.38670703125,-8.989227116933465,-3.9181206614568826,-0.11185707708564586
1667581572719729200,1.396729248046875,-8.993801585242151,-3.908256270046532,-0.08629025402753614
1667581572729751000,1.4067509765625,-8.998014819023012,-3.899062325243652,-0.058503302667965176
1667581572739772200,1.416772216796875,-9.002667613264919,-3.8886315321221945,-0.03006779002245748
1667581572749794300,1.426794189453125,-9.008100159707665,-3.8761467290803786,-0.001588206196016108
1667581572759816200,1.436816162109375,-9.014534576669336,-3.861059926846623,0.027657233165833166
1667581572769836800,1.4468369140625,-9.022191813424229,-3.842775205354392,0.059348329524206926
1667581572779859000,1.45685888671875,-9.031281128808855,-3.82062357930094,0.09583205328686162
1667581572789880800,1.466880859375,-9.042200582230091,-3.79343162099272,0.13737817957219667
1667581572799901700,1.476901611328125,-9.05482800861299,-3.761278533145785,0.18237809957321732
1667581572809923800,1.486923828125,-9.06831175956428,-3.7261522747069593,0.227820767506212
1667581572819945700,1.49694580078125,-9.081550011321902,-3.690755382633209,0.2723250768768601
1667581572829966800,1.506966796875,-9.093103086471556,-3.6585324444204566,0.3178107619676739
1667581572839989000,1.516989013671875,-9.102502198457717,-3.630706279861927,0.36442886688821013
1667581572850011000,1.527010986328125,-9.110046622487902,-3.606789397701621,0.41049463515561074
1667581572860031700,1.53703173828125,-9.116499159628152,-3.585011281135678,0.45553719785511493
1667581572870054000,1.547053955078125,-9.122413352108001,-3.5641499871537086,0.49878991799578065
1667581572880076000,1.557075927734375,-9.128025931292772,-3.5437551416397093,0.5397455401752144
1667581572890097000,1.567096923828125,-9.133616298645734,-3.523285185062885,0.5778397085089236
1667581572900118800,1.577118896484375,-9.138738463965058,-3.503959722346067,0.6132787592239678
1667581572910140700,1.587140625,-9.143356186893582,-3.4860572781696915,0.6456182364884764
1667581572920161800,1.597161865234375,-9.14778101759851,-3.468806868161261,0.6751756818190217
1667581572930184000,1.607183837890625,-9.152427382099628,-3.4511396940454837,0.7022032433457672
1667581572940205800,1.617205810546875,-9.157519152280688,-3.4323061064988374,0.7276663320347666
1667581572950226700,1.627226806640625,-9.163248635843395,-3.41159941855669,0.7524933147773146
1667581572960248800,1.637248779296875,-9.169745012125372,-3.3885002825200554,0.777323220129311
1667581572970271000,1.64727099609375,-9.177141552117467,-3.3627471248432994,0.8014941501159221
1667581572980291800,1.657291748046875,-9.184848473232984,-3.3360829898014663,0.8243165881030261
1667581572990313700,1.667313720703125,-9.191934047579764,-3.311058438660204,0.8459467475656419
1667581573000336000,1.6773359375,-9.197547795808315,-3.2901459990128874,0.8662805836074053
1667581573010357000,1.68735693359375,-9.200648099911213,-3.2761487455815077,0.8861752245143055
1667581573020379000,1.69737890625,-9.200674987918138,-3.270703924179077,0.9057945556111633
1667581573030399700,1.707399658203125,-9.19809899995029,-3.273049318261444,0.923311215340346
1667581573040421600,1.717421630859375,-9.194398391866683,-3.2796719512715935,0.9365738708868622
1667581573050443800,1.72744384765625,-9.191126822850107,-3.286301014022529,0.9454092115104198
1667581573060465000,1.73746484375,-9.189023713091014,-3.2904756693586705,0.9513131748571991
1667581573070486800,1.74748681640625,-9.188407042497396,-3.2906691461041566,0.9565855623021722
1667581573080509000,1.757509033203125,-9.188924928891659,-3.2874265109211205,0.962740943126753
1667581573090529800,1.76752978515625,-9.189693575176596,-3.282835968260467,0.9710320208057761
1667581573100552000,1.777552001953125,-9.18998291351199,-3.279109641213715,0.9808381061576307
1667581573110573800,1.78757373046875,-9.189608234980701,-3.277319250665605,0.9902828839164227
1667581573120594700,1.7975947265625,-9.188710409358142,-3.277586084908247,0.997705508197844
1667581573130616800,1.807616943359375,-9.187628459340333,-3.279249049684405,1.0021921520926058
1667581573140638700,1.817638671875,-9.18629224230051,-3.282429141025245,1.0040290121309459
1667581573150659800,1.827659912109375,-9.18459420621097,-3.2870737519606945,1.0043680348269641
1667581573160681700,1.837681640625,-9.18222864612341,-3.293977832260728,1.0033798275072128
1667581573170704000,1.847703857421875,-9.178932527187467,-3.303773834609985,1.0013281556744127
1667581573180724700,1.857724853515625,-9.174801126471161,-3.3162335032105443,0.9979993765778838
1667581573190747000,1.867746826171875,-9.170190417805314,-3.330604558390379,0.9925040670972317
1667581573200769000,1.87776904296875,-9.165714149174093,-3.3450942715138194,0.9850929140578955
1667581573210790000,1.887789794921875,-9.161973209080099,-3.35783158801198,0.9765256497859954
1667581573220811800,1.897811767578125,-9.159382023543118,-3.36730551880002,0.9681747316785156
1667581573230833700,1.907833740234375,-9.157457777482271,-3.375054525491595,0.9593526158627123
1667581573240854800,1.917854736328125,-9.155810594797133,-3.3818446240231395,0.9511270777005701
1667581573250877000,1.927876953125,-9.154407742261887,-3.387715561883151,0.9437081066809594
1667581573260898800,1.93789892578125,-9.152894415089488,-3.3937036963820457,0.9368456735655665
1667581573270919700,1.947919677734375,-9.150700704437494,-3.4012302924945947,0.9309656756162643
1667581573280941800,1.95794189453125,-9.147883308929204,-3.4103345131874083,0.925328254251182
1667581573290964000,1.9679638671875,-9.14481398448646,-3.4203213619336483,0.9187843125004321
1667581573300984800,1.97798486328125,-9.14164236871302,-3.430740464617312,0.9114699708990752
1667581573311006700,1.9880068359375,-9.138504655209184,-3.4411657047808166,0.9036017948072403
1667581573321027800,1.99802783203125,-9.13558321480453,-3.4508506479710337,0.8961790974605828
1667581573331050000,2.008050048828125,-9.132919548553227,-3.459619645360112,0.889494139803946
1667581573341072000,2.01807177734375,-9.130339468932151,-3.467972463163733,0.8834329400688409
1667581573351092700,2.0280927734375,-9.127343209725618,-3.4773154610484838,0.8776511417970061
1667581573361114600,2.038114501953125,-9.12351634491384,-3.488846324366331,0.8716549701221287
1667581573371137000,2.048136962890625,-9.118589409905672,-3.5031571737915277,0.8657934576775879
1667581573381158000,2.058157958984375,-9.1127389303118,-3.519389054407179,0.8615540665421635
1667581573391179800,2.0681796875,-9.106699065625667,-3.535352054953575,0.8600566675912589
1667581573401201700,2.07820166015625,-9.100990040329098,-3.549699144735932,0.8613947112619876
1667581573411223000,2.08822314453125,-9.096215081012248,-3.5609409619793295,0.8654225785385817
1667581573421245000,2.098244873046875,-9.092963385739923,-3.5680461178094145,0.8703117388196289
1667581573431266800,2.108266845703125,-9.091368810024857,-3.5709725266501304,0.8749576649293302
1667581573441287700,2.11828759765625,-9.091058428901434,-3.5709929849162694,0.8780936979327351
1667581573451309800,2.128309814453125,-9.091585083124041,-3.5700478130206466,0.8764827556047589
1667581573461332000,2.13833203125,-9.092248515468835,-3.5709096905469893,0.8660300429124385
1667581573471352800,2.148352783203125,-9.091684451845287,-3.576465863369405,0.8488485334217548
1667581573481374700,2.158374755859375,-9.089529319638013,-3.586973813380301,0.8273228572469205
1667581573491396900,2.16839697265625,-9.086154290246963,-3.601296353243291,0.8017815887551755
1667581573501418000,2.17841796875,-9.08190773871839,-3.6178681333377956,0.7748357872277498
1667581573511440000,2.18843994140625,-9.077083679562806,-3.635275195212662,0.7494748437389731
1667581573521461800,2.198461669921875,-9.072533761173487,-3.6511882191374894,0.7268743048742413
1667581573531483000,2.20848291015625,-9.069363898965715,-3.6632124189302324,0.7056202852476388
1667581573541504800,2.2185048828125,-9.067834789702296,-3.6708296159356832,0.6853970699734986
1667581573551526000,2.22852587890625,-9.067653587916492,-3.674801734437048,0.6662379767995328
1667581573561547800,2.2385478515625,-9.068521018400787,-3.676023677447438,0.647427916258946
1667581573571570000,2.24856982421875,-9.069874186575412,-3.6760602100655433,0.6279687441598624
1667581573581590800,2.2585908203125,-9.071123309853672,-3.676303663432598,0.6081949896862731
1667581573591613000,2.268613037109375,-9.071901308488846,-3.6775226838335393,0.5889126354588196
1667581573601634800,2.278634765625,-9.072423286536335,-3.679170158779621,0.5702890374010429
1667581573611656000,2.288656005859375,-9.073207130390404,-3.6800206381291147,0.5520388027003035
1667581573621677800,2.298677734375,-9.075185152465105,-3.6781732566967604,0.5314558507356792
1667581573631699700,2.30869970703125,-9.079043581458926,-3.672199150723219,0.5062635783446953
1667581573641720800,2.318720947265625,-9.08483853147328,-3.6616800947964188,0.4776965688236057
1667581573651743000,2.328742919921875,-9.091814215704797,-3.647940615518391,0.44925241849720476
1667581573661764900,2.338764892578125,-9.099113140541315,-3.6327827938750383,0.42356874586008486
1667581573671785700,2.34878564453125,-9.105224901419877,-3.6200969153031703,0.40019791674260047
1667581573681808000,2.358807861328125,-9.10837079823017,-3.6144548177629705,0.379054810144566
1667581573691830000,2.368830078125,-9.107498691570758,-3.618606092223525,0.3599232625646516
1667581573701851000,2.378850830078125,-9.10245835931599,-3.632936523132026,0.34264242088533936
1667581573711872800,2.388872802734375,-9.094306032520532,-3.654652095855772,0.3278675706775859
1667581573721894700,2.398894775390625,-9.084878863483667,-3.679088325715065,0.31570692155621943
1667581573731916000,2.408916015625,-9.075941523790359,-3.7019089370712637,0.30584623820660634
1667581573741938000,2.41893798828125,-9.068525110054015,-3.720649293376505,0.29833677589194846
1667581573751959800,2.428959716796875,-9.062617347314953,-3.735328976114094,0.29439700702391564
1667581573761980700,2.438980712890625,-9.058851272779703,-3.7444606693357225,0.29429707204708827
1667581573772002600,2.44900244140625,-9.058599343845248,-3.7451229326367375,0.29363141121258957
1667581573782024700,2.459024658203125,-9.062870445293187,-3.735260002531111,0.2873891923547722
1667581573792045600,2.469045654296875,-9.072211105090378,-3.7136192486092447,0.2727765287050977
1667581573802067500,2.4790673828125,-9.086668669509887,-3.6798438202574846,0.24816709770336745
1667581573812088600,2.489088623046875,-9.105144821920991,-3.6360666378512976,0.21386127053564413
1667581573822110500,2.4991103515625,-9.125639912939072,-3.5865304535269735,0.17284018190456554
1667581573832132600,2.509132568359375,-9.145695443496107,-3.5369402009278534,0.12918834291109815
1667581573842153500,2.519153564453125,-9.162948191592097,-3.493341297698021,0.08563796413126401
1667581573852175400,2.52917529296875,-9.175946204853057,-3.459850823767483,0.042717238724208434
1667581573862197500,2.539197509765625,-9.184638629874586,-3.436974682831764,0.002812266671200632
1667581573872218600,2.549218505859375,-9.190418382319807,-3.4213393068045375,-0.03213604538058862
1667581573882240500,2.559240478515625,-9.195192757114768,-3.408035004073381,-0.06416730151271913
1667581573892262400,2.569262451171875,-9.20031667599976,-3.393460243014991,-0.09479049921152181
1667581573902283500,2.579283447265625,-9.206199304297566,-3.376082407234609,-0.1354322605356574
1667581573912305700,2.5893056640625,-9.213698720142245,-3.353040262082219,-0.1877908088043332
1667581573922327600,2.59932763671875,-9.222430892652273,-3.325812355677783,-0.23689950669789686
1667581573932348400,2.609348388671875,-9.232198253428935,-3.295146583779156,-0.2808993919440545
1667581573942370300,2.619370361328125,-9.24323051957488,-3.259942583929002,-0.3253353122536093
1667581573952392700,2.629392822265625,-9.254413007846473,-3.2228055701896547,-0.3738303900271654
1667581573962413600,2.63941357421875,-9.263046396157145,-3.1911452342957256,-0.42772981106229124
1667581573972435500,2.649435546875,-9.266793181470035,-3.1734920887053013,-0.4752643732406199
1667581573982457300,2.659457275390625,-9.264499517574906,-3.1765275108784436,-0.49910713071879
1667581573992478700,2.669478759765625,-9.257603328320384,-3.1952336726531385,-0.5075925619261339
1667581574002500600,2.67950048828125,-9.248090819087624,-3.220572404310107,-0.5206835507001728
1667581574012522500,2.6895224609375,-9.237753549468517,-3.245167916384339,-0.5506184875736013
1667581574022543400,2.69954345703125,-9.227111743944883,-3.2659692968726155,-0.6035249885812402
1667581574032565500,2.7095654296875,-9.21426570637524,-3.28613150267452,-0.6848574832040816
1667581574042587400,2.71958740234375,-9.198402951332927,-3.3062071992367503,-0.7929447868268936
1667581574052608500,2.7296083984375,-9.18077201757431,-3.321733854192495,-0.921898937389627
1667581574062630400,2.73963037109375,-9.164332339426874,-3.325628523543477,-1.0609410589855164
1667581574072651500,2.749651611328125,-9.152778679755329,-3.3127731336235997,-1.1927137010350823
1667581574082673700,2.759673583984375,-9.149089177587628,-3.283178790348768,-1.2981870227672159
1667581574092695600,2.769695556640625,-9.156085320085287,-3.239086842904985,-1.358233641320467
1667581574102716400,2.77971630859375,-9.168003721415996,-3.1931676800340414,-1.386278563196212
1667581574112738600,2.789738525390625,-9.17801190521121,-3.1551193966686726,-1.4070216376259923
1667581574122760400,2.799760498046875,-9.182683404153584,-3.132700936372578,-1.4264986376427113
1667581574132781600,2.809781494140625,-9.18172245016694,-3.1290146490752697,-1.4407038347363472
1667581574142803500,2.819803466796875,-9.176385180792211,-3.141004362076521,-1.4485967799432575
1667581574152825600,2.82982568359375,-9.167366592556238,-3.1644460279405116,-1.4546660168543457
1667581574162846500,2.839846435546875,-9.1545883595258,-3.196780317573249,-1.4644076586678623
1667581574172868600,2.84986865234375,-9.138086137536167,-3.2369813950583337,-1.4790940634071825
1667581574182890500,2.859890380859375,-9.11922478519976,-3.2828400599136947,-1.4943521305546164
1667581574192911600,2.86991162109375,-9.100275170058012,-3.3296739995419977,-1.5062047731727362
1667581574202933500,2.87993359375,-9.083760088586807,-3.3725457575410602,-1.5105027626276015
1667581574212955400,2.889955322265625,-9.072332101121544,-3.406539797079563,-1.5028868807964026
1667581574222976500,2.8999765625,-9.068812110301852,-3.425875781190395,-1.4800021181628107
1667581574232998700,2.90999853515625,-9.074405984786152,-3.4267277218446135,-1.4432866908363997
1667581574243020500,2.9200205078125,-9.087285924625396,-3.411709600932896,-1.3970875419802964
1667581574253041400,2.93004150390625,-9.103563690209388,-3.388332232476771,-1.3471154504567384
1667581574263063600,2.9400634765625,-9.118792239001392,-3.366339596377313,-1.298373485250026
1667581574273085700,2.950085693359375,-9.12970584720373,-3.3536361821487546,-1.2537864477656782
1667581574283106600,2.9601064453125,-9.134785926946996,-3.355026467463374,-1.2123823511663823
1667581574293128400,2.97012841796875,-9.134613492989539,-3.370657167315483,-1.169569922139123
1667581574303150300,2.980150390625,-9.130479169663786,-3.3984891770929098,-1.1202692270711063
1667581574313171500,2.99017138671875,-9.123711575224995,-3.435104212784767,-1.0622276647299527
1667581574323193600,3.000193603515625,-9.115479753452538,-3.4757883976116775,-0.998655137072876
1667581574333214500,3.01021435546875,-9.106905986374617,-3.515894198028743,-0.9344150854177773
1667581574343236400,3.020236328125,-9.098681763386725,-3.5521304635360833,-0.8756384868003427
1667581574353258500,3.030258544921875,-9.091149029794336,-3.5825928218170997,-0.8285038837250321
1667581574363279600,3.040279541015625,-9.084539840787649,-3.604863982596993,-0.8040382085755466
1667581574373301500,3.050301513671875,-9.081438952162861,-3.615448797236383,-0.7914435884837061
1667581574383323400,3.060323486328125,-9.082622608989476,-3.6143092718124388,-0.7830182169005274
1667581574393344500,3.070344482421875,-9.087046270650625,-3.604448972055316,-0.777123240577802
1667581574403366700,3.08036669921875,-9.09432649078667,-3.588061316356063,-0.7677415911830962
1667581574413388500,3.090388427734375,-9.103855366632342,-3.5673750866800544,-0.7510238267466426
1667581574423409400,3.100409423828125,-9.114181530335545,-3.5461198249444363,-0.7260241908509284
1667581574433431300,3.110431396484375,-9.123500562822818,-3.528071542556584,-0.6962992799989879
1667581574443453400,3.120453369140625,-9.130182817065716,-3.516313592484593,-0.6675915103003383
1667581574453474600,3.130474609375,-9.133478936001659,-3.5127594071343538,-0.6406813646081835
1667581574463496400,3.140496337890625,-9.133197780972719,-3.5186759377017616,-0.6115527026163414
1667581574473518600,3.1505185546875,-9.129545688205956,-3.5339188072800636,-0.5772275679599493
1667581574483539500,3.16053955078125,-9.123567782840132,-3.55536345410794,-0.538782978753373
1667581574493561600,3.1705615234375,-9.116511434587835,-3.5789085803464054,-0.5010192844830453
1667581574503583500,3.18058349609375,-9.109364485442638,-3.601526070345938,-0.46783652479480947
1667581574513604400,3.190604248046875,-9.103031190767883,-3.621157530272007,-0.43865704593118277
1667581574523626500,3.20062646484375,-9.097547790920734,-3.638259179459512,-0.409971743792668
1667581574533648400,3.2106484375,-9.092918962076306,-3.6532173868775364,-0.3784419754758477
1667581574543669500,3.22066943359375,-9.089334089326858,-3.66568757687211,-0.3422344976715743
1667581574553691400,3.23069140625,-9.087034580212832,-3.6747549726858733,-0.3039221017436124
1667581574563712500,3.24071240234375,-9.086147860506177,-3.6797786460667847,-0.2674532513231039
1667581574573734400,3.250734375,-9.085961398023366,-3.6823195627212524,-0.23709813454253598
1667581574583756500,3.260756591796875,-9.085414870056509,-3.685089611956477,-0.2138544024034403
1667581574593777400,3.27077734375,-9.083332218563557,-3.6911782842203973,-0.19662406706865876
1667581574603799600,3.280799560546875,-9.078838414275646,-3.7028564470544456,-0.18419104901300742
1667581574613821400,3.290821533203125,-9.071620153459905,-3.720973995286226,-0.17448230482209473
1667581574623842600,3.300842529296875,-9.062631375840306,-3.7432287894532084,-0.16534058339679614
1667581574633864400,3.310864501953125,-9.053208298456669,-3.7664173573389648,-0.15461979435281828
1667581574643886600,3.320886474609375,-9.04468187765181,-3.7874049080491066,-0.1402737640163861
1667581574653907500,3.330907470703125,-9.037504533368349,-3.805173788973689,-0.12064544589547439
1667581574663929300,3.340929443359375,-9.031490387645363,-3.820122059519589,-0.0960902749647852
1667581574673951500,3.350951416015625,-9.026265930995345,-3.8330578211992976,-0.06766592075082008
1667581574683972600,3.36097265625,-9.022149727848172,-3.8431402392745015,-0.038403814238193446
1667581574693994500,3.370994384765625,-9.019640375375747,-3.84919500926882,-0.013021024243789724
1667581574704016400,3.381016357421875,-9.018864714828133,-3.8510301157414912,0.005644125100504606
1667581574714037500,3.39103759765625,-9.019473202115297,-3.8495702723219987,0.01721698494615266
1667581574724059600,3.4010595703125,-9.020670887467265,-3.846733295330405,0.022969545707060023
1667581574734081500,3.41108154296875,-9.021281128320098,-3.8452904030457136,0.0247099938829313
1667581574744102400,3.421102294921875,-9.02011851428151,-3.8480207047924395,0.02403077944711549
1667581574754124300,3.431124267578125,-9.016510260656476,-3.856483997233212,0.02132771505047567
1667581574764146700,3.441146728515625,-9.010058308038115,-3.871561739377677,0.01554992052525631
1667581574774167600,3.45116748046875,-9.001183512187003,-3.8921749038174744,0.0070406820381729626
1667581574784189400,3.461189453125,-8.990769670200347,-3.916174788086116,-0.004042264838471601
1667581574794210600,3.47121044921875,-8.980008037689327,-3.940753349025547,-0.0174964914406999
1667581574804232400,3.481232421875,-8.96983794133067,-3.963754577645659,-0.03217149115330539
1667581574814254600,3.491254638671875,-8.960583206251263,-3.9844755863741037,-0.0477753851968795
1667581574824275500,3.501275390625,-8.951248391672967,-4.005177598141134,-0.06396756398980505
1667581574834297300,3.51129736328125,-8.940646918159723,-4.028501775105298,-0.07993200757461599
1667581574844319500,3.521319580078125,-8.92839884648323,-4.055210333810747,-0.09668288882938213
1667581574854340600,3.531340576171875,-8.91426218458116,-4.085713608624041,-0.11514986242018639
1667581574864362500,3.541362548828125,-8.898395337885617,-4.119535214205086,-0.13557253665602764
1667581574874384400,3.55138427734375,-8.88156870624721,-4.154886513571441,-0.15824158331286162
1667581574884405200,3.5614052734375,-8.864566133520007,-4.1900589492395515,-0.18237090264745057
1667581574894427600,3.571427734375,-8.848118272066117,-4.223592093268037,-0.20603680572137234
1667581574904449500,3.581449462890625,-8.832772818896174,-4.254475891831517,-0.22790917644202707
1667581574914470400,3.591470458984375,-8.81903655448854,-4.2818002443477505,-0.24732481992663813
1667581574924492300,3.6014921875,-8.8061846717,-4.30706357268095,-0.26588989273020996
1667581574934514400,3.611514404296875,-8.793190750092268,-4.332280723784864,-0.2855207133354619
1667581574944535600,3.62153564453125,-8.77981455116868,-4.357712686683238,-0.3091591073479503
1667581574954557400,3.631557373046875,-8.765643402475119,-4.383932877349853,-0.3391282022193074
1667581574964579600,3.64157958984375,-8.7504382345587,-4.411275350044668,-0.3753230397377163
1667581574974600400,3.651600341796875,-8.734357452851533,-4.439615601605177,-0.4137617471927777
1667581574984622600,3.66162255859375,-8.718759486225247,-4.466872149582207,-0.447966726068221
1667581574994644500,3.67164453125,-8.705508959507942,-4.489994958755374,-0.4737524708403274
1667581575004665300,3.681665283203125,-8.695812325879931,-4.506961291125417,-0.4904440048569813
1667581575014687500,3.6916875,-8.689526377478241,-4.518204861934483,-0.49833618287891146
1667581575024709400,3.70170947265625,-8.68546395034492,-4.525946854363381,-0.49890163474194704
1667581575034730500,3.71173046875,-8.681852774110435,-4.533311245651543,-0.49488162197824564
1667581575044752400,3.72175244140625,-8.677357216256857,-4.542630278138816,-0.4882310049826279
1667581575054773500,3.7317734375,-8.67102918227911,-4.5554260468259455,-0.48138110255524513
1667581575064795400,3.74179541015625,-8.662218683835864,-4.572714450757205,-0.4760589211517945
1667581575074817500,3.751817626953125,-8.650822260552644,-4.5945413749009365,-0.4731204200144857
1667581575084838400,3.76183837890625,-8.637005916646123,-4.6203702281624075,-0.4740204010615125
1667581575094860500,3.771860595703125,-8.620752700981496,-4.649931545950472,-0.48076954652816056
1667581575104882400,3.78188232421875,-8.602051507642864,-4.68287286156565,-0.4957811646338552
1667581575114903600,3.791903564453125,-8.58072288841009,-4.719407525497675,-0.5184364293605089
1667581575124925400,3.801925537109375,-8.556826464515924,-4.759584345324337,-0.5454011547841131
1667581575134947600,3.811947509765625,-8.531267075845598,-4.802289222323894,-0.5708638416143134
1667581575144968400,3.821968505859375,-8.505602473235129,-4.845468731097877,-0.5886774384634569
1667581575154990300,3.831990234375,-8.480582013747096,-4.88809674346894,-0.5971763136742636
1667581575165012500,3.842012451171875,-8.454865388688445,-4.93243711271584,-0.5972405745495111
1667581575175033600,3.85203369140625,-8.426766836929321,-4.980886963108182,-0.592244044903852
1667581575185055500,3.862055419921875,-8.395545769235492,-5.034224001020193,-0.58462918598596
1667581575195077400,3.872077392578125,-8.361762742099165,-5.0909045041412115,-0.5779292499559
1667581575205098500,3.882098388671875,-8.328060963505505,-5.146066419392824,-0.5760025196770205
1667581575215120600,3.89212060546875,-8.295605970102548,-5.19777147218883,-0.5800653121365233
1667581575225142500,3.902142578125,-8.26391436228752,-5.244543160235882,-0.6106324459662661
1667581575235163400,3.912163330078125,-8.232429675221443,-5.284496400439739,-0.6867146553780883
1667581575245185300,3.922185302734375,-8.196914709725975,-5.322125581610202,-0.8099060046304016
1667581575255206400,3.932206298828125,-8.152596260049938,-5.364899139931798,-0.9609428807288408
1667581575265228500,3.942228515625,-8.099965324580669,-5.414889790025353,-1.1135160264838486
1667581575275250400,3.95225048828125,-8.043183114650844,-5.470718060231208,-1.2445207529008389
1667581575285271300,3.962271240234375,-7.98866066634655,-5.528588649919628,-1.3365603003032505
1667581575295293700,3.972293701171875,-7.94319187759161,-5.580858935382962,-1.389282275056839
1667581575305315600,3.982315673828125,-7.907623720604181,-5.624518628889322,-1.4158585856847463
1667581575315336400,3.99233642578125,-7.8794713928312055,-5.661469764667749,-1.4255106495186685
1667581575325358300,4.0023583984375,-7.855180416661501,-5.693791487079858,-1.430827899018675
1667581575335380500,4.01238037109375,-7.830484366822242,-5.723907223880291,-1.4459519645228982
1667581575345401600,4.022401611328125,-7.797282938966155,-5.759527987837791,-1.4834411527007818
1667581575355423500,4.032423583984375,-7.748813799351454,-5.808901382815837,-1.5436752566501497
1667581575365445400,4.0424453125,-7.6836337634325025,-5.873382915076613,-1.6234310765407978
1667581575375466200,4.05246630859375,-7.605358683618903,-5.948540739652514,-1.7157416959695517
1667581575385488400,4.06248828125,-7.526589098286628,-6.024997371867299,-1.79450426703915
1667581575395510500,4.072510498046875,-7.460808758386969,-6.09187310578823,-1.8427660475134848
1667581575405531400,4.082531494140625,-7.407118669253587,-6.147502638551592,-1.8743496649093925
1667581575415553500,4.092553466796875,-7.370120187202096,-6.185170398166775,-1.8961499933071433
1667581575425575400,4.102575439453125,-7.3489189937412736,-6.205113115999103,-1.9132044423520564
1667581575435596500,4.112596435546875,-7.338982121616602,-6.21254005112946,-1.9271948276512323
1667581575445618400,4.122618408203125,-7.335799984449148,-6.213965115496515,-1.9346987735405563
1667581575455640600,4.132640625,-7.3340212843388315,-6.216949099743366,-1.9318527364596723
1667581575465661400,4.142661376953125,-7.328619133034348,-6.226274561971426,-1.9222978493899106
1667581575475683300,4.152683349609375,-7.314229957675933,-6.244672972971201,-1.9174163609586654
1667581575485704400,4.162704345703125,-7.288343821269273,-6.274291281643509,-1.9192951604425905
1667581575495726300,4.172726318359375,-7.250449267160892,-6.317018662735819,-1.922666682702303
1667581575505748500,4.18274853515625,-7.202637714672088,-6.37259500400722,-1.918963298139721
1667581575515769600,4.19276953125,-7.1510671019107095,-6.435198467436432,-1.9028516829028725
1667581575525791500,4.20279150390625,-7.101815287485718,-6.496093957903981,-1.8802559663437306
1667581575535813600,4.212813720703125,-7.06117231145203,-6.548082503816485,-1.8527933744005858
1667581575545834500,4.22283447265625,-7.029716850480437,-6.589510492748022,-1.8253261062823234
1667581575555856400,4.2328564453125,-7.005781263619661,-6.6230947824418545,-1.7955583061367273
1667581575565878300,4.242878173828125,-6.992645887714624,-6.648728989914059,-1.751481264001131
1667581575575899400,4.2528994140625,-6.990254024142026,-6.665988167750835,-1.6945039698906241
1667581575585921500,4.262921630859375,-6.9920543515622615,-6.677164226281643,-1.6422671483054756
1667581575595943400,4.272943359375,-6.99192634126842,-6.685138858422636,-1.6100523933991788
1667581575605964500,4.282964599609375,-6.9866972084432835,-6.692355365672707,-1.60275814473778
1667581575615986400,4.292986328125,-6.974669501519203,-6.701439420360327,-1.6171199936978518
1667581575626008600,4.303008544921875,-6.957892554241418,-6.71249097572863,-1.6433460295833646
1667581575636029400,4.313029541015625,-6.939994493979215,-6.72439184140265,-1.6701546876624225
1667581575646051300,4.32305126953125,-6.924773543971776,-6.734600516206026,-1.6920568689994513
1667581575656073500,4.333073486328125,-6.9162588136047125,-6.740473792153597,-1.7034548997178673
1667581575666094600,4.343094482421875,-6.91635642876029,-6.7398004229366775,-1.7057226985193787
1667581575676116500,4.353116455078125,-6.922236134448647,-6.733173113751411,-1.7080436888128518
1667581575686137300,4.363137451171875,-6.928676396629214,-6.723565911972522,-1.7197376337379215
1667581575696159500,4.373159423828125,-6.928819019970297,-6.717355366894602,-1.7432677085377275
1667581575706181600,4.383181640625,-6.920218364885449,-6.716940940874815,-1.778672930048406
1667581575716202500,4.393202392578125,-6.909413477754592,-6.717308605143428,-1.8188310451745986
1667581575726224400,4.403224365234375,-6.90014997484684,-6.714344494640827,-1.8643739220790565
1667581575736246300,4.413246337890625,-6.888398162254691,-6.712983727681636,-1.9121224923342466
1667581575746267600,4.423267578125,-6.868273073592782,-6.720677204793692,-1.9569664271891116
1667581575756289500,4.43328955078125,-6.834839006024598,-6.741893011301755,-2.0005589006781577
1667581575766312200,4.443312255859375,-6.792496240335702,-6.773652423655986,-2.0371578620180486
1667581575776333300,4.453333251953125,-6.749053988972306,-6.808724321559071,-2.064446266438067
1667581575786355200,4.463355224609375,-6.705269207781553,-6.841928672024607,-2.0970840690620243
1667581575796377000,4.473377197265625,-6.663558894777298,-6.869685278478264,-2.1388753383480013
1667581575806398200,4.483398193359375,-6.618070816799998,-6.89522654697001,-2.197127036308497
1667581575816420400,4.49342041015625,-6.552221503317356,-6.930200829717516,-2.2827840430669486
1667581575826442200,4.503442138671875,-6.463074316355586,-6.978033424994349,-2.388745148316026
1667581575836463000,4.513463134765625,-6.362366455459594,-7.030847315815091,-2.5015721938118336
1667581575846485200,4.5234853515625,-6.27468232678771,-7.070357488426565,-2.6093665058374405
1667581575856507400,4.53350732421875,-6.2188523030161855,-7.084536235904693,-2.702889131404459
1667581575866528300,4.5435283203125,-6.1920899682968855,-7.0775114518344395,-2.7815885741099713
1667581575876550100,4.553550048828125,-6.176335934326052,-7.066907055711746,-2.8429025822505354
1667581575886571300,4.5635712890625,-6.147972009629011,-7.069476613938808,-2.897468285174668
1667581575896593400,4.573593505859375,-6.089806820908189,-7.096635839021205,-2.9533702051386235
1667581575906615300,4.583615234375,-6.002304478543996,-7.147419685319066,-3.0095044725537297
1667581575916636200,4.59363623046875,-5.906950838157535,-7.20589759325087,-3.0583234485194084
1667581575926658000,4.603657958984375,-5.830458550107479,-7.255146485066414,-3.0885233564719554
1667581575936680200,4.61368017578125,-5.79147736980617,-7.284151045754552,-3.093594083864987
1667581575946701300,4.623701416015625,-5.793901382082701,-7.29150199303925,-3.0716578541278836
1667581575956723200,4.63372314453125,-5.826821654909849,-7.285531101936101,-3.023172932422161
1667581575966745000,4.6437451171875,-5.8726908411592245,-7.2790078376472,-2.949225944940746
1667581575976766200,4.65376611328125,-5.912469893839955,-7.282864513075351,-2.8588389870509503
1667581575986788400,4.663788330078125,-5.932395076015592,-7.303910223713517,-2.762241484083235
1667581575996810200,4.673810302734375,-5.927095800563693,-7.34471043613553,-2.663670342954993
1667581576006831000,4.6838310546875,-5.897901854783297,-7.403631996181606,-2.563468970276415
1667581576016853200,4.693853271484375,-5.848349596107005,-7.4766498861193655,-2.4631062695562838
1667581576026875100,4.703875244140625,-5.782982513183355,-7.557733593612909,-2.3681534650556744
1667581576036896300,4.713896240234375,-5.710441593107581,-7.637762823617458,-2.286004904809594
1667581576046918100,4.723918212890625,-5.63981498222053,-7.709741433635354,-2.2187276043504474
1667581576056940300,4.733940185546875,-5.576382666751742,-7.771911766344308,-2.161419470850378
1667581576066961400,4.74396142578125,-5.520777683907747,-7.825567368686198,-2.1099496881149706
1667581576076983300,4.7539833984375,-5.468970339781046,-7.874118341365456,-2.063735487820208
1667581576087005200,4.764005126953125,-5.415580110377073,-7.921229052108526,-2.0238570664182305
1667581576097026000,4.774026123046875,-5.3569905587643385,-7.969291364488005,-1.9908393245659768
1667581576107048200,4.784048095703125,-5.293285271573066,-8.01846134584844,-1.9636162404671311
1667581576117069300,4.7940693359375,-5.226704721206426,-8.066687908878922,-1.9443471841126678
1667581576127091200,4.80409130859375,-5.159900298956036,-8.111419615530966,-1.936670365874469
1667581576137113300,4.81411328125,-5.0966936089366675,-8.150701824605465,-1.9391141057647763
1667581576147134200,4.82413427734375,-5.043168354976177,-8.182710243284701,-1.9442434314772485
1667581576157156400,4.83415625,-5.003557644599676,-8.206673887196184,-1.945584763083607
1667581576167178200,4.84417822265625,-4.978207514765859,-8.222695047670602,-1.9429694660186767
1667581576177199000,4.85419921875,-4.964035197028517,-8.232277699530124,-1.9386426888607442
1667581576187221200,4.86422119140625,-4.955374336189031,-8.238375431883334,-1.9348967803306876
1667581576197243100,4.8742431640625,-4.947521284601092,-8.242783311453461,-1.9362207224108277
1667581576207264300,4.88426416015625,-4.9402036550641055,-8.245205570164323,-1.9445723711706697
1667581576217286100,4.8942861328125,-4.935937814313173,-8.243918452963232,-1.9607921229571104
1667581576227308300,4.904308349609375,-4.93598048441112,-8.238332177263498,-1.9840252606369553
1667581576237329200,4.9143291015625,-4.937842186629772,-8.230836853072047,-2.0103283072814344
1667581576247351300,4.924351318359375,-4.936512399330735,-8.225289740338921,-2.0361315877102313
1667581576257373400,4.93437353515625,-4.929011814442276,-8.22404178610444,-2.0592149416558443
1667581576267394300,4.944394287109375,-4.915547937235236,-8.227091236802934,-2.0791221497833727
1667581576277416200,4.954416259765625,-4.8961967555552715,-8.234435169824957,-2.0956445377781985
1667581576287438000,4.96443798828125,-4.870262396092713,-8.246342465239763,-2.1092099756635725
1667581576297459200,4.974459228515625,-4.838102586244046,-8.261980763876437,-2.1219849938236175
1667581576307481300,4.9844814453125,-4.801648294071853,-8.279350416350365,-2.1370336560040712
1667581576317502200,4.994502197265625,-4.762772619971632,-8.296634728628396,-2.1568995092079044
1667581576327524000,5.004524169921875,-4.720682952260971,-8.31401081084311,-2.182377357074618
1667581576337546000,5.0145458984375,-4.67422690603435,-8.332795590811967,-2.2105447362862525
1667581576347567400,5.0245673828125,-4.626369468577206,-8.351763326132296,-2.2394494898617268
1667581576357589200,5.03458935546875,-4.582223745119571,-8.369029518231748,-2.265601145336777
1667581576367611100,5.044611083984375,-4.551070774225891,-8.381851005882025,-2.28094484494105
1667581576377632300,5.05463232421875,-4.540286929883062,-8.388649579980969,-2.2774391749076544
1667581576387654400,5.064654296875,-4.548986953689158,-8.390824001410603,-2.251926547988504
1667581576397676300,5.07467626953125,-4.57374057893455,-8.389000293114782,-2.208158717932552
1667581576407697200,5.084697265625,-4.601143841905891,-8.386804244375229,-2.15902395401597
1667581576417719000,5.094718994140625,-4.62997947576791,-8.387121639761329,-2.095201762446761
1667581576427741200,5.1047412109375,-4.65697591150403,-8.389345161029697,-2.02530288131237
1667581576437762300,5.11476220703125,-4.677983628219366,-8.393363749021292,-1.9591575074926018
1667581576447784200,5.1247841796875,-4.693540678313374,-8.397141513994336,-1.9050142677642403
1667581576457806000,5.13480615234375,-4.703554707327485,-8.398968144899607,-1.871979282516241
1667581576467827200,5.1448271484375,-4.71023023956865,-8.398274901938438,-1.858250616893172
1667581576477849300,5.154849365234375,-4.714462178049981,-8.396823534086346,-1.8540763999484478
1667581576487870200,5.1648701171875,-4.715699026368558,-8.397007073959708,-1.8500901067912578
1667581576497892000,5.17489208984375,-4.721230941532552,-8.396565759932994,-1.8379465184025465
1667581576507914200,5.184914306640625,-4.734248828537762,-8.393204759067297,-1.8197212720125913
1667581576517935400,5.194935302734375,-4.761333234818279,-8.385326573038101,-1.7850481641687452
1667581576527957200,5.204957275390625,-4.8073675485014915,-8.370432370766997,-1.7307387740932405
1667581576537979100,5.214979248046875,-4.874003920708597,-8.346027412828803,-1.660813004951924
1667581576548000000,5.225,-4.9563341211318965,-8.313010109367966,-1.5808265911757946
1667581576558022100,5.235022216796875,-5.045353882321715,-8.274946043911577,-1.4966789660669861
1667581576568044300,5.245044189453125,-5.12643466720581,-8.239472579470277,-1.414620860583335
1667581576578065200,5.255065185546875,-5.190145215094089,-8.21186151896715,-1.340936323430389
1667581576588087300,5.26508740234375,-5.234178418087959,-8.193712698814272,-1.2793931827090679
1667581576598109200,5.275109130859375,-5.261516506868601,-8.18327489143014,-1.233227497731149
1667581576608130300,5.28513037109375,-5.276542226564884,-8.178889808213711,-1.1976048340775072
1667581576618152200,5.295152099609375,-5.288022236478328,-8.176500867250562,-1.1627693752788006
1667581576628174300,5.30517431640625,-5.302990673029423,-8.171627708256244,-1.1283495115436613
1667581576638195200,5.3151953125,-5.3246723434835666,-8.162072528925538,-1.0949098910175263
1667581576648217000,5.325217041015625,-5.35383414056003,-8.147621394246816,-1.059766389182955
1667581576658239200,5.3352392578125,-5.391064677801728,-8.127875075769424,-1.0219874973434955
1667581576668260000,5.345260009765625,-5.433730099573731,-8.104152839398383,-0.9837025556780398
1667581576678282200,5.3552822265625,-5.474411069530248,-8.080747413891553,-0.9501257917035371
1667581576688303400,5.365303466796875,-5.505668377581238,-8.06173174777627,-0.9308530820872634
1667581576698325200,5.3753251953125,-5.524599288022518,-8.048536750638485,-0.9328636181920766
1667581576708347400,5.385347412109375,-5.531413644212484,-8.04123198058307,-0.9552164659060537
1667581576718368300,5.3953681640625,-5.528469407454133,-8.038897984677552,-0.9912293709862977
1667581576728390100,5.40539013671875,-5.521662650048732,-8.037682179147005,-1.0379240482743828
1667581576738412000,5.415412109375,-5.514067372614145,-8.035649796536564,-1.092605486532673
1667581576748433200,5.42543310546875,-5.506003893145919,-8.032738293004035,-1.1530021606326102
1667581576758455300,5.435455322265625,-5.499643125942349,-8.027908973151446,-1.2153177470311523
1667581576768477000,5.445476806640625,-5.497302700296044,-8.020296744582057,-1.2747086781546473
1667581576778498000,5.455498046875,-5.499309363943338,-8.009768920826911,-1.331005296524614
1667581576788520000,5.46552001953125,-5.502707189688087,-7.998087250861525,-1.3860755879700184
1667581576798541800,5.475541748046875,-5.504797439965605,-7.987289962515234,-1.4390249417386949
1667581576808563000,5.48556298828125,-5.506276280346513,-7.978075559446215,-1.4837820750929414
1667581576818584800,5.495584716796875,-5.510360334789753,-7.969444509223103,-1.514682240269333
1667581576828606700,5.505606689453125,-5.520508219316602,-7.959433402818441,-1.5302902898982167
1667581576838627800,5.5156279296875,-5.539297675460577,-7.945694800323247,-1.533786315320432
1667581576848650000,5.52564990234375,-5.566406047138571,-7.927288206017017,-1.5308860638342796
1667581576858670800,5.5356708984375,-5.5993081997871395,-7.905139502573013,-1.525416254121065
1667581576868693000,5.54569287109375,-5.6351002286583185,-7.881290424951911,-1.5170026460409163
1667581576878715000,5.55571484375,-5.6714118974894285,-7.85805334174931,-1.5021576897390185
1667581576888735700,5.56573583984375,-5.707134368255734,-7.836592620569467,-1.478793034633994
1667581576898758000,5.5757578125,-5.740914472782611,-7.8175687711477275,-1.4484211311154067
1667581576908779800,5.58577978515625,-5.770606431213021,-7.801328999486565,-1.4176555521041154
1667581576918801000,5.59580078125,-5.7939791234940285,-7.787569354203343,-1.3978371913038192
1667581576928823000,5.605822998046875,-5.809514546278119,-7.77591866389811,-1.3982155230969189
1667581576938845000,5.615844970703125,-5.816606550365686,-7.766842207995056,-1.4190283017620444
1667581576948865800,5.62586572265625,-5.816950249236822,-7.760977115353941,-1.4493845693200826
1667581576958888000,5.635887939453125,-5.810011389884353,-7.760862549063563,-1.4775572092287241
1667581576968910000,5.64591015625,-5.79449934797585,-7.768932458272576,-1.4959410071812569
1667581576978931000,5.655930908203125,-5.7727434432417155,-7.784113076269626,-1.5011341919101773
1667581576988952800,5.665952880859375,-5.74869387461245,-7.802778613772988,-1.4965090163275598
1667581576998974700,5.675974609375,-5.724445568540692,-7.821914691397548,-1.4895511600136757
1667581577008995800,5.685995849609375,-5.699699249818921,-7.841084086769818,-1.4836518728420138
1667581577019018000,5.69601806640625,-5.673787394449114,-7.860562694221734,-1.4798891593076289
1667581577029039900,5.706039794921875,-5.649770559045672,-7.8787594451695675,-1.4750044560059905
1667581577039060700,5.716060791015625,-5.631174579647183,-7.893902653765678,-1.4651101078487931
1667581577049083000,5.726082763671875,-5.619073222965001,-7.905884767982363,-1.4468565121471881
1667581577059104000,5.73610400390625,-5.611752086296677,-7.916043758425116,-1.419466254787892
1667581577069126000,5.7461259765625,-5.60803511160016,-7.924644413509965,-1.3857665220208466
1667581577079147800,5.756147705078125,-5.607536514428258,-7.930549253639579,-1.3536312620915472
1667581577089169000,5.7661689453125,-5.610271492350101,-7.932539550673961,-1.330431003767997
1667581577099191000,5.77619091796875,-5.615632727122306,-7.930634009313583,-1.319126496551931
1667581577109213000,5.786212890625,-5.62062512858212,-7.926904759657383,-1.3202797582402825
1667581577119233800,5.79623388671875,-5.620998638069629,-7.9244258023232215,-1.3335101189523935
1667581577129255700,5.806255615234375,-5.613889682847261,-7.925404876488447,-1.357419256197661
1667581577139277800,5.81627783203125,-5.599278389170766,-7.930286218789219,-1.3888906453907488
1667581577149299000,5.826298828125,-5.581302002975344,-7.936658091908693,-1.424393482057005
1667581577159320800,5.83632080078125,-5.565611681890488,-7.941070063132047,-1.460740806723386
1667581577169343000,5.846343017578125,-5.556006818199157,-7.941708361035585,-1.4934646801955997
1667581577179363800,5.85636376953125,-5.5528638439983125,-7.938815562203526,-1.5202958423674107
1667581577189386000,5.866385986328125,-5.5546197477549315,-7.933430362033843,-1.541841611482203
1667581577199407900,5.876407958984375,-5.560131789174676,-7.9259402985394,-1.56038498391062
1667581577209428700,5.8864287109375,-5.5685676090866325,-7.916686732503772,-1.5771829739764331
1667581577219451000,5.896450927734375,-5.576883017489314,-7.90736536192894,-1.5944658249497412
1667581577229472000,5.906471923828125,-5.581960759145021,-7.90003487291038,-1.612929702401161
1667581577239494000,5.916493896484375,-5.5818239810228345,-7.895766694071888,-1.6341617293916642
1667581577249515800,5.926515869140625,-5.575563167062401,-7.894963560995459,-1.6592238360643385
1667581577259537000,5.936536865234375,-5.565406514707207,-7.896692576745152,-1.6848985216774046
1667581577269558800,5.946558837890625,-5.555363259598613,-7.898741325968503,-1.7082757440030574
1667581577279581000,5.956580810546875,-5.547950352993607,-7.899815092679858,-1.7272997395552694
1667581577289601800,5.966601806640625,-5.543983787450194,-7.8996993573457,-1.7405099342621861
1667581577299624000,5.9766240234375,-5.543628398141265,-7.898106535196304,-1.7488536919765174
1667581577309645800,5.986645751953125,-5.546037212848663,-7.895033119100332,-1.7550792884930968
1667581577319667000,5.9966669921875,-5.550308898818493,-7.891021545371413,-1.7596086024858058
1667581577329688800,6.006688720703125,-5.556311938625574,-7.88621502187252,-1.7622132320262491
1667581577339711000,6.0167109375,-5.56547607281208,-7.879718061068654,-1.762358777976781
1667581577349731800,6.02673193359375,-5.5787295221388336,-7.870935619676112,-1.7596962807692587
1667581577359753700,6.036753662109375,-5.595324683108926,-7.8601611276835195,-1.7551592218615113
1667581577369775900,6.04677587890625,-5.6138201247423885,-7.848135758846998,-1.7499062697693704
1667581577379797000,6.056796875,-5.632775585103035,-7.835484367066622,-1.7456848526820539
1667581577389819000,6.06681884765625,-5.651538737761974,-7.82252551677227,-1.7431532883778214
1667581577399840000,6.076840087890625,-5.669451995593309,-7.8095958925724025,-1.742962149719894
1667581577409862000,6.08686181640625,-5.685792305019498,-7.797467647883296,-1.744030363473296
1667581577419884000,6.096884033203125,-5.6993713330388065,-7.787352496582269,-1.744905100481212
1667581577429905000,6.10690478515625,-5.710377295699716,-7.779155746123195,-1.7454808545425533
1667581577439926800,6.1169267578125,-5.720556744408607,-7.77146168448925,-1.746424126742035
1667581577449948700,6.12694873046875,-5.7319531676918265,-7.762742371460795,-1.7478344319313763
1667581577459970000,6.136969970703125,-5.746708253753185,-7.7514704513400785,-1.7494114719897507
1667581577469992000,6.146991943359375,-5.766439959183335,-7.736253592985868,-1.751836214918643
1667581577480013800,6.157013916015625,-5.791970706281066,-7.716370496386289,-1.7553031603768467
1667581577490035000,6.167034912109375,-5.821749173951148,-7.693361961242556,-1.7577863554947077
1667581577500057000,6.17705712890625,-5.854112397417426,-7.668875170239806,-1.7572994487605988
1667581577510079000,6.187078857421875,-5.885274428400397,-7.645622304946183,-1.7545327605262397
1667581577520099800,6.197099853515625,-5.9099079343974585,-7.627143229925632,-1.7521585787408054
1667581577530121700,6.207121826171875,-5.923901388436556,-7.616151295790075,-1.7527146051883697
1667581577540142800,6.217142822265625,-5.927253036952019,-7.612425553265213,-1.7575658446118234
1667581577550165000,6.2271650390625,-5.922946279668808,-7.614027727764844,-1.7651307269081473
1667581577560187000,6.237186767578125,-5.91387742255032,-7.619255107024312,-1.7729592285767197
1667581577570207700,6.247207763671875,-5.901314293575287,-7.627560578554868,-1.779099923288822
1667581577580230000,6.25722998046875,-5.884081419223547,-7.639905096343159,-1.7832060434333978
1667581577590252000,6.267251953125,-5.860562596470118,-7.65711751242876,-1.7868216035820543
1667581577600273000,6.27727294921875,-5.829904423356056,-7.679623943269252,-1.7905208964914083
1667581577610294800,6.287294677734375,-5.79242897144258,-7.707132127919793,-1.7939545242018997
1667581577620317000,6.29731689453125,-5.750196680390834,-7.738217002013325,-1.7960009353376925
1667581577630337000,6.3073369140625,-5.705880568802356,-7.770879500687122,-1.796316577158123
1667581577640359000,6.31735888671875,-5.6604275621384375,-7.803947073030471,-1.796760813794285
1667581577650379800,6.3273798828125,-5.614138689172267,-7.836998863282799,-1.7981357554093003
1667581577660402000,6.33740185546875,-5.567231976568698,-7.869556732538342,-1.8017703125193714
1667581577670422800,6.3474228515625,-5.5197915954798455,-7.901879623994231,-1.8062625093720852
1667581577680445000,6.35744482421875,-5.4730327669143675,-7.933987411394715,-1.8078024322904644
1667581577690466800,6.367466796875,-5.430830871000886,-7.964101979151367,-1.8026487027890978
1667581577700488000,6.377488037109375,-5.398650602886081,-7.9895117302179335,-1.7868046524472534
1667581577710509800,6.387509765625,-5.378115179857612,-8.009239343994855,-1.7602135826416312
1667581577720532000,6.397531982421875,-5.365926144891977,-8.02482152853012,-1.7261147675544022
1667581577730552800,6.407552734375,-5.358011718505621,-8.037890268939734,-1.6895009009063242
1667581577740574700,6.41757470703125,-5.351394930714369,-8.049080940517783,-1.6568813645914195
1667581577750596900,6.427596923828125,-5.343305732282996,-8.059388984042405,-1.6327010091893375
1667581577760618000,6.437617919921875,-5.331248214742541,-8.070119636893272,-1.6190611908935009
1667581577770639600,6.4476396484375,-5.315684734907746,-8.081675050130485,-1.612580304441601
1667581577780661800,6.457661865234375,-5.30112955533266,-8.091921134334802,-1.6091097057215868
1667581577790683000,6.467682861328125,-5.295601731821894,-8.096651669988036,-1.6034997568853198
1667581577800704800,6.477704833984375,-5.3035500604778525,-8.093428031766415,-1.5934733067810534
1667581577810725600,6.4877255859375,-5.324394695585966,-8.082623144635559,-1.5787360486373305
1667581577820747800,6.497747802734375,-5.35424564397037,-8.066478650042415,-1.560249082571268
1667581577830769700,6.507769775390625,-5.3860272681564085,-8.049112504699826,-1.5404111402876675
1667581577840790800,6.517790771484375,-5.4114627381861204,-8.03545281265974,-1.5224821003653108
1667581577850812700,6.527812744140625,-5.4263680463731285,-8.027882085144519,-1.5093154525391757
1667581577860834800,6.537834716796875,-5.430827948391437,-8.026293939170241,-1.5016972326204179
1667581577870856000,6.54785595703125,-5.428270665124058,-8.028560715058445,-1.4988240152716636
1667581577880877800,6.5578779296875,-5.421952568018436,-8.032894360348582,-1.4984741789206861
1667581577890899700,6.567899658203125,-5.412598464217782,-8.038966958260536,-1.4997240328513084
1667581577900920800,6.5779208984375,-5.400230565553903,-8.04658678561449,-1.5034394001126288
1667581577910942700,6.587942626953125,-5.386075198951363,-8.054759570676088,-1.5104397803939877
1667581577920964600,6.597964599609375,-5.371555675211549,-8.062581642603874,-1.5203760679967702
1667581577930985700,6.60798583984375,-5.358436665919423,-8.068906169450283,-1.5330670611351727
1667581577941008000,6.6180078125,-5.347321982187032,-8.073301189538835,-1.5486556754112242
1667581577951029800,6.62802978515625,-5.3372296272397035,-8.076852744540572,-1.5648681206740438
1667581577961050600,6.638050537109375,-5.325843140828609,-8.081307385861873,-1.580586644940078
1667581577971072800,6.64807275390625,-5.3102101028889415,-8.088169088324904,-1.5979926839016376
1667581577981093600,6.65809375,-5.292145453888177,-8.096914704838394,-1.613555286953598
1667581577991115800,6.66811572265625,-5.277223194566369,-8.104713980412482,-1.6232375997953117
1667581578001137700,6.6781376953125,-5.269471265265345,-8.109743791273235,-1.6233078885525465
1667581578011158800,6.68815869140625,-5.270193149799108,-8.111587373313307,-1.611706298086047
1667581578021181000,6.698180908203125,-5.277545850649476,-8.110978886026144,-1.5905683791197835
1667581578031202800,6.708202880859375,-5.287943910545111,-8.109524595564602,-1.5632174308575688
1667581578041223700,6.7182236328125,-5.298841152134537,-8.108400559970736,-1.5318337199479342
1667581578051245600,6.72824560546875,-5.310462031823397,-8.107063173887132,-1.498302183354646
1667581578061268000,6.73826806640625,-5.323835308137536,-8.104462635999917,-1.4645263166114688
1667581578071288800,6.748288818359375,-5.3370881729424,-8.101229645428061,-1.4338584988862275
1667581578081310700,6.758310791015625,-5.347204493287205,-8.098824337852001,-1.4095534941911696
1667581578091332600,6.76833251953125,-5.351788898468017,-8.098228125524521,-1.3955048028334975
1667581578101353700,6.778353759765625,-5.349568299809098,-8.100122560968995,-1.3930264300212263
1667581578111376000,6.7883759765625,-5.3419005416601895,-8.104207199934125,-1.3986829944781958
1667581578121397800,6.798397705078125,-5.334982140573859,-8.107761677545309,-1.404474291230738
1667581578131418600,6.808418701171875,-5.3341772539317605,-8.108361981526016,-1.4040661488212645
1667581578141440800,6.818440673828125,-5.3423716663032765,-8.104871801322698,-1.3930223383679985
1667581578151462000,6.8284619140625,-5.361431171560287,-8.096078838536142,-1.3707451862387359
1667581578161483800,6.83848388671875,-5.392597294196486,-8.080825155302882,-1.338114836268872
1667581578171505700,6.848505615234375,-5.433789720806479,-8.059923821571468,-1.296893329694867
1667581578181526800,6.85852685546875,-5.481880090236664,-8.03502669620216,-1.2480841444708406
1667581578191549000,6.868548828125,-5.535683576616645,-8.006217365825176,-1.1945991494555026
1667581578201570800,6.87857080078125,-5.595642078495025,-7.9725968357741825,-1.1388089462377131
1667581578211591700,6.888591796875,-5.658747061705589,-7.934999218785762,-1.0884573538772762
1667581578221613600,6.898613525390625,-5.718287630432844,-7.897053226751089,-1.0526712432902305
1667581578231635700,6.9086357421875,-5.768095909696817,-7.863229283082485,-1.033962743427977
1667581578241656800,6.91865673828125,-5.80583848811388,-7.835828650459646,-1.0307326024003327
1667581578251678700,6.9286787109375,-5.831690722250938,-7.815334728485345,-1.0403450648762285
1667581578261700900,6.938700927734375,-5.845897526779771,-7.802248452419042,-1.0586721642054617
1667581578271721700,6.9487216796875,-5.850942535209655,-7.795525281643867,-1.080106654965505
1667581578281744000,6.958743896484375,-5.851676694703102,-7.792285861331224,-1.0993342102658004
1667581578291764700,6.9687646484375,-5.852832879000902,-7.789537439405918,-1.1125772112637757
1667581578301786600,6.97878662109375,-5.857839893507957,-7.785016162589192,-1.1178636272341012
1667581578311808800,6.988808837890625,-5.867483920165896,-7.7780849020212885,-1.1155330653946847
1667581578321830000,6.998829833984375,-5.879303537297249,-7.770164630416035,-1.1084720409672706
1667581578331851800,7.008851806640625,-5.8888861891567705,-7.763937718725204,-1.1012141057282685
1667581578341873700,7.018873779296875,-5.8934998204320665,-7.760997573620081,-1.0972478324458002
1667581578351894800,7.028894775390625,-5.89386748470068,-7.760451630175114,-1.0991303582567722
1667581578361916700,7.038916748046875,-5.891238889762759,-7.7610975268632165,-1.1086270123332738
1667581578371938800,7.048938720703125,-5.88538022686243,-7.763062689456343,-1.1258500228781252
1667581578381959700,7.058959716796875,-5.875398931074142,-7.7670380228281015,-1.1503021809589118
1667581578391981800,7.06898193359375,-5.861202063417434,-7.773043400722742,-1.181729657945037
1667581578402003700,7.079003662109375,-5.843498648944497,-7.780466828721761,-1.2199348854377865
1667581578412024800,7.08902490234375,-5.824136945870518,-7.787958061259984,-1.263937108771503
1667581578422046700,7.099046630859375,-5.805813353672623,-7.793660656815767,-1.312162502758205
1667581578432067800,7.10906787109375,-5.791137762588262,-7.795952567145228,-1.3624367920987308
1667581578442089700,7.11908984375,-5.782201007416844,-7.794180296775698,-1.409712338014692
1667581578452111600,7.129111572265625,-5.780077439391612,-7.788567133069038,-1.44890467684865
1667581578462132700,7.1391328125,-5.785312417435645,-7.779623948156833,-1.4758030590377746
1667581578472155000,7.14915478515625,-5.7992176086694,-7.767247866186499,-1.4863776445440948
1667581578482176800,7.1591767578125,-5.821627593398094,-7.751921702238917,-1.4787638085395096
1667581578492197600,7.16919775390625,-5.849739004638791,-7.735176319143176,-1.4553325179390608
1667581578502219800,7.1792197265625,-5.879647236168384,-7.7183257221072905,-1.4239301023289561
1667581578512242000,7.189241943359375,-5.906501340824366,-7.702440170711278,-1.3985823105826973
1667581578522262800,7.1992626953125,-5.922976674807071,-7.690939702531695,-1.3921790194116532
1667581578532284700,7.20928466796875,-5.923975038194656,-7.687174797040224,-1.40862965734452
1667581578542306600,7.219306640625,-5.909864095255732,-7.691850387635826,-1.4419883215889333
1667581578552328000,7.229327880859375,-5.886365730768442,-7.70234489364326,-1.4815443791687488
1667581578562349800,7.239349853515625,-5.862140221050382,-7.7135986935853955,-1.5185855313181875
1667581578572370700,7.24937060546875,-5.844896240782737,-7.720738628467917,-1.5484772501043975
1667581578582392600,7.259392578125,-5.837610175427794,-7.721708350282907,-1.5709569390684366
1667581578592415000,7.2694150390625,-5.841074636667966,-7.716311459675431,-1.5845402048714459
1667581578602435800,7.279435791015625,-5.852164185959101,-7.706154222798347,-1.5930318466238678
1667581578612457700,7.289457763671875,-5.864374848234653,-7.695735704636573,-1.59848280550614
1667581578622479600,7.299479736328125,-5.872734680300951,-7.688829578509926,-1.6010240144215524
1667581578632500700,7.309500732421875,-5.8761062025606625,-7.685785388508439,-1.6032652174770832
1667581578642523000,7.31952294921875,-5.874812071096897,-7.685822213387489,-1.6078288721308112
1667581578652544800,7.329544677734375,-5.8681917761743065,-7.689114240670204,-1.616241457297653
1667581578662565600,7.339565673828125,-5.855747889664769,-7.696210920932889,-1.6275567781686782
1667581578672587800,7.349587890625,-5.8370069488376375,-7.707684501105547,-1.640528195683658
1667581578682610000,7.35960986328125,-5.810875897759199,-7.723949407207965,-1.6567172600708902
1667581578692630800,7.369630859375,-5.776235377010702,-7.745230095645785,-1.6783638592116534
1667581578702652700,7.379652587890625,-5.732725321108102,-7.77185214511156,-1.704273084232956
1667581578712673800,7.389673828125,-5.682434226763248,-7.802955139383673,-1.7303822157405315
1667581578722696000,7.399696044921875,-5.630045283356309,-7.836284577533602,-1.7508903123706578
1667581578732717800,7.4097177734375,-5.5810038968116045,-7.869242844283581,-1.7600556156009435
1667581578742738700,7.41973876953125,-5.539181355604529,-7.899708709695934,-1.7556915751725435
1667581578752760600,7.429760498046875,-5.505261550346017,-7.926719466218352,-1.740574377800524
1667581578762782700,7.43978271484375,-5.476597765919566,-7.9512121024399995,-1.7191491663254796
1667581578772803600,7.449803466796875,-5.45077768048644,-7.974220053061843,-1.6944667066201566
1667581578782825500,7.459825439453125,-5.425966479834914,-7.996689074501394,-1.668002624195069
1667581578792847400,7.469847412109375,-5.399008914804458,-8.020217249605059,-1.6423149329699576
1667581578802868500,7.479868408203125,-5.366650367513299,-8.04606188495755,-1.6218294865630567
1667581578812890600,7.489890625,-5.32627159537375,-8.075082227736711,-1.6106747630812226
1667581578822912500,7.49991259765625,-5.2753042092025275,-8.108590529584884,-1.6100643760979174
1667581578832933400,7.509933349609375,-5.214218164598941,-8.14657100841105,-1.6173149317480622
1667581578842955300,7.519955322265625,-5.147935720396042,-8.186317327865957,-1.6289079005166887
1667581578852976600,7.5299765625,-5.08227286939621,-8.224162782135606,-1.644393200548738
1667581578862998500,7.53999853515625,-5.02061457786262,-8.258012444767356,-1.6640424883924423
1667581578873020400,7.5500205078125,-4.963438984701037,-8.288138118439912,-1.6856506552189587
1667581578883041300,7.560041259765625,-4.910924369087815,-8.315204989063739,-1.7060396555140613
1667581578893063400,7.5700634765625,-4.86487661140114,-8.339279107612372,-1.7204051577359436
1667581578903085600,7.58008544921875,-4.827040217220783,-8.360332417035103,-1.724793894214183
1667581578913106400,7.5901064453125,-4.7972050509274,-8.378416939780115,-1.7202717406146226
1667581578923128300,7.60012841796875,-4.773128886552155,-8.393783435738086,-1.7123232658281922
1667581578933150500,7.610150390625,-4.753724221119285,-8.40595551956892,-1.7065787308268248
1667581578943171600,7.620171630859375,-4.739520046938956,-8.413864685258268,-1.7071045082665979
1667581578953193500,7.630193359375,-4.730556696021557,-8.417415655738115,-1.7144452264182268
1667581578963215400,7.64021533203125,-4.7243251081556075,-8.418325171798466,-1.7271164919428525
1667581578973236500,7.650236572265625,-4.7170957414239645,-8.41867413136661,-1.7450844025708734
1667581578983258400,7.66025830078125,-4.706655595952272,-8.419179158279299,-1.7706499287210404
1667581578993279500,7.670279541015625,-4.69021007258594,-8.420829848095774,-1.8060823304995894
1667581579003301400,7.68030126953125,-4.662471586310863,-8.42630155750513,-1.8518031943194566
1667581579013323500,7.690323486328125,-4.62248122896701,-8.436383391058444,-1.9053810552500188
1667581579023344600,7.7003447265625,-4.577366952738165,-8.447485215309262,-1.9642012007482348
1667581579033366500,7.710366455078125,-4.539025531645119,-8.454044135433435,-2.0240495202504096
1667581579043388400,7.720388427734375,-4.517523601672053,-8.452371233785152,-2.0784115172959865
1667581579053409500,7.730409423828125,-4.516206673854589,-8.442046239125728,-2.122760654371232
1667581579063431400,7.740431396484375,-4.535031785833835,-8.42374836589098,-2.1550706863455473
1667581579073453300,7.750453369140625,-4.567853858983517,-8.399896950182319,-2.178719857480377
1667581579083474400,7.760474365234375,-4.607121747271717,-8.373143383291364,-2.198928386642039
1667581579093496600,7.77049658203125,-4.646085976438224,-8.345817569470405,-2.2207236004732547
1667581579103518500,7.7805185546875,-4.680367308485508,-8.319780626416206,-2.246283719795942
1667581579113539600,7.79053955078125,-4.70868359464854,-8.296280508363246,-2.273854448288679
1667581579123561500,7.8005615234375,-4.733360063004493,-8.275282728520036,-2.2989950270250437
1667581579133582300,7.810582275390625,-4.755118598087131,-8.256143728286027,-2.3227815608039495
1667581579143604500,7.8206044921875,-4.777568622565269,-8.237752916070818,-2.341932543736696
1667581579153626400,7.83062646484375,-4.802504618640244,-8.220210829639434,-2.3525470228619874
1667581579163647500,7.8406474609375,-4.829271337273717,-8.205061775824428,-2.350635928543657
1667581579173669600,7.850669677734375,-4.856505088897049,-8.193650739493966,-2.3342741379380225
1667581579183691500,7.86069140625,-4.882723233737051,-8.186662195780873,-2.3039048647679388
1667581579193712400,7.87071240234375,-4.905139355945587,-8.18470872362554,-2.262859883804619
1667581579203734300,7.880734375,-4.9225832426995035,-8.18720872374773,-2.2154354309372604
1667581579213756700,7.890756591796875,-4.935917356047034,-8.192515013462305,-2.1655938339255747
1667581579223777500,7.900777587890625,-4.94582792468667,-8.199369117140769,-2.116489903538674
1667581579233799400,7.91079931640625,-4.953489837616682,-8.206945105352997,-2.068668121916801
1667581579243821300,7.9208212890625,-4.959570618835091,-8.214769515368342,-2.0225220184221864
1667581579253842400,7.930842529296875,-4.963730661123991,-8.222573467117547,-1.9801627399899064
1667581579263864600,7.940864501953125,-4.966336459708214,-8.230320720243453,-1.9410588100917636
1667581579273885400,7.950885498046875,-4.9678866117596625,-8.237856376445293,-1.904786450357735
1667581579283907300,7.9609072265625,-4.97070634535551,-8.244150508153439,-1.8698790953665971
1667581579293929500,7.970929443359375,-4.978077166384458,-8.247805523529648,-1.8338015275523065
1667581579303950600,7.98095068359375,-4.99179940226674,-8.247888525637984,-1.7957341010950505
1667581579313972500,7.990972412109375,-5.010752524539828,-8.244969423320889,-1.7559123783163726
1667581579323994400,8.000994384765624,-5.030719792291522,-8.240858480870724,-1.7176989675171672
1667581579334015500,8.011015380859375,-5.046589561596512,-8.237792079037428,-1.6855556704118846
1667581579344037600,8.02103759765625,-5.055678292459249,-8.237260164117812,-1.6607371632367371
1667581579354059500,8.0310595703125,-5.060212428757548,-8.238155067130922,-1.6423879982061682
1667581579364080400,8.041080322265625,-5.0644543041110035,-8.238195983663202,-1.6290550539024173
1667581579374102300,8.051102294921876,-5.07166028996706,-8.235814056962727,-1.6186448651775718
1667581579384123600,8.06112353515625,-5.083059635859728,-8.230414243745804,-1.6103279954701661
1667581579394145500,8.0711455078125,-5.097029124501347,-8.222709660717845,-1.6055328701481222
1667581579404167400,8.08116748046875,-5.110887553983926,-8.214071011710166,-1.6056922984935342
1667581579414188300,8.091188232421874,-5.123437238955497,-8.204934350052476,-1.6123969106987117
1667581579424210400,8.10121044921875,-5.13324317817688,-8.196167690750956,-1.625735554090887
1667581579434232600,8.111232666015624,-5.138686246013641,-8.189154012596607,-1.643789389436692
1667581579444253400,8.12125341796875,-5.139355523577332,-8.185002153614162,-1.6622743096761405
1667581579454275300,8.131275390625,-5.1350797459542745,-8.184416462680696,-1.6782921091496943
1667581579464297500,8.14129736328125,-5.126688349705934,-8.18754307026863,-1.688664157821238
1667581579474318600,8.151318603515625,-5.117015096953511,-8.193091936567425,-1.6910924078814684
1667581579484340500,8.161340576171876,-5.1079468243569135,-8.199897524929046,-1.6855090547911822
1667581579494362400,8.1713623046875,-5.099139248523116,-8.208048098158836,-1.6724558042116462
1667581579504383500,8.181383544921875,-5.0892351096242665,-8.21794405375123,-1.65392456061244
1667581579514405400,8.1914052734375,-5.0781169187605375,-8.229527524039149,-1.6303328187532722
1667581579524426500,8.201426513671874,-5.066043619129061,-8.24250507903397,-1.6020944201320408
1667581579534448400,8.211448486328125,-5.0538861483454705,-8.256143728286027,-1.5699354870662092
1667581579544470500,8.221470458984374,-5.042619488921761,-8.269656705331801,-1.5346525767609476
1667581579554491400,8.231491455078125,-5.03368916349113,-8.28183814151287,-1.4978377807132899
1667581579564513500,8.241513427734375,-5.028769242745637,-8.291565170279144,-1.4600718214206396
1667581579574535400,8.251535400390624,-5.029661223149299,-8.297872161468863,-1.420638367307186
1667581579584556500,8.261556640625,-5.036455705595016,-8.30080529231131,-1.3788187487095593
1667581579594578400,8.271578369140625,-5.04739561728239,-8.301565170767903,-1.3334953597746788
1667581579604600300,8.281600341796874,-5.060806302997469,-8.301333700099587,-1.283148297458887
1667581579614621400,8.291621337890625,-5.076445770677924,-8.300150043272971,-1.2278374752558767
1667581579624643600,8.3016435546875,-5.093922390657663,-8.297965100449323,-1.1688128932267428
1667581579634664400,8.31166455078125,-5.111745047596097,-8.295320723420382,-1.1081912512645125
1667581579644686300,8.321686279296875,-5.12891596262753,-8.292405712756514,-1.0491050752412527
1667581579654708500,8.33170849609375,-5.145272638666629,-8.2890739379853,-0.9938819313216953
1667581579664729300,8.341729248046875,-5.161078695085644,-8.284974685972928,-0.9449073264028877
1667581579674751500,8.35175146484375,-5.175943086740374,-8.280465684115887,-0.9021523997165262
1667581579684773400,8.3617734375,-5.188866865721344,-8.276368770191073,-0.8647327696435153
1667581579694794500,8.37179443359375,-5.197237803703546,-8.274681840017438,-0.8299103164568543
1667581579704816600,8.381816650390626,-5.200367333900928,-8.276142560219764,-0.7950071992494165
1667581579714838500,8.391838623046874,-5.1999160830020905,-8.279810435077547,-0.7589498705055564
1667581579724859400,8.401859375,-5.198898430392146,-8.28377816966474,-0.7216964638449251
1667581579734881300,8.41188134765625,-5.199937125790119,-8.286307395881414,-0.684205010644719
1667581579744902400,8.42190234375,-5.203488680791854,-8.286944524741171,-0.6485694144442677
1667581579754924500,8.431924560546875,-5.207966118466854,-8.28657510690689,-0.6165650874182581
1667581579764946400,8.441946533203126,-5.209460156416893,-8.287492806273699,-0.5910831844309344
1667581579774968000,8.451968017578125,-5.20435494223237,-8.292083641195298,-0.5713212299929932
1667581579784990000,8.461989990234375,-5.192282811644673,-8.300680789148807,-0.5561269853293895
1667581579795012000,8.47201220703125,-5.1751481369704,-8.312083642172812,-0.5454168638098985
1667581579805033200,8.482033203125,-5.156065250837803,-8.324496549022196,-0.5367888823267072
1667581579815055000,8.49205517578125,-5.136799409353733,-8.336973168757558,-0.5277867337688803
1667581579825077000,8.502076904296874,-5.118040932869911,-8.349044714823364,-0.5191346042251214
1667581579835098000,8.51209814453125,-5.097140183660388,-8.362264846402406,-0.5119363267514855
1667581579845120300,8.522120361328126,-5.069565948036312,-8.379386661595106,-0.5057350244259462
1667581579855142100,8.53214208984375,-5.035891057449579,-8.400015608125925,-0.4999106656540185
1667581579865163000,8.5421630859375,-5.000802792933583,-8.42126707046926,-0.4945818353140726
1667581579875185000,8.552184814453126,-4.968772746944428,-8.440468614545464,-0.4900761213926598
1667581579885206000,8.5622060546875,-4.9417508845061064,-8.456370532554388,-0.48916550935376435
1667581579895228200,8.572228271484375,-4.91736755387783,-8.470255850043893,-0.4946306794244796
1667581579905250000,8.58225,-4.890984281603992,-8.484742640557885,-0.5077537803698331
1667581579915271200,8.592271240234375,-4.858567866645753,-8.502145026257633,-0.5274918790081515
1667581579925293300,8.602293212890626,-4.817901801997423,-8.523849493065477,-0.5497182873308658
1667581579935315200,8.612315185546874,-4.771351355485618,-8.548715054252742,-0.5692675488661975
1667581579945336000,8.622336181640625,-4.724633443452418,-8.573761817225813,-0.5820932743001729
1667581579955358000,8.63235791015625,-4.6836657655090095,-8.595808813861012,-0.5879941689070314
1667581579965380000,8.642380126953125,-4.651220708978176,-8.613356745511293,-0.5887393612511456
1667581579975401200,8.652401123046875,-4.627570953321457,-8.626196937862039,-0.5871177148660645
1667581579985423000,8.662423095703126,-4.6100700756832955,-8.635697756657004,-0.5851119645342231
1667581579995444000,8.67244384765625,-4.596568789075315,-8.64310774065256,-0.581922813104093
1667581580005466000,8.682466064453125,-4.588230584318936,-8.647875685706735,-0.5768632646922022
1667581580015488300,8.69248828125,-4.588517000044882,-8.648321091386675,-0.567843690075539
1667581580025509000,8.702509033203125,-4.598490404787659,-8.644031869760155,-0.552255587256141
1667581580035531000,8.712531005859375,-4.615370812439918,-8.636386323443055,-0.5306383968729526
1667581580045553200,8.72255322265625,-4.6353456789761776,-8.627284148576855,-0.5039013427253812
1667581580055574300,8.73257421875,-4.654842698867618,-8.618436825254559,-0.4747238731557503
1667581580065596200,8.74259619140625,-4.6717707450538875,-8.610719382745026,-0.44771037668697533
1667581580075618000,8.7526181640625,-4.684736609610915,-8.604805190265179,-0.42540125851687044
1667581580085639000,8.762638916015625,-4.691849071964621,-8.601776782354712,-0.4078927820941433
1667581580095661000,8.7726611328125,-4.6926823079183695,-8.60191122238934,-0.39528095513917505
1667581580105682200,8.78268212890625,-4.688309791922569,-8.604730955985188,-0.3856705384898931
1667581580115704000,8.7927041015625,-4.683222405655682,-8.607878606361151,-0.37713732261806726
1667581580125726000,8.802725830078124,-4.681641566205024,-8.609151110514999,-0.3676016151728108
1667581580135747000,8.8127470703125,-4.6855219147697085,-8.607454827991127,-0.3577589241376146
1667581580145769200,8.822769287109375,-4.693737662190198,-8.603321089187263,-0.3494053391490131
1667581580155791000,8.832791015625,-4.701610879783332,-8.599228851437568,-0.34426015828028317
1667581580165812000,8.84281201171875,-4.702153608357906,-8.598937759536504,-0.344098939836584
1667581580175834000,8.852834228515626,-4.69342815784961,-8.603462543484568,-0.3500681504392996
1667581580185856000,8.86285595703125,-4.6805841661065815,-8.60998697681725,-0.36142749311514194
1667581580195877000,8.872877197265625,-4.668504144473373,-8.615943839395046,-0.37544268406201153
1667581580205899000,8.88289892578125,-4.658845504768193,-8.62059780268073,-0.38838337764516473
1667581580215919900,8.892919921875,-4.652527699923515,-8.62358237144947,-0.39774727218747136
1667581580225942000,8.90294189453125,-4.650931370642781,-8.624294319111108,-0.4009677686039358
1667581580235964200,8.912964111328124,-4.655247772537171,-8.622159060648084,-0.3967645447604358
1667581580245985000,8.922985107421875,-4.669150625683367,-8.615202081117033,-0.3843488248994574
1667581580256007200,8.933007080078125,-4.697350884251296,-8.600835117590426,-0.3618137890189886
1667581580266029000,8.943029052734374,-4.741495438665151,-8.577993171185254,-0.32656726520136
1667581580276050200,8.95305029296875,-4.801718436698615,-8.546102241405844,-0.27931301780175416
1667581580286072000,8.963072021484376,-4.87621692058295,-8.505407827445865,-0.225649506148044
1667581580296094200,8.97309423828125,-4.953739428463578,-8.461708970972895,-0.17416779551282524
1667581580306115000,8.983114990234375,-5.016560334035754,-8.425338849952816,-0.13480194500917567
1667581580316137000,8.993136962890626,-5.054233938869833,-8.403070904043316,-0.1162615956549067
1667581580326158000,9.003157958984374,-5.068783273226022,-8.394239362812042,-0.12074022977314888
1667581580336180000,9.013179931640625,-5.070959448221325,-8.392592764648795,-0.14192268200088293
1667581580346202000,9.0232021484375,-5.072330152052641,-8.391301555794477,-0.1670958112999797
1667581580356223200,9.03322314453125,-5.081998728629946,-8.385073475059867,-0.18493878037407993
1667581580366245000,9.0432451171875,-5.106443434056639,-8.370067629107833,-0.19125010067904366
1667581580376267300,9.053267333984374,-5.147301514145732,-8.345108544418215,-0.18660514268372208
1667581580386288000,9.0632880859375,-5.200116574010253,-8.312619648745656,-0.17181997201135382
1667581580396310000,9.07331005859375,-5.25657495881319,-8.277472932040691,-0.1491463039783295
1667581580406332000,9.083331787109374,-5.3106671990066765,-8.243318733504415,-0.12201631412357092
1667581580416353000,9.09335302734375,-5.357594369876384,-8.213276646462083,-0.09301652094209566
1667581580426375200,9.103375244140626,-5.394225187659264,-8.189529275649786,-0.06582737564546987
1667581580436396000,9.11339599609375,-5.419579993668198,-8.172917163544893,-0.04436781437625177
1667581580446418000,9.12341796875,-5.432878451180458,-8.164148166155815,-0.030038180335483045
1667581580456440000,9.133440185546876,-5.43416089220643,-8.16332048316002,-0.022124954958946907
1667581580466461200,9.143461181640625,-5.42729685165584,-8.167899627643823,-0.015924495166912675
1667581580476483000,9.153483154296875,-5.418899025666714,-8.173487072387337,-0.0061651047800405645
1667581580486505000,9.1635048828125,-5.413140316009521,-8.177296401542424,0.011150284768734127
1667581580496526000,9.173526123046875,-5.413089462605118,-8.177259576663374,0.035548306076065635
1667581580506548200,9.18354833984375,-5.420473727637529,-8.172206384927033,0.06249382447570096
1667581580516570000,9.193570068359374,-5.434542000478506,-8.162641853246093,0.08615211506532505
1667581580526591000,9.203591064453125,-5.452841042757034,-8.150246482053399,0.10202377493330277
1667581580536612900,9.21361279296875,-5.473033935958147,-8.136571007922292,0.1118165076132398
1667581580546634200,9.22363427734375,-5.496133071994781,-8.120843861958384,0.12171241753986105
1667581580556656000,9.23365625,-5.527306793415546,-8.099421134701371,0.13652744449437595
1667581580566678000,9.243677978515626,-5.570172706195712,-8.06962162424326,0.15731948176557198
1667581580576699100,9.25369921875,-5.623022837373614,-8.032363029950856,0.1820613617742434
1667581580586721300,9.26372119140625,-5.680909793674945,-7.990968358767032,0.20512330760564654
1667581580596743200,9.2737431640625,-5.73784105668664,-7.949739107277989,0.22183931847643107
1667581580606764000,9.283763916015625,-5.791202644518018,-7.910788322114944,0.22758588103810323
1667581580616786000,9.293785888671875,-5.841050671270489,-7.874158088853955,0.22395773540250954
1667581580626808000,9.30380810546875,-5.8867889246165745,-7.840285045346617,0.2145469147122465
1667581580636829200,9.3138291015625,-5.928123390045761,-7.809428719311952,0.20138393841423094
1667581580646851000,9.32385107421875,-5.966935058999061,-7.780232435443997,0.1845501281163655
1667581580656872000,9.333871826171874,-6.005630408096313,-7.75087073188126,0.1636857653944753
1667581580666894000,9.34389404296875,-6.045699383634329,-7.720162289884686,0.1378578071821481
1667581580676916200,9.353916259765626,-6.086086923602223,-7.688870495042204,0.10588991230954416
1667581580686937000,9.36393701171875,-6.124898008033633,-7.658399368932843,0.0701322149662301
1667581580696959000,9.373958984375,-6.160707572561502,-7.6298571650594464,0.03683179969809716
1667581580706981000,9.383981201171874,-6.193361303406953,-7.603451973214745,0.01333679621167248
1667581580717002200,9.394002197265625,-6.224446177500486,-7.578035792407393,0.0050980206836888095
1667581580727024000,9.404024169921875,-6.255112533921003,-7.552737100499868,0.010300218694482464
1667581580737046000,9.4140458984375,-6.287008139875531,-7.526192207923531,0.018596376690710893
1667581580747067000,9.42406689453125,-6.320071036043763,-7.498445538341999,0.020153670868999322
1667581580757089000,9.434089111328126,-6.3512044254541395,-7.472112827211618,0.010721864472923334
1667581580767110100,9.444110107421874,-6.3788289299607275,-7.448542566531896,-0.011716342844901372
1667581580777132000,9.454132080078125,-6.401940925478935,-7.428553086948394,-0.046188755326252426
1667581580787154000,9.46415380859375,-6.42054450366199,-7.412111070713401,-0.08720648295646533
1667581580797175000,9.474175048828124,-6.435699987217784,-7.398374221783876,-0.12729104878925718
1667581580807197000,9.484197021484375,-6.448851729735732,-7.386238378310203,-0.16178384076328947
1667581580817219000,9.494218994140626,-6.461654512685537,-7.3743760910809035,-0.1896995467687957
1667581580827240000,9.504239990234375,-6.475138263636827,-7.3619181760460135,-0.21244442600766195
1667581580837261800,9.51426171875,-6.491046026864647,-7.347224464783072,-0.2345292887015268
1667581580847284000,9.524283935546874,-6.51036330627501,-7.329214760839939,-0.2610936348970048
1667581580857305000,9.53430517578125,-6.531172285547852,-7.309378425991535,-0.2952244342913851
1667581580867327000,9.544326904296875,-6.550332328569889,-7.29025170071721,-0.34023842848353086
1667581580877347800,9.554347900390624,-6.56327422772944,-7.2757123032331465,-0.39727877789288757
1667581580887370000,9.564369873046875,-6.566597234672307,-7.26858055165708,-0.4668144517380744
1667581580897392000,9.57439208984375,-6.559597585043311,-7.269222941213846,-0.5481492113832384
1667581580907413000,9.5844130859375,-6.544805089581012,-7.275253453549742,-0.6376543449372053
1667581580917435000,9.594434814453125,-6.525725710579753,-7.283461894446611,-0.7324409990906715
1667581580927456800,9.604456787109376,-6.503146799024939,-7.293136900764703,-0.830432148373872
1667581580937478100,9.61447802734375,-6.475873007652163,-7.305711720177531,-0.9273829217586665
1667581580947500000,9.6245,-6.4447618300735945,-7.320997552114725,-1.0190295973859727
1667581580957522000,9.63452197265625,-6.415047075289487,-7.3354615462750195,-1.0993450969859957
1667581580967542800,9.644542724609375,-6.392224418106675,-7.345425306406617,-1.163868130300939
1667581580977565000,9.65456494140625,-6.3795981607675545,-7.3492451569557184,-1.208181465410441
1667581580987586000,9.6645859375,-6.379031759056448,-7.345831549119949,-1.2317078869484364
1667581580997608000,9.67460791015625,-6.390186190277338,-7.335293788492679,-1.2366795378811657
1667581581007629800,9.6846298828125,-6.4093491559088225,-7.320221307045221,-1.2267809519402681
1667581581017651200,9.694651123046874,-6.430585420683026,-7.3046625033855435,-1.2082518272329121
1667581581027673000,9.704673095703125,-6.448754699102044,-7.291767950499057,-1.1891411763105542
1667581581037695000,9.714695068359376,-6.460989326775073,-7.283316933017969,-1.174435409283638
1667581581047715800,9.7247158203125,-6.468049182158708,-7.278444943067431,-1.1657467836543918
1667581581057738000,9.734738037109375,-6.472693208572268,-7.274913846331835,-1.1620059166256338
1667581581067759900,9.744759765625,-6.478205834513902,-7.270214290338754,-1.1606986334193496
1667581581077781000,9.754781005859375,-6.486095126459002,-7.263155603998899,-1.1608305161707102
1667581581087803000,9.764802978515625,-6.495892297852039,-7.254198390561342,-1.1620572084214538
1667581581097823700,9.77482373046875,-6.506093958392739,-7.244646718361973,-1.164567510741949
1667581581107846100,9.78484619140625,-6.515612897366285,-7.2352353314161295,-1.1698490313414485
1667581581117868000,9.794867919921876,-6.52386634644866,-7.2266358453750605,-1.1769826095484197
1667581581127889000,9.804888916015624,-6.531349395680428,-7.21873018681705,-1.1839729068271816
1667581581137911000,9.8149111328125,-6.538489330562949,-7.211477439209818,-1.1887559033200144
1667581581147933000,9.824932861328126,-6.545745000779628,-7.204750176781416,-1.1896130316060036
1667581581157954000,9.8349541015625,-6.554719165351987,-7.1971332720369094,-1.1862989386219531
1667581581167976000,9.844975830078125,-6.56724546944797,-7.18661421611011,-1.180779809874296
1667581581177996800,9.854996826171876,-6.5822203357398505,-7.173335632342099,-1.1781398167595267
1667581581188019000,9.86501904296875,-6.596001023811102,-7.160009702301025,-1.1821226027853786
1667581581198041000,9.875041015625,-6.604236352714896,-7.1501564168065785,-1.1957088642630724
1667581581208062000,9.88506201171875,-6.604677666741609,-7.1455264189183705,-1.2206829273261128
1667581581218083800,9.895083740234375,-6.596660949024558,-7.146769696977734,-1.256237055788189
1667581581228106000,9.90510595703125,-6.580455664154887,-7.154118306174874,-1.2986859122000634
1667581581238127000,9.915127197265624,-6.562504412400722,-7.162859831035137,-1.3406560451842844
1667581581248149000,9.92514892578125,-6.547938711431622,-7.169388940542936,-1.376502142330259
1667581581258171100,9.935171142578126,-6.53839405349493,-7.173028173828125,-1.4026590585023164
1667581581268192000,9.94519189453125,-6.535614067387581,-7.172479892295598,-1.4183321361914276
1667581581278214000,9.9552138671875,-6.5384793936908245,-7.1678685991078614,-1.4284019870460032
1667581581288235000,9.965235107421876,-6.544273174661398,-7.161279868367314,-1.4348996785022317
1667581581298257000,9.9752568359375,-6.552289307856559,-7.1526371277064085,-1.4414102294400333
1667581581308279000,9.985279052734375,-6.560664337491989,-7.143035186624527,-1.4509043262332677
1667581581318300000,9.9952998046875,-6.565993423560261,-7.136076453527807,-1.4610034031823276
1667581581328322000,10.005322021484375,-6.568574672225117,-7.1318205496489995,-1.4701507323645056
1667581581338344000,10.015343994140625,-6.569634410411119,-7.129286647257208,-1.477687849871069
1667581581348365000,10.025364990234374,-6.56879445245564,-7.128858192712068,-1.4834785621017217
1667581581358387000,10.035386962890625,-6.564712151578068,-7.131767358157038,-1.4875583787612616
1667581581368408000,10.045407958984375,-6.556331276723742,-7.138916645389795,-1.4902289131447672
1667581581378430000,10.055429931640624,-6.544502307242155,-7.1495847543984645,-1.491077638928592
1667581581388452000,10.0654521484375,-6.531728165864944,-7.161722935959697,-1.4888373126558958
1667581581398473000,10.075472900390626,-6.519891013076901,-7.173734276270866,-1.4828835188180207
1667581581408494800,10.085494873046875,-6.5077937480479475,-7.186746902579069,-1.472978649266809
1667581581418517000,10.09551708984375,-6.491409014958143,-7.2042451498687265,-1.4597439046405254
1667581581428537900,10.105537841796876,-6.46845600939393,-7.227838791424036,-1.4449248134322463
1667581581438560000,10.11556005859375,-6.4384010628700254,-7.2573776051193475,-1.4310317510277033
1667581581448582000,10.125581787109375,-6.400948407310247,-7.292430213800072,-1.4208124086998402
1667581581458603000,10.13560302734375,-6.35508214367032,-7.333546068042517,-1.4150659740023315
1667581581468625200,10.145625244140625,-6.301758549761772,-7.37999685357213,-1.412048233616352
1667581581478646000,10.15564599609375,-6.244792799958586,-7.428687526983023,-1.4098092225179075
1667581581488668000,10.16566796875,-6.188274793922901,-7.4765417495697735,-1.4060454860702156
1667581581498689800,10.175689697265625,-6.1340510363042355,-7.522125104615092,-1.4005135709062217
1667581581508711000,10.1857109375,-6.08111322684288,-7.565905209630727,-1.39554177384302
1667581581518733000,10.195733154296875,-6.026871933567524,-7.609027727520465,-1.396386992495507
1667581581528755000,10.2057548828125,-5.968283550998568,-7.653045732945204,-1.407432994905859
1667581581538775800,10.21577587890625,-5.903039802193641,-7.699492426821589,-1.4290917228758335
1667581581548798000,10.2257978515625,-5.833437273657322,-7.747156095272302,-1.4570457515977322
1667581581558819000,10.235819091796875,-5.7645630593955515,-7.793163228687644,-1.4855264345422385
1667581581568841000,10.245841064453124,-5.6998412886381145,-7.8356170535355805,-1.5117206139847634
1667581581578862800,10.25586279296875,-5.6403977505445475,-7.874063980829716,-1.5347379169568418
1667581581588884000,10.265884033203125,-5.584216429117322,-7.909737351757287,-1.5565864684104918
1667581581598906000,10.275906005859374,-5.52709578101337,-7.944386640334129,-1.5837680514551697
1667581581608928000,10.285927978515625,-5.463822455498576,-7.980029616123438,-1.6236258684605358
1667581581618948900,10.295948974609376,-5.39132303647697,-8.018148042115568,-1.677294914805889
1667581581628970800,10.305970703125,-5.310504117399454,-8.059108998057246,-1.7377235184140503
1667581581638993200,10.3159931640625,-5.227468106794357,-8.101244258475303,-1.7927070083588361
1667581581649014000,10.326013916015626,-5.152106868600845,-8.140524713984131,-1.8324948288679122
1667581581659036000,10.336035888671875,-5.092652224591374,-8.173744262018799,-1.8507267972595989
1667581581669056800,10.346056884765625,-5.0522307823538775,-8.199607017549871,-1.8471033460654318
1667581581679079200,10.3560791015625,-5.027354699772596,-8.218665938284992,-1.83019561201483
1667581581689101000,10.36610107421875,-5.009298818600177,-8.234004961714149,-1.810653876198828
1667581581699122000,10.376121826171875,-4.987699565732479,-8.24967014835775,-1.7989385962247848
1667581581709143800,10.386143798828124,-4.9543718811482185,-8.269600591230391,-1.7995231181144713
1667581581719166000,10.396166015625,-4.9082484278768295,-8.294533956956863,-1.811131722843647
1667581581729187000,10.40618701171875,-4.8544449414968485,-8.322277119407056,-1.8287845761731265
1667581581739209000,10.416208984375,-4.800406185056269,-8.349792318320274,-1.8459255344577132
1667581581749229800,10.426229736328125,-4.752372514249384,-8.37473562091887,-1.8571857641406355
1667581581759252000,10.436251953125,-4.7132080863356585,-8.39599585109055,-1.8609987465575337
1667581581769274000,10.446274169921875,-4.683221528872847,-8.412865737348794,-1.8605144701719283
1667581581779294200,10.456294189453125,-4.66174064168781,-8.425058863967656,-1.859286828073114
1667581581789316400,10.46631640625,-4.649449607652426,-8.431734688469767,-1.8597981385961173
1667581581799338200,10.476338134765625,-4.645535064557194,-8.432439037346839,-1.8663769324645398
1667581581809359400,10.486359375,-4.645497070634365,-8.428362581688166,-1.8847977014265953
1667581581819381200,10.49638134765625,-4.642933649887144,-8.421929918292165,-1.9195437283761798
1667581581829403400,10.5064033203125,-4.630253616534173,-8.416905952650309,-1.971510062456876
1667581581839424300,10.51642431640625,-4.600794005554914,-8.417150867322087,-2.038295780006796
1667581581849446400,10.5264462890625,-4.552367828299105,-8.424163376432658,-2.1165542009465397
1667581581859467300,10.53646728515625,-4.487066504088044,-8.436779696899652,-2.203945922543108
1667581581869489400,10.546489501953126,-4.409885356990992,-8.452652973335981,-2.2969464239321646
1667581581879511300,10.55651123046875,-4.326946084758639,-8.469678926938771,-2.3900731820493935
1667581581889532400,10.566532470703125,-4.2432638852044935,-8.487334410616755,-2.4759309720769522
1667581581899554300,10.57655419921875,-4.165774987332522,-8.504225924184919,-2.548497026593983
1667581581909576400,10.586576416015625,-4.102996167336404,-8.517786832025646,-2.604439863090217
1667581581919597300,10.596597412109375,-4.059512999440729,-8.526928169858456,-2.6423893622562287
1667581581929619200,10.606619140625,-4.033040295317769,-8.532724288916587,-2.664133284291625
1667581581939640300,10.616640380859375,-4.015594362737239,-8.537705584460497,-2.674503871658444
1667581581949662500,10.626662353515625,-3.998966176280379,-8.54439660653174,-2.678044320744276
1667581581959684400,10.636684326171874,-3.978202789714932,-8.55418793270588,-2.6777111432671545
1667581581969705200,10.646705322265625,-3.9521164545610543,-8.566776780644059,-2.676096986068785
1667581581979727400,10.656727294921875,-3.9221398339703675,-8.580543440189958,-2.6760946479812264
1667581581989749500,10.66674951171875,-3.8869396335124966,-8.594410052978992,-2.6829478748768567
1667581581999770400,10.676770263671875,-3.84515742431581,-8.608087865197659,-2.699255158816278
1667581582009792300,10.686792236328126,-3.7979496829390524,-8.621397428625821,-2.7235049261927604
1667581582019814100,10.696814208984375,-3.7492335828259584,-8.634254572111368,-2.7501401274010537
1667581582029835300,10.706835205078125,-3.7034319088548417,-8.647177182048559,-2.7715175542116164
1667581582039857400,10.716857421875,-3.663695526272058,-8.660669700828194,-2.7821757263481617
1667581582049880300,10.72688037109375,-3.6338010310068722,-8.673995046347379,-2.7798692029714585
1667581582059901200,10.736901123046875,-3.6167213013902306,-8.68591169411242,-2.764893752157688
1667581582069923300,10.74692333984375,-3.6134877262964844,-8.695220205205679,-2.7397514198556543
1667581582079945200,10.7569453125,-3.6225592137634752,-8.70095904111862,-2.7093834618598223
1667581582089966300,10.76696630859375,-3.640468964463472,-8.70256764535904,-2.6800571218714118
1667581582099988200,10.77698828125,-3.66097896078974,-8.70164994599223,-2.6549785024553536
1667581582110010400,10.78701025390625,-3.676091189725697,-8.701542978486419,-2.6343662147983906
1667581582120031200,10.79703125,-3.681984047156572,-8.70416748177111,-2.617408942517638
1667581582130053400,10.807053466796875,-3.6810298151716587,-8.709244054383039,-2.6018203282415864
1667581582140074200,10.81707421875,-3.679531685568392,-8.71489345844686,-2.5849665163353084
1667581582150096400,10.827096435546874,-3.683502635025978,-8.719063437607884,-2.565174312889576
1667581582160118300,10.8371181640625,-3.697743926346302,-8.720269890788197,-2.540464819046855
1667581582170139400,10.847139404296875,-3.7261712716683744,-8.716912397053838,-2.510273386661708
1667581582180161300,10.857161376953124,-3.7706215310305353,-8.708171456715464,-2.4739774999216197
1667581582190183400,10.867183349609375,-3.8301033553078767,-8.693844240677356,-2.4326463954932986
1667581582200204300,10.877204345703126,-3.897729907596111,-8.675363996613026,-2.390845773857087
1667581582210226200,10.88722607421875,-3.9629166655167936,-8.655829859581589,-2.354208526333421
1667581582220248300,10.897248291015625,-4.016959221349657,-8.637306945419311,-2.330526183581352
1667581582230269400,10.90726953125,-4.055917313036322,-8.620275146597624,-2.3261079287476836
1667581582240291300,10.917291259765625,-4.0777746323183175,-8.605131938001513,-2.3438917149804532
1667581582250312400,10.9273125,-4.081393991859257,-8.593130534562468,-2.3813278577968475
1667581582260334300,10.937334228515626,-4.069142120790481,-8.584683024212717,-2.4322220326013864
1667581582270356500,10.9473564453125,-4.047021474397182,-8.578722069981694,-2.48948515791595
1667581582280377300,10.95737744140625,-4.022694842392206,-8.573715055474638,-2.545526486350596
1667581582290399200,10.967399169921874,-4.004730731156468,-8.567322139567136,-2.5949016348943115
1667581582300421000,10.977421142578125,-4.000312330192327,-8.557109373110531,-2.63510417368412
1667581582310442500,10.9874423828125,-4.0117563920095565,-8.542383513143658,-2.6653087578117844
1667581582320464400,10.99746435546875,-4.035132299160957,-8.524442782783508,-2.68737065975517
1667581582330485200,11.0074853515625,-4.064496633072197,-8.505839204600452,-2.702024331268668
1667581582340507400,11.01750732421875,-4.096615526388585,-8.488465460473298,-2.708150412933528
1667581582350529500,11.027529541015625,-4.132251487915218,-8.47203221206665,-2.705467165198922
1667581582360550400,11.03755029296875,-4.1737373445138335,-8.45511673310101,-2.6946792292028663
1667581582370572300,11.047572265625,-4.2223210504189135,-8.435540510493517,-2.6803040823698043
1667581582380594200,11.05759423828125,-4.275630031280219,-8.41259568823576,-2.6678859148234126
1667581582390615300,11.067615234375,-4.327846832990646,-8.387897300308943,-2.6614491597741843
1667581582400637400,11.077637451171874,-4.373567550680041,-8.363422199743985,-2.6637311332315203
1667581582410658300,11.087658203125,-4.4122550087317824,-8.339967674398421,-2.673448517386615
1667581582420680200,11.09768017578125,-4.449004776719212,-8.31673409832716,-2.6848952095523475
1667581582430702300,11.107702392578124,-4.489760273216665,-8.291931665503979,-2.693755100095272
1667581582440723500,11.117723388671875,-4.538193172474205,-8.264234095761179,-2.697708221635222
1667581582450745300,11.127745361328126,-4.593596495266258,-8.234018405717611,-2.696330503541231
1667581582460767200,11.137767333984375,-4.65110088199079,-8.201962056243419,-2.695453720706701
1667581582470788400,11.147788330078125,-4.703758120945095,-8.168698669067025,-2.7050676444873214
1667581582480810500,11.157810546875,-4.744840072917938,-8.136433060756325,-2.73044320102334
1667581582490831400,11.167831298828125,-4.773368832787871,-8.106155995914339,-2.770483534988761
1667581582500853200,11.177853271484375,-4.795412614552676,-8.076414353123306,-2.8188553517088293
1667581582510875100,11.187875244140624,-4.8189501420065755,-8.04546917976141,-2.8667960835352537
1667581582520896500,11.197896484375,-4.850069795152545,-8.012045049065351,-2.90763750475049
1667581582530918400,11.20791845703125,-4.890238723933696,-7.975931533154845,-2.9394647216439247
1667581582540940300,11.217940185546874,-4.936828041151165,-7.9373840680956835,-2.9658132148653267
1667581582550961200,11.227961181640625,-4.984368375483155,-7.897800245726108,-2.991855418616533
1667581582560983300,11.2379833984375,-5.027243056091666,-7.859711045828461,-3.020289193679392
1667581582571005400,11.24800537109375,-5.0619087112814185,-7.824589463564753,-3.053400020642578
1667581582581026300,11.2580263671875,-5.086565598154068,-7.793390607702731,-3.091972912403941
1667581582591048200,11.268048095703126,-5.101832140868902,-7.767505055817961,-3.1317025729849934
1667581582601069600,11.278069580078125,-5.1116766585350035,-7.747968580698966,-3.1638796262294053
1667581582611091500,11.288091552734375,-5.123273572826386,-7.734117165479064,-3.178974027247727
1667581582621113300,11.29811328125,-5.144295902588963,-7.723330398526787,-3.1712416794300076
1667581582631134200,11.30813427734375,-5.1786932622313495,-7.7122426028013225,-3.142104724533856
1667581582641156400,11.31815625,-5.225894573867321,-7.696843958139419,-3.1014515193670986
1667581582651178200,11.32817822265625,-5.28117397801876,-7.674421113929152,-3.0631422469779848
1667581582661199400,11.338199462890625,-5.336150599831343,-7.645142412474751,-3.041000557796657
1667581582671221200,11.34822119140625,-5.3806011514544485,-7.613005398979783,-3.043298313345015
1667581582681242000,11.3582421875,-5.407103373932838,-7.584241076788306,-3.068044632066786
1667581582691264500,11.368264404296875,-5.415170945054292,-7.5627692496925585,-3.1065792376443744
1667581582701286400,11.378286376953126,-5.411560937863588,-7.547984353014827,-3.1485432331487533
1667581582711307300,11.388307373046874,-5.4077481015771625,-7.536612479650974,-3.1821564566761253
1667581582721329400,11.398329345703125,-5.410427549919485,-7.5235285416722295,-3.208453511971235
1667581582731351300,11.408351318359376,-5.4172962666451925,-7.5098226724028585,-3.228906809674203
1667581582741372400,11.418372314453125,-5.425846652847528,-7.49754771271944,-3.2430466864466667
1667581582751394300,11.428394287109375,-5.431695378875732,-7.487797887599468,-3.2557571149379014
1667581582761415200,11.438415283203126,-5.4302329051077365,-7.482613762959837,-3.270082869671285
1667581582771437300,11.448437255859375,-5.420880554872751,-7.482743526819348,-3.2852707941919563
1667581582781459500,11.45845947265625,-5.406631664767861,-7.487512640917301,-3.2978587653473017
1667581582791480600,11.46848046875,-5.391773118332028,-7.494951266485452,-3.305279270736873
1667581582801502500,11.47850244140625,-5.378885579708219,-7.50349873007834,-3.306883198802173
1667581582811524400,11.4885244140625,-5.368303979939222,-7.51237352592945,-3.303929609693587
1667581582821545500,11.49854541015625,-5.358606761789321,-7.522025151371955,-3.2977044515684244
1667581582831567600,11.508567626953125,-5.347939237302541,-7.53212510510385,-3.291964738872647
1667581582841588500,11.51858837890625,-5.334042813897133,-7.542462959244847,-3.2908401187568903
1667581582851610400,11.5286103515625,-5.314396448662877,-7.553707991358637,-3.296828545516729
1667581582861632300,11.53863232421875,-5.286781881028413,-7.5663360022634265,-3.3122327431365846
1667581582871653600,11.548653564453126,-5.251110263666511,-7.580168128260969,-3.337256417495012
1667581582881675500,11.558675537109375,-5.209059174400568,-7.595470911332964,-3.36821971103549
1667581582891697400,11.568697509765625,-5.165250427812338,-7.611475705194473,-3.399415059766173
1667581582901718300,11.57871826171875,-5.1263616019696,-7.62666275293231,-3.4241543642252683
1667581582911740400,11.588740478515625,-5.097907076379657,-7.639571334344148,-3.4378292538344857
1667581582921761500,11.598761474609375,-5.0810903816133735,-7.648712087655067,-3.4423972924023865
1667581582931783400,11.608783447265624,-5.073489843481779,-7.653285971441864,-3.4434421252802014
1667581582941805300,11.618805419921875,-5.070497091406583,-7.654206593418121,-3.445803593714535
1667581582951826700,11.62882666015625,-5.065394215309619,-7.654295440745353,-3.4531042721167204
1667581582961848600,11.6388486328125,-5.0513826410919425,-7.657053799542784,-3.4674867254734036
1667581582971870500,11.648870361328125,-5.025585352012515,-7.6655433954685925,-3.4861610308051105
1667581582981891300,11.658891357421876,-4.990339266586304,-7.679811574795842,-3.505340070788562
1667581582991913500,11.66891357421875,-4.95222551676929,-7.696624177908897,-3.522472407375276
1667581583001934600,11.6789345703125,-4.919342653343081,-7.711309705865383,-3.536403317572176
1667581583011956500,11.68895654296875,-4.896449269011616,-7.720635752615332,-3.5478076319009064
1667581583021978400,11.698978271484375,-4.883114278881251,-7.723966942864656,-3.558921146589517
1667581583031999200,11.708999267578125,-4.8773760274901985,-7.721622425565123,-3.571852524355054
1667581583042021600,11.719021728515624,-4.876946988423168,-7.71476481475532,-3.5872228197053073
1667581583052043500,11.72904345703125,-4.8799096376210445,-7.704767152354121,-3.6046389416694637
1667581583062064400,11.739064453125,-4.885278178916871,-7.692749966824055,-3.6229876683086153
1667581583072086500,11.74908642578125,-4.893256025928259,-7.679691747808456,-3.6398841503128407
1667581583082107600,11.759107666015625,-4.904659463474154,-7.66625768121779,-3.6528316024303433
1667581583092129500,11.769129638671876,-4.921276251754165,-7.651620668578148,-3.6611648387506603
1667581583102151400,11.7791513671875,-4.941964234995842,-7.634994527947902,-3.668002283555269
1667581583112172300,11.78917236328125,-4.962797179666161,-7.6161384363085025,-3.679058222837746
1667581583122194400,11.7991943359375,-4.979840668925642,-7.595126043418049,-3.699409521470964
1667581583132216600,11.809216552734375,-4.99055086351037,-7.572772172790765,-3.730670921175182
1667581583142237400,11.819237548828125,-4.99416905400753,-7.550944956386089,-3.7698663287490604
1667581583152259300,11.82925927734375,-4.993380533978343,-7.531113297712802,-3.810364343354106
1667581583162280400,11.839280517578125,-4.992659233966469,-7.512942265728116,-3.847001883138716
1667581583172302600,11.849302490234376,-4.995578336283565,-7.494990429452061,-3.8781051696717737
1667581583182324500,11.859324462890624,-5.003908942255378,-7.475995221602917,-3.9039413294568654
1667581583192345300,11.869345458984375,-5.015983410930633,-7.45642309064865,-3.925817061178386
1667581583202367500,11.879367431640626,-5.030583014169335,-7.437212778744101,-3.943534796437621
1667581583212389400,11.889389404296875,-5.046894097501039,-7.4201213586896655,-3.9548771514460443
1667581583222410500,11.899410400390625,-5.064433845844865,-7.406410813245177,-3.958152227593958
1667581583232432400,11.909432373046876,-5.083481076142192,-7.395948455941677,-3.9532954352125524
1667581583242453500,11.91945361328125,-5.103800226071477,-7.388245041957497,-3.9415027060881256
1667581583252475400,11.929475341796875,-5.124278950476646,-7.382883807185292,-3.924942616431415
1667581583262497500,11.93949755859375,-5.142413157582283,-7.380413033157587,-3.9058255357682703
1667581583272518400,11.949518310546875,-5.155836702778935,-7.382091195502877,-3.8849014056831597
1667581583282540500,11.95954052734375,-5.163163100144267,-7.389101951047778,-3.8617736280739305
1667581583292562400,11.9695625,-5.163211615461111,-7.402098210743069,-3.8367397245824333
1667581583302583600,11.97958349609375,-5.154921341499686,-7.420459212341904,-3.8123420731678603
1667581583312605400,11.98960546875,-5.13799826374948,-7.442760475999116,-3.791656428013742
1667581583322626300,11.999626220703124,-5.112790757256746,-7.467656432324647,-3.776752581131458
1667581583332648400,12.0096484375,-5.081091550657153,-7.493790406012534,-3.767756204727292
1667581583342670300,12.01967041015625,-5.044737211728096,-7.520236514389515,-3.7639135578244924
1667581583352691500,12.02969140625,-5.0064358303844925,-7.546473363929986,-3.7625408081665634
1667581583362713600,12.039713623046875,-4.969958157336712,-7.5716066361427306,-3.7604073032692074
1667581583372735500,12.049735595703124,-4.939840082448721,-7.594277902156114,-3.754370945714414
1667581583382756400,12.05975634765625,-4.919694535520673,-7.613434438046813,-3.7420030470505354
1667581583392778500,12.069778564453125,-4.91033634006679,-7.628727284246683,-3.723103993052244
1667581583402799400,12.07979931640625,-4.908717214432358,-7.641363478457928,-3.6992493624731897
1667581583412821500,12.089821533203125,-4.910233464214206,-7.653427425739169,-3.6721976894184944
1667581583422843400,12.099843505859376,-4.911873632636666,-7.665580220347643,-3.6445509730800985
1667581583432864500,12.109864501953124,-4.911162269496917,-7.678188357508182,-3.6188790639460087
1667581583442886400,12.119886474609375,-4.905549105790257,-7.692387563252448,-3.5962674191653727
1667581583452908500,12.129908447265626,-4.893144382247328,-7.709379614585638,-3.5767303595244884
1667581583462929400,12.139929443359375,-4.873470836745202,-7.730407205045223,-3.5581580532625314
1667581583472951300,12.149951416015625,-4.8483878334149715,-7.755047140783071,-3.538750465220213
1667581583482972400,12.159972412109376,-4.82136655549854,-7.781703092518448,-3.5170869149446484
1667581583492994600,12.16999462890625,-4.797784019859135,-7.807746465313434,-3.491525772708654
1667581583503016400,12.180016357421875,-4.783368541015684,-7.830866059616207,-3.459378822341561
1667581583513037600,12.19003759765625,-4.781675473362207,-7.84979112483859,-3.4185905926182865
1667581583523059500,12.2000595703125,-4.791587795567512,-7.864867113417387,-3.3697081960275765
1667581583533080600,12.21008056640625,-4.8065538940310475,-7.877527273026108,-3.3184321822986003
1667581583543102500,12.2201025390625,-4.817045769689977,-7.890353436851501,-3.2724279714927076
1667581583553124400,12.230124267578125,-4.815224691742658,-7.90661834295392,-3.2356405018433927
1667581583563145500,12.2401455078125,-4.796371814973652,-7.928292414623498,-3.2105124903276563
1667581583573167600,12.250167724609375,-4.759423894065618,-7.9560180414170025,-3.1968799785554407
1667581583583189500,12.260189453125,-4.706945518809556,-7.9894480173319575,-3.191200179353356
1667581583593210400,12.27021044921875,-4.645867072990536,-8.026992442828416,-3.186488932922482
1667581583603232300,12.280232177734375,-4.5843616339311,-8.066651083999872,-3.1753993836313485
1667581583613253400,12.29025341796875,-4.529275706525147,-8.106659853783249,-3.1524744351178406
1667581583623275500,12.300275634765624,-4.483800195768476,-8.145802362126112,-3.1163822542563078
1667581583633297400,12.31029736328125,-4.445824100856483,-8.183378351804613,-3.0720261029183864
1667581583643318500,12.320318603515625,-4.411362151545286,-8.218378353515266,-3.0279589976549146
1667581583653340700,12.330340576171874,-4.3785959002360695,-8.248420440557599,-2.9936361645534633
1667581583663362600,12.340362548828125,-4.346021956628561,-8.272930027914047,-2.9734023548200725
1667581583673383400,12.350383544921876,-4.310607236637175,-8.294117192849516,-2.965922228197753
1667581583683405300,12.3604052734375,-4.268426091250777,-8.315829842963815,-2.96612418051064
1667581583693426400,12.370426513671875,-4.216738866372406,-8.34256353611052,-2.964984655086696
1667581583703448600,12.380448486328126,-4.157255873051286,-8.376686170464753,-2.9527514887183903
1667581583713470500,12.390470458984375,-4.0969174319446084,-8.416616614314913,-2.9233903696775436
1667581583723491300,12.4004912109375,-4.044506861227751,-8.458536770677567,-2.8749788054689764
1667581583733513500,12.410513427734376,-4.007876627966762,-8.49797329353094,-2.8092279839247465
1667581583743535600,12.42053564453125,-3.989885628724098,-8.531483348944782,-2.7322107952177523
1667581583753556500,12.430556396484375,-3.9842832786723967,-8.558281924021243,-2.655499311459064
1667581583763578400,12.440578369140624,-3.9807399069771168,-8.579533386364579,-2.5914637694001197
1667581583773600000,12.45060009765625,-3.971811919634044,-8.596646433728933,-2.5480890303149817
1667581583783622100,12.4606220703125,-3.9536522858262058,-8.611675660556553,-2.5254814771875735
1667581583793644300,12.470644287109375,-3.9226565513208507,-8.62908155338764,-2.514378776153922
1667581583803665200,12.4806650390625,-3.878744636619091,-8.650822845074535,-2.50778975315243
1667581583813687000,12.49068701171875,-3.82293594789654,-8.67712749915421,-2.5026000755548474
1667581583823709200,12.500709228515625,-3.759971542200446,-8.706360023379325,-2.4964549969285725
1667581583833730300,12.510730224609375,-3.6963928039982914,-8.735885393071174,-2.4882436334222553
1667581583843752200,12.520752197265624,-3.6385064322188496,-8.763210037848353,-2.4774577432528138
1667581583853773000,12.53077294921875,-3.592085165044665,-8.78598651780188,-2.4644962626099587
1667581583863795000,12.540794921875,-3.560665944430232,-8.80295752634704,-2.4494893937446176
1667581583873817000,12.550817138671874,-3.54346434199959,-8.813591733086108,-2.436152796179056
1667581583883838200,12.560838134765625,-3.5375384590819476,-8.817920117679238,-2.429091479490697
1667581583893860000,12.570860107421876,-3.5368709350839254,-8.81806449458599,-2.4295401000410317
1667581583903882000,12.580882080078124,-3.53192967928946,-8.81797272464931,-2.4370519369758665
1667581583913903400,12.5909033203125,-3.5135870901301502,-8.821500314253568,-2.450756344940513
1667581583923925200,12.60092529296875,-3.478163310049474,-8.830200338059663,-2.4698838008672
1667581583933946000,12.610946044921874,-3.4270915867209433,-8.843451449298858,-2.493751583188772
1667581583943968000,12.620968017578125,-3.3662720840990543,-8.858903869974613,-2.5215911917507645
1667581583953990100,12.630990234375,-3.3045974259525535,-8.8737197463125,-2.5509052567794916
1667581583964011300,12.64101123046875,-3.251306565269828,-8.885462791076302,-2.578362880286574
1667581583974033200,12.651033203125,-3.213487706746161,-8.892771652784942,-2.600478558243811
1667581583984054000,12.661053955078126,-3.1968256180197,-8.895366345453262,-2.612118434894085
1667581583994076000,12.671075927734375,-3.2034862449526784,-8.892931227260828,-2.6122484910145403
1667581584004098300,12.681098388671876,-3.230602507676184,-8.885592554935812,-2.6038135478854176
1667581584014119200,12.691119140625,-3.270084915497899,-8.875273405495285,-2.5896792240709066
1667581584024141000,12.70114111328125,-3.312433234144747,-8.864344599723815,-2.5732404227063057
1667581584034163200,12.7111630859375,-3.349991103644669,-8.855091618210077,-2.556421389852464
