sep=;
ACCELEROMETER X (m/s²);ACCELEROMETER Y (m/s²);ACCELEROMETER Z (m/s²);GRAVITY X (m/s²);GRAVITY Y (m/s²);GRAVITY Z (m/s²);LINEAR ACCELERATION X (m/s²);LINEAR ACCELERATION Y (m/s²);LINEAR ACCELERATION Z (m/s²);GYROSCOPE X (rad/s);GYROSCOPE Y (rad/s);GYROSCOPE Z (rad/s);LIGHT (lux);MAGNETIC FIELD X (μT);MAGNETIC FIELD Y (μT);MAGNETIC FIELD Z (μT);ORIENTATION Z (azimuth °);ORIENTATION X (pitch °);ORIENTATION Y (roll °);PROXIMITY (i);ATMOSPHERIC PRESSURE (hPa);SOUND LEVEL (dB);LOCATION Latitude : ;LOCATION Longitude : ;LOCATION Altitude ( m);LOCATION Altitude-google ( m);LOCATION Altitude-atmospheric pressure ( m);LOCATION Speed ( Kmh);LOCATION Accuracy ( m);LOCATION ORIENTATION (°);Satellites in range;Time since start in ms ;YYYY-MO-DD HH-MI-SS_SSS
-3.1053;1.2796;9.8351;-1.5498;2.0859;9.4561;-0.9116;-0.2537;-0.1146;0.0355;-0.514;-0.3283;161.0;3.32;-31.88;-27.79;170.89;-15.81;13.7;2.0;988.44;67.943;35.95832;-83.92475;803.23;NaN;;;149.77419;;0 / 19;8;2022-10-23 22:40:00:282
1.3011;3.3135;8.7434;0.2769;1.4411;9.6962;0.4244;1.3504;0.4246;-0.638;-0.3683;0.1824;129.0;-3.62;-33.71;-28.67;166.74;-13.25;4.48;2.0;988.39;69.242;35.95828;-83.92447;761.81;NaN;;0.0;62.75874;;0 / 19;508;2022-10-23 22:40:00:782
1.2676;1.2377;9.2892;3.068;0.9488;9.2659;-3.0316;-0.7239;-0.8045;0.3991;-0.6425;0.1029;108.0;-11.08;-33.53;-30.06;166.73;-4.78;-6.79;2.0;988.46;69.264;35.95828;-83.92447;761.81;NaN;;0.0;62.75874;;0 / 19;1009;2022-10-23 22:40:01:283
0.9254;1.1001;10.5628;3.0143;1.3629;9.2318;2.1155;-2.9529;4.3981;0.1452;0.9331;-0.0633;71.0;-21.17;-37.52;-22.71;159.16;-7.99;-18.08;2.0;988.49;64.986;35.958256;-83.92448;803.42;NaN;;0.0;33.29788;;9 / 19;1508;2022-10-23 22:40:01:782
2.9183;0.4382;9.781;3.5122;0.8846;9.1133;-1.103;-1.6033;-0.306;1.0855;0.2885;1.4343;37.0;-25.88;-38.72;-20.34;155.52;-2.18;-20.68;2.0;988.45;72.347;35.958256;-83.92448;803.42;NaN;;0.0;33.29788;;9 / 19;2008;2022-10-23 22:40:02:282
2.1619;4.5954;3.7684;3.9891;5.1537;7.3278;1.2955;-2.4091;-2.9604;-1.8076;-1.0694;1.2065;37.0;-50.59;-27.45;-7.27;99.49;-31.7;-28.56;2.0;988.45;65.823;35.958252;-83.92446;809.95;NaN;;0.0;26.392265;;9 / 19;2510;2022-10-23 22:40:02:784
-0.9326;2.7018;9.9619;-0.9977;2.4264;9.4492;0.6811;-0.0658;-0.2224;0.3757;1.379;0.7244;48.0;-58.88;-12.88;-5.68;100.34;-12.07;-3.68;2.0;988.44;53.85;35.958252;-83.92446;809.95;NaN;;0.0;26.392265;;9 / 19;3009;2022-10-23 22:40:03:283
-2.581;2.9985;6.9655;-4.0818;4.505;7.6951;1.3819;-1.8897;-0.6345;0.4145;0.4141;-0.0068;44.0;-37.69;3.45;-48.26;74.58;-24.45;23.09;2.0;988.51;71.198;35.958256;-83.924446;805.49;NaN;;0.0;24.264261;;9 / 19;3509;2022-10-23 22:40:03:783
-3.4869;5.3303;4.6265;-4.0106;3.7464;8.1271;-0.4845;0.8414;0.3905;-0.1816;-0.4834;-0.3141;23.0;-20.59;-0.88;-56.76;70.97;-26.05;30.1;2.0;988.52;57.554;35.958256;-83.924446;805.49;NaN;;0.0;24.264261;;9 / 19;4009;2022-10-23 22:40:04:283
-4.7282;3.3733;9.0114;-5.0565;3.2482;7.7493;3.0821;0.4853;-2.4655;-1.0287;0.9086;-0.2575;14.0;-10.27;2.93;-55.93;63.62;-24.29;33.83;2.0;988.59;69.109;35.958263;-83.92442;796.18;NaN;;0.0;21.159746;;9 / 19;4509;2022-10-23 22:40:04:783
-2.7377;4.1309;7.5341;-4.5214;3.212;8.0877;-0.4585;1.2533;0.0446;-0.8152;-0.2107;0.0777;9.0;-9.88;2.61;-49.84;64.71;-21.05;31.25;2.0;988.59;45.317;35.958263;-83.92442;796.18;NaN;;0.0;21.159746;;9 / 19;5009;2022-10-23 22:40:05:283
-3.7181;5.2478;7.1034;-4.291;5.2406;7.0918;3.0541;0.7294;-0.8903;-1.3459;-0.4376;-0.4699;9.0;-0.88;-10.89;-33.94;72.07;-32.3;31.18;2.0;988.56;47.654;35.958263;-83.92442;796.18;NaN;;0.0;21.159746;;9 / 19;5509;2022-10-23 22:40:05:783
-1.8613;4.7557;5.7781;-3.597;5.2442;7.4653;0.0172;0.0449;-0.7022;0.4762;-0.6827;-0.1079;10.0;0.69;-12.99;-25.99;87.39;-30.83;30.63;2.0;988.72;68.731;35.958263;-83.92442;796.18;NaN;;0.0;21.159746;;9 / 19;6011;2022-10-23 22:40:06:285
-3.4235;4.7222;11.123;-2.7401;4.4765;8.2839;1.1966;-0.3915;0.0069;0.7617;-0.025;0.0846;10.0;9.02;-8.23;-23.51;2.78;-24.7;20.93;2.0;988.65;71.286;35.958263;-83.92442;796.18;NaN;;0.0;21.159746;;9 / 19;6508;2022-10-23 22:40:06:782
-0.6129;3.8055;7.2218;-2.3323;4.1418;8.5776;-2.4874;-0.5387;1.9922;-0.4565;-0.1058;0.3441;11.0;10.58;-4.65;-35.53;356.32;-28.67;15.65;2.0;988.66;69.523;35.958263;-83.92442;796.18;NaN;;0.0;21.159746;;9 / 19;7010;2022-10-23 22:40:07:284
-1.1862;3.6054;5.723;-2.7166;3.0217;8.9252;-0.217;0.7002;2.489;0.1152;0.2042;0.1055;12.0;-2.72;-2.27;-55.89;53.22;-17.95;16.93;2.0;988.64;70.812;35.958263;-83.92442;796.18;NaN;;0.0;21.159746;;9 / 19;7508;2022-10-23 22:40:07:782
-2.388;-0.0012;12.7522;0.941;1.0039;9.7096;-2.6305;-1.4831;3.0133;0.4074;1.2357;1.4478;44.0;-18.37;-2.94;-55.33;52.49;-10.61;-8.34;2.0;988.71;70.052;35.958263;-83.92442;796.18;NaN;;0.0;21.159746;;9 / 19;8010;2022-10-23 22:40:08:284
2.2409;0.4741;8.863;2.359;1.1806;9.4452;2.9538;0.2824;0.3731;0.297;0.174;-0.2734;107.0;-23.49;15.56;-47.06;26.36;-6.91;-14.02;2.0;988.73;68.126;35.958263;-83.92442;796.18;NaN;;0.0;21.159746;;9 / 19;8508;2022-10-23 22:40:08:782
-0.4418;4.5248;5.4514;0.5579;4.5273;8.6812;-2.154;-1.0834;2.5348;0.0928;0.9534;1.2536;98.0;-16.69;4.29;-46.8;19.54;-32.69;-7.69;2.0;988.72;67.166;35.958263;-83.92442;796.18;NaN;;0.0;21.159746;;9 / 19;9008;2022-10-23 22:40:09:282
-0.4047;3.0715;7.442;0.7404;3.9668;8.9379;-1.9403;-0.7302;-0.1532;-0.1813;0.2951;0.6839;56.0;6.38;-1.56;-42.58;327.15;-25.92;-6.34;2.0;988.67;69.772;35.958263;-83.92442;796.18;NaN;;0.0;21.159746;;9 / 19;9509;2022-10-23 22:40:09:783
-1.8984;2.7197;7.2649;-3.2891;2.6998;8.8353;-1.2969;-1.2669;2.9285;-0.6379;1.3168;1.9359;22.0;17.94;-1.14;-31.71;304.13;-14.27;11.48;2.0;988.69;68.35;35.958263;-83.92442;796.18;NaN;;0.0;21.159746;;9 / 19;10009;2022-10-23 22:40:10:283
-1.7118;2.3689;8.0273;-1.2513;3.2566;9.1651;-0.8741;-1.6037;-0.2962;0.2372;-0.0105;0.5004;20.0;29.7;-14.61;-12.38;251.79;-17.92;9.96;2.0;988.64;72.023;35.958263;-83.92442;796.18;NaN;;0.0;21.159746;;9 / 19;10508;2022-10-23 22:40:10:782
-1.8254;4.1154;7.6696;-2.6972;3.2121;8.8644;0.192;0.2788;1.0077;-0.2036;0.6243;0.6488;13.0;26.44;-15.47;-18.36;253.53;-19.59;15.75;2.0;988.68;58.041;35.958263;-83.92442;796.18;NaN;;0.0;21.159746;;9 / 19;11008;2022-10-23 22:40:11:282
-2.9913;2.5822;7.3666;-3.003;3.3025;8.7319;-1.3053;-0.4659;-0.0221;0.0293;-0.1428;-0.3338;5.0;22.82;-19.31;-27.28;246.28;-20.81;16.99;2.0;988.69;69.668;35.958263;-83.92442;796.18;NaN;;0.0;21.159746;;8 / 19;11509;2022-10-23 22:40:11:783
-3.5611;3.4941;9.6864;-3.2315;3.1865;8.6934;1.0381;1.7304;-0.87;-1.0985;-0.2447;-0.3081;4.0;23.08;-21.77;-31.67;244.9;-23.97;21.28;2.0;988.68;70.549;35.958263;-83.92442;796.18;NaN;;0.0;21.159746;;8 / 19;12009;2022-10-23 22:40:12:283
-2.4957;3.6197;5.158;-3.601;3.9327;8.2302;-3.6719;-1.9924;4.3689;0.5595;-0.1418;-0.0515;3.0;19.03;-21.13;-33.3;233.26;-21.89;18.65;2.0;988.69;68.182;35.958263;-83.92442;796.18;NaN;;0.0;21.159746;;8 / 19;12510;2022-10-23 22:40:12:784
-2.2588;3.2333;8.1664;-2.2376;3.7107;8.7974;0.0324;-0.1645;-0.7307;0.2495;-0.7573;-0.7189;4.0;14.36;-24.19;-26.85;202.35;-22.64;19.2;2.0;988.8;68.871;35.958263;-83.92442;796.18;NaN;;0.0;21.159746;;8 / 19;13010;2022-10-23 22:40:13:284
-2.7676;5.9889;7.6181;-2.0776;4.2928;8.5689;0.1512;-0.3878;-0.7348;0.0636;0.1932;0.2569;7.0;26.53;-20.44;-5.06;242.46;-25.96;13.63;2.0;988.75;66.097;35.958263;-83.92442;796.18;NaN;;0.0;21.159746;;7 / 19;13509;2022-10-23 22:40:13:783
-0.9051;3.8354;7.7318;-2.4018;3.8804;8.6801;0.5822;0.2945;-2.094;-0.1855;-0.3179;-0.1046;6.0;38.16;-13.84;-1.14;257.23;-22.93;17.13;2.0;988.75;70.84;35.958263;-83.92442;796.18;NaN;;0.0;21.159746;;7 / 19;14011;2022-10-23 22:40:14:285
-6.5886;6.3622;8.2717;-6.3316;4.7235;5.8111;-1.8542;-0.897;2.609;-1.16;-0.4545;-0.1959;3.0;36.77;-12.21;-2.74;278.95;-28.79;47.45;2.0;988.85;66.476;35.958263;-83.92442;796.18;NaN;;0.0;21.159746;;7 / 19;14509;2022-10-23 22:40:14:783
-7.9519;5.1209;9.9655;-4.7469;4.5939;7.2479;1.9865;-0.0609;-1.0911;0.3586;0.1447;-0.5223;1.0;28.26;-14.08;-6.96;260.78;-26.02;34.4;2.0;988.84;69.123;35.958263;-83.92442;796.18;NaN;;0.0;21.159746;;7 / 19;15008;2022-10-23 22:40:15:282
-5.3952;3.3757;8.857;-3.0106;3.3305;8.7186;-2.9845;-0.7105;1.9986;-0.3112;-0.2528;1.0145;2.0;3.79;-35.34;-17.18;171.17;-22.82;26.43;2.0;988.91;64.301;35.958263;-83.92442;796.18;NaN;;0.0;21.159746;;7 / 19;15509;2022-10-23 22:40:15:783
-0.2249;2.7508;7.9651;-0.461;3.3558;9.2031;-2.0583;-1.5346;3.9867;0.7491;-0.3232;0.1182;9.0;-4.99;-35.57;-17.46;167.17;-16.42;6.21;2.0;988.93;70.396;35.958263;-83.92442;796.18;NaN;;0.0;21.159746;;7 / 19;16009;2022-10-23 22:40:16:283
-1.5885;3.8916;7.3618;-0.9069;4.2671;8.7829;-1.4834;-0.2013;-0.5662;-0.1515;0.3483;0.7377;16.0;-12.99;-30.36;-26.98;135.04;-27.37;3.4;2.0;988.85;67.885;35.958263;-83.92442;796.18;NaN;;0.0;21.159746;;6 / 19;16509;2022-10-23 22:40:16:783
-1.4246;3.3517;7.8933;-0.7141;4.2094;8.8284;-0.4902;-0.4728;1.4507;0.1875;0.1966;0.3136;15.0;-14.08;-31.16;-29.12;134.15;-26.25;3.77;2.0;988.86;52.898;35.958263;-83.92442;796.18;NaN;;0.0;21.159746;;6 / 19;17008;2022-10-23 22:40:17:282
-1.6507;2.6755;8.8199;-2.5646;3.1721;8.918;-0.4544;-0.9108;1.603;-0.34;0.8339;0.8001;14.0;-22.26;-28.71;-38.25;119.29;-19.35;12.4;2.0;988.91;71.24;35.958263;-83.92442;796.18;NaN;;0.0;21.159746;;6 / 19;17508;2022-10-23 22:40:17:782
-3.5252;4.2365;8.0572;-2.1894;4.5368;8.4139;-0.2515;-0.1666;-0.2807;-0.0302;0.2788;-0.0441;15.0;-14.49;-19.11;-47.77;90.51;-23.86;15.81;2.0;988.84;65.564;35.958263;-83.92442;796.18;NaN;;0.0;21.159746;;6 / 19;18009;2022-10-23 22:40:18:283
-1.9367;2.8119;8.6175;-1.3261;3.423;9.0937;0.0647;-0.8786;2.0487;-0.0979;0.8843;1.0838;7.0;-11.27;-20.18;-47.16;99.83;-20.43;8.3;2.0;988.82;69.279;35.958263;-83.92442;796.18;NaN;;0.0;21.159746;;5 / 19;18509;2022-10-23 22:40:18:783
-0.6141;2.2158;9.1801;-0.9465;2.7991;9.3509;0.1628;-0.5197;0.4665;-0.0962;-0.0426;0.3086;1.0;-7.84;-10.09;-51.11;69.83;-17.17;6.74;2.0;988.84;67.692;35.958263;-83.92442;796.18;NaN;;0.0;21.159746;;5 / 19;19008;2022-10-23 22:40:19:282
0.4442;2.1715;8.9755;-0.8954;2.2412;9.505;0.3558;-0.5084;-0.6369;0.1096;0.2362;0.2664;1.0;-3.09;-5.02;-48.07;51.35;-13.21;5.38;2.0;988.88;68.242;35.958263;-83.92442;796.18;NaN;;0.0;21.159746;;5 / 19;19508;2022-10-23 22:40:19:782
-1.8422;2.1715;9.6661;-1.5255;3.0967;9.179;0.2843;0.7115;-2.1522;-0.3783;0.3257;-0.0172;1.0;2.49;-7.42;-44.76;25.45;-20.44;8.06;2.0;988.85;60.956;35.958263;-83.92442;796.18;NaN;;0.0;21.159746;;5 / 19;20009;2022-10-23 22:40:20:283
-1.1049;3.2572;7.0974;-1.9513;3.4262;8.9791;0.6179;-0.2677;-0.7904;-0.0229;0.0642;0.0185;1.0;17.18;-12.45;-37.39;288.11;-20.57;12.72;2.0;988.98;68.242;35.958263;-83.92442;796.18;NaN;;0.0;21.159746;;4 / 19;20509;2022-10-23 22:40:20:783
-2.3892;3.3302;8.0285;-1.5948;3.4207;9.0513;0.4504;-0.6539;0.8368;-0.1127;0.2766;-0.31;2.0;19.07;-13.76;-33.07;265.62;-19.93;8.92;2.0;988.92;65.482;35.958263;-83.92442;796.18;NaN;;0.0;21.159746;;4 / 19;21008;2022-10-23 22:40:21:282
-0.2752;3.4307;9.1813;-0.9323;3.9163;8.9422;0.24;-0.354;-0.9831;0.078;-0.0988;0.2931;2.0;11.93;-12.66;-31.65;269.85;-21.33;7.09;2.0;988.94;67.248;35.958263;-83.92442;796.18;NaN;;0.0;21.159746;;4 / 19;21509;2022-10-23 22:40:21:783
-2.3545;3.134;7.7701;-0.9063;3.8513;8.9731;-0.9796;0.3187;-1.3176;0.1333;-0.3073;-0.263;2.0;4.58;-12.9;-32.68;303.23;-23.1;5.68;2.0;988.98;70.368;35.958263;-83.92442;796.18;NaN;;0.0;21.159746;;4 / 19;22008;2022-10-23 22:40:22:282
-0.5518;3.784;9.1286;-1.2352;4.6381;8.5518;0.2861;-0.4818;-0.2173;0.078;0.2991;0.239;2.0;-2.74;-12.81;-34.54;59.27;-26.78;5.96;2.0;988.97;67.908;35.958263;-83.92442;796.18;NaN;;0.0;21.159746;;5 / 19;22508;2022-10-23 22:40:22:782
-1.2963;3.8318;6.6532;-1.0113;4.1796;8.8135;-1.9141;0.5964;-0.4716;-0.174;-0.4798;-0.1673;1.0;-4.71;-11.85;-35.06;60.42;-27.7;7.0;2.0;989.04;67.96;35.958263;-83.92442;796.18;NaN;;0.0;21.159746;;5 / 19;23008;2022-10-23 22:40:23:282
-2.9483;4.721;8.6916;-2.2008;4.2594;8.5548;1.0968;1.7376;1.6106;-0.1109;0.4903;0.0058;1.0;-5.62;-8.79;-34.57;65.34;-28.07;16.09;2.0;989.04;70.242;35.958263;-83.92442;796.18;NaN;;0.0;21.159746;;5 / 19;23509;2022-10-23 22:40:23:783
-4.654;4.6588;7.9161;-1.5446;3.6645;8.9641;-1.1958;0.6372;-0.1602;-0.6467;-0.2542;0.3372;1.0;-7.14;-7.73;-33.62;59.03;-30.56;14.02;2.0;989.06;69.861;35.958263;-83.92442;796.18;NaN;;0.0;21.159746;;5 / 19;24008;2022-10-23 22:40:24:282
-0.0191;5.6345;6.9583;-2.1555;3.447;8.9243;-0.5854;0.0342;4.5271;-0.3949;0.5974;0.2878;1.0;-15.66;-3.77;-35.03;66.18;-24.07;9.07;2.0;989.08;66.249;35.958263;-83.92442;796.18;NaN;;0.0;21.159746;;6 / 19;24509;2022-10-23 22:40:24:783
-2.3031;1.5766;11.8388;-1.2087;3.0835;9.2305;-2.2405;-0.0645;1.8324;-0.9386;0.3993;0.8407;3.0;-19.01;-0.54;-39.56;67.61;-21.26;14.31;2.0;989.12;68.601;35.958263;-83.92442;796.18;NaN;;0.0;21.159746;;6 / 19;25009;2022-10-23 22:40:25:283
-2.2648;3.0511;11.1649;-0.5876;2.8782;9.3563;-0.9346;-0.1372;1.4372;-0.1293;-0.2828;0.0534;7.0;-19.5;6.41;-39.34;51.86;-17.07;3.59;2.0;989.09;65.716;35.958263;-83.92442;796.18;NaN;;0.0;21.159746;;6 / 19;25508;2022-10-23 22:40:25:782
-2.0566;2.0231;9.6924;-0.7242;2.9683;9.3185;-0.3241;-0.5654;-0.1802;-0.5147;0.3014;1.1721;13.0;-5.61;14.1;-38.85;30.5;-19.06;3.03;2.0;989.11;46.461;35.958263;-83.92442;796.18;NaN;;0.0;21.159746;;6 / 19;26009;2022-10-23 22:40:26:283
-0.6176;2.3246;9.4352;-2.3837;3.2806;8.9289;-1.0086;-0.3511;0.3289;-0.1318;-0.9293;0.3848;12.0;19.52;13.37;-37.03;339.34;-19.54;14.95;2.0;989.07;60.354;35.958263;-83.92442;796.18;NaN;;0.0;21.159746;;7 / 18;26508;2022-10-23 22:40:26:782
0.2166;2.8322;9.2605;-0.2186;2.4204;9.5008;-0.2211;-0.5606;-0.4437;-0.0363;-0.1222;0.3339;6.0;23.1;7.22;-37.2;306.81;-14.34;2.16;2.0;989.12;71.565;35.958263;-83.92442;796.18;NaN;;0.0;21.159746;;7 / 18;27009;2022-10-23 22:40:27:283
0.5351;2.6192;9.8877;-0.2708;2.8822;9.3696;-0.466;1.1116;-0.0361;-0.302;-0.0157;0.063;7.0;16.52;-0.04;-39.26;306.61;-18.95;-0.06;2.0;989.16;69.276;35.958263;-83.92442;796.18;NaN;;0.0;21.159746;;7 / 19;27508;2022-10-23 22:40:27:782
-0.2886;3.0897;11.572;-0.4102;3.9987;8.945;-0.3417;-0.2722;-0.0803;0.1004;0.1894;0.2645;9.0;13.5;-5.77;-38.29;305.83;-22.15;2.35;2.0;989.13;70.694;35.958263;-83.92442;796.18;NaN;;0.0;21.159746;;7 / 19;28009;2022-10-23 22:40:28:283
-1.0391;5.1963;9.318;-0.1017;4.6449;8.6363;0.0251;-0.3034;-0.6513;0.3884;0.2272;0.4616;8.0;10.71;-11.57;-40.41;301.5;-25.46;0.75;2.0;989.13;65.232;35.958263;-83.92442;796.18;NaN;;0.0;21.159746;;6 / 19;28510;2022-10-23 22:40:28:784
0.553;4.3286;8.9587;-0.024;4.1903;8.8663;-0.9782;-0.0628;-1.0694;0.1463;0.1432;0.7259;6.0;12.54;-15.64;-41.34;279.0;-23.8;0.74;2.0;989.17;54.209;35.958263;-83.92442;796.18;NaN;;0.0;21.159746;;6 / 19;29008;2022-10-23 22:40:29:282
0.0754;2.7173;9.2952;-0.0018;3.2133;9.2653;0.22;-0.1495;-0.4892;-0.0423;0.6176;1.0092;4.0;17.91;-20.81;-35.38;247.19;-19.97;-1.47;2.0;989.18;72.3;35.958263;-83.92442;796.18;NaN;;0.0;21.159746;;6 / 19;29509;2022-10-23 22:40:29:783
-1.2568;2.1954;9.2351;-0.7879;2.6073;9.4208;-0.5797;-0.2401;-0.5746;0.0234;0.0453;0.2182;3.0;14.03;-29.14;-30.88;210.14;-15.67;5.13;2.0;989.16;69.362;35.958263;-83.92442;796.18;NaN;;0.0;21.159746;;6 / 19;30008;2022-10-23 22:40:30:282
-1.6747;1.7907;9.4555;-0.9182;2.5959;9.4122;-0.1353;-0.7855;0.2042;0.0915;0.1723;0.3137;4.0;1.67;-31.65;-31.67;177.14;-15.35;5.57;2.0;989.17;67.643;35.958263;-83.92442;796.18;NaN;;0.0;21.159746;;5 / 19;30508;2022-10-23 22:40:30:782
-0.4214;1.5168;10.0445;-0.879;2.6644;9.3967;-0.0353;-0.5591;0.0012;0.1177;-0.1801;-0.1384;4.0;-0.54;-28.48;-37.18;166.51;-13.55;5.38;2.0;989.13;70.22;35.958263;-83.92442;796.18;NaN;;0.0;21.159746;;5 / 19;31009;2022-10-23 22:40:31:283
-0.1555;2.8358;8.8499;-0.6081;2.6364;9.426;0.1587;0.0498;-0.5217;-0.0397;-0.0586;0.0589;3.0;3.77;-27.22;-38.51;185.47;-15.59;3.69;2.0;989.12;68.214;35.958263;-83.92442;796.18;NaN;;0.0;21.159746;;4 / 19;31509;2022-10-23 22:40:31:783
-0.4155;4.0687;10.7985;-0.5702;3.3792;9.1884;0.614;0.08;-1.0496;-0.3215;0.1217;0.1209;4.0;6.11;-26.19;-39.3;201.24;-19.73;2.39;2.0;989.2;66.771;35.958263;-83.92442;796.18;NaN;;0.0;21.159746;;4 / 19;32010;2022-10-23 22:40:32:284
1.4641;4.1237;8.225;-0.8638;3.0896;9.2671;1.8951;0.6445;-1.0372;-0.3426;0.8169;0.0404;4.0;16.67;-23.34;-35.36;239.05;-20.06;2.2;2.0;989.17;67.722;35.958263;-83.92442;796.18;NaN;;0.0;21.159746;;1 / 19;32509;2022-10-23 22:40:32:783
-1.0247;2.9722;12.4792;-0.8448;3.0866;9.2698;1.4588;0.5997;-0.1619;-0.1159;0.0199;-0.191;4.0;23.61;-22.46;-28.2;241.34;-17.89;5.03;2.0;989.16;68.366;35.958263;-83.92442;796.18;NaN;;0.0;21.159746;;1 / 19;33008;2022-10-23 22:40:33:282
-0.8824;2.9315;13.1255;-1.216;3.6713;9.0119;0.3145;-0.7024;-1.433;-0.3045;0.0108;-0.5908;2.0;26.06;-19.29;-19.67;249.01;-22.14;2.97;2.0;989.25;69.976;35.958263;-83.92442;796.18;NaN;;0.0;21.159746;;2 / 19;33509;2022-10-23 22:40:33:783
-3.0799;3.1484;7.861;-1.4573;3.469;9.0561;-1.4111;-0.3021;-2.4198;0.141;-0.6979;0.4559;0.0;28.26;-15.11;-14.87;252.43;-18.49;15.23;2.0;989.28;63.546;35.958263;-83.92442;796.18;NaN;;0.0;21.159746;;2 / 19;34008;2022-10-23 22:40:34:282
-1.2772;4.3621;9.6769;-1.9392;3.9722;8.754;0.2145;-0.1845;0.0536;-0.0167;0.648;-0.3619;0.0;27.9;-15.21;-16.82;258.05;-23.68;8.42;2.0;989.27;55.463;35.958263;-83.92442;796.18;NaN;;0.0;21.159746;;4 / 19;34509;2022-10-23 22:40:34:783
-2.6456;1.9451;7.9424;-1.0658;3.3591;9.1516;-0.5136;0.0127;-0.4108;-0.4486;0.2191;-0.1873;0.0;26.7;-15.9;-19.31;253.12;-19.98;8.55;2.0;989.35;70.104;35.958263;-83.92442;796.18;NaN;;0.0;21.159746;;4 / 19;35009;2022-10-23 22:40:35:283
-0.7241;2.7628;12.6972;-1.6099;2.9906;9.1997;-0.1301;1.8387;3.9695;-0.4498;0.5391;-0.3369;0.0;16.8;-24.6;-23.66;225.91;-21.86;6.87;2.0;989.32;68.752;35.958263;-83.92442;796.18;NaN;;0.0;21.159746;;4 / 19;35508;2022-10-23 22:40:35:782
-1.762;4.4315;9.5943;-1.6331;3.506;9.0117;0.1942;3.5972;-2.3566;-1.5579;-0.5404;-0.9479;1.0;13.11;-28.54;-24.75;205.94;-24.33;12.24;2.0;989.34;73.141;35.958263;-83.92442;796.18;NaN;;0.0;21.159746;;4 / 19;36009;2022-10-23 22:40:36:283
-1.2054;3.402;13.8344;-1.2526;4.0636;8.8368;-1.3332;-0.4744;0.2684;0.4489;-0.5356;0.4054;1.0;-0.26;-34.86;-31.16;167.19;-24.48;8.07;2.0;989.39;68.51;35.958263;-83.92442;796.18;NaN;;0.0;21.159746;;5 / 18;36509;2022-10-23 22:40:36:783
0.1208;0.868;9.2593;0.7822;1.9859;9.5716;-0.5308;-1.8766;0.8747;0.8968;-0.3761;1.4025;6.0;-17.31;-28.03;-48.88;149.38;-5.96;-4.16;2.0;989.33;70.528;35.958263;-83.92442;796.18;NaN;;0.0;21.159746;;5 / 18;37008;2022-10-23 22:40:37:282
1.6723;3.1017;9.2653;1.0126;3.6034;9.0642;-0.6044;-0.6338;0.8568;0.5386;0.4978;0.6495;17.0;-19.05;-15.22;-76.95;34.67;-21.56;-6.37;2.0;989.33;65.136;35.958263;-83.92442;796.18;NaN;;0.0;21.159746;;6 / 18;37509;2022-10-23 22:40:37:783
1.1396;5.5615;8.4404;1.1795;4.2347;8.7662;-0.6009;-0.0235;0.5863;0.2958;-0.3812;0.3202;15.0;-13.39;-37.09;-71.89;125.14;-23.79;-5.27;2.0;989.32;70.055;35.958263;-83.92442;796.18;NaN;;0.0;21.159746;;6 / 18;38008;2022-10-23 22:40:38:282
1.203;3.76;9.9823;0.4469;3.3194;9.217;0.7346;0.5661;0.4347;-0.3283;0.2725;-0.0147;11.0;-28.07;-54.58;-57.77;142.14;-21.92;-5.69;2.0;989.35;70.207;35.958263;-83.92442;796.18;NaN;;0.0;21.159746;;6 / 19;38509;2022-10-23 22:40:38:783
-0.9326;1.8446;10.2311;0.0645;3.0066;9.3342;0.0079;-0.269;-0.4877;0.0972;0.4159;1.0395;13.0;-31.09;-43.99;-54.94;130.27;-17.34;-0.98;2.0;989.34;52.324;35.958263;-83.92442;796.18;NaN;;0.0;21.159746;;6 / 19;39008;2022-10-23 22:40:39:282
-1.4581;2.7736;11.2092;-1.0442;4.2903;8.7563;-0.2352;-0.7712;-0.7504;-0.4963;0.141;-0.6051;13.0;-24.99;-32.16;-54.02;99.4;-27.14;4.61;2.0;989.37;51.435;35.958263;-83.92442;796.18;NaN;;0.0;21.159746;;6 / 19;39509;2022-10-23 22:40:39:783
-1.4605;3.9562;8.0309;-1.2145;3.7993;8.9588;-1.5378;-0.438;0.2394;-0.4281;0.07;0.7883;10.0;-16.29;-37.39;-53.36;118.19;-24.88;7.91;2.0;989.37;68.214;35.958263;-83.92442;796.18;NaN;;0.0;21.159746;;6 / 19;40008;2022-10-23 22:40:40:282
-2.2481;2.9124;9.1071;-2.078;3.5507;8.902;-0.1458;-0.1187;0.6287;-0.0632;0.1501;0.3615;4.0;-11.16;-39.94;-60.82;123.72;-21.6;12.83;2.0;989.31;68.94;35.958263;-83.92442;796.18;NaN;;0.0;21.159746;;6 / 19;40509;2022-10-23 22:40:40:783
-0.6787;3.3266;9.6003;-1.7173;3.0862;9.1486;0.539;0.1507;-0.6162;-0.0228;-0.1764;0.242;1.0;-12.32;-36.24;-60.88;121.65;-19.57;11.42;2.0;989.35;66.082;35.958263;-83.92442;796.18;NaN;;0.0;21.159746;;6 / 19;41008;2022-10-23 22:40:41:282
1.1946;5.4634;9.9667;-0.8785;3.6529;9.0584;0.319;-0.3045;-1.3265;0.3832;-0.1867;0.3031;0.0;-20.34;-30.96;-58.09;107.38;-21.87;5.54;2.0;989.38;55.793;35.958263;-83.92442;796.18;NaN;;0.0;21.159746;;6 / 19;41508;2022-10-23 22:40:41:782
-0.5423;3.9371;7.7294;-1.3689;3.3623;9.11;0.3103;-0.4325;0.0454;0.373;-0.3691;-1.018;1.0;-20.78;-36.86;-56.7;119.04;-20.43;8.1;2.0;989.4;56.128;35.958263;-83.92442;796.18;NaN;;0.0;21.159746;;6 / 19;42009;2022-10-23 22:40:42:283
-1.9741;2.5762;8.3686;-1.7027;3.0185;9.1739;0.8325;0.4066;1.1138;0.4117;-0.1555;0.017;1.0;-16.26;-43.69;-54.88;135.39;-17.93;10.51;2.0;989.44;71.402;35.958263;-83.92442;796.18;NaN;;0.0;21.159746;;5 / 19;42509;2022-10-23 22:40:42:783
0.4908;3.3805;10.121;-0.0297;3.4991;9.1611;0.8511;0.8833;-0.971;-0.1662;0.0826;-0.3367;1.0;-24.0;-37.82;-45.96;128.1;-22.12;-1.95;2.0;989.42;66.669;35.958263;-83.92442;796.18;NaN;;0.0;21.159746;;5 / 19;43008;2022-10-23 22:40:43:282
-0.9398;2.9267;7.2541;-0.4305;1.577;9.6694;-0.1371;-0.5462;0.2651;1.6081;-0.6357;-0.6677;1.0;-19.89;-18.21;-43.16;116.68;-9.25;2.55;2.0;989.4;59.239;35.958263;-83.92442;796.18;NaN;;0.0;21.159746;;4 / 19;43509;2022-10-23 22:40:43:783
-3.0356;2.8848;8.2466;-2.1272;2.726;9.1768;0.1381;0.2812;0.4083;-0.1353;0.2713;-0.4328;1.0;-11.61;-15.88;-41.44;99.31;-18.38;11.89;2.0;989.53;68.349;35.958263;-83.92442;796.18;NaN;;0.0;21.159746;;4 / 19;44009;2022-10-23 22:40:44:283
-1.5132;3.7911;8.3112;-2.8037;3.2778;8.8071;1.1857;0.2024;0.5293;1.1465;0.8491;0.0376;1.0;-11.33;-16.67;-36.53;113.51;-15.08;9.59;2.0;989.47;70.463;35.958263;-83.92442;796.18;NaN;;0.0;21.159746;;4 / 18;44509;2022-10-23 22:40:44:783
-3.4678;2.4514;5.9136;-2.423;4.7277;8.2431;1.2077;-1.9995;0.1726;1.7008;-1.0262;-1.2055;1.0;-13.74;-18.26;-35.27;104.0;-21.61;15.94;2.0;989.47;68.737;35.958263;-83.92442;796.18;NaN;;0.0;21.159746;;4 / 18;45009;2022-10-23 22:40:45:283
-3.256;3.5085;7.9101;-1.8404;2.6912;9.2488;-1.2241;0.5221;-1.2651;0.3124;-0.1447;1.1477;1.0;-19.05;-27.41;-33.82;128.05;-12.01;12.77;2.0;989.54;63.524;35.958263;-83.92442;796.18;NaN;;0.0;21.159746;;4 / 19;45509;2022-10-23 22:40:45:783
-0.1304;1.9247;9.1406;-0.8413;2.1251;9.5366;-1.3219;-0.4913;-2.587;-0.515;-0.3354;0.7933;2.0;-24.04;-23.64;-38.23;116.4;-15.59;4.94;2.0;989.53;65.56;35.958263;-83.92442;796.18;NaN;;0.0;21.159746;;4 / 19;46008;2022-10-23 22:40:46:282
-2.6695;3.3996;7.2242;-1.2475;3.1879;9.1898;-2.7677;-1.495;0.1972;1.3324;-0.1536;0.9949;2.0;-29.46;-15.17;-37.74;105.71;-9.12;6.92;2.0;989.61;74.09;35.958263;-83.92442;796.18;NaN;;0.0;21.159746;;4 / 19;46509;2022-10-23 22:40:46:783
-0.5698;2.5355;9.3084;-1.7357;3.2076;9.1032;0.5995;-0.6511;-2.8817;-0.4574;-0.5085;-1.3559;4.0;-28.71;-14.53;-31.03;102.29;-16.0;9.99;2.0;989.61;66.324;35.958263;-83.92442;796.18;NaN;;0.0;21.159746;;4 / 19;47009;2022-10-23 22:40:47:283
-1.3813;2.5172;10.9531;-1.332;2.6708;9.3415;-1.3828;-0.1147;-0.5071;-0.2213;0.245;1.4595;8.0;-38.06;-6.23;-23.14;91.44;-16.24;8.82;2.0;989.58;69.124;35.958263;-83.92442;796.18;NaN;;0.0;21.159746;;4 / 19;47508;2022-10-23 22:40:47:782
-1.5742;3.0787;9.1095;-1.6702;3.7447;8.9083;0.6004;-0.8382;-1.2914;-0.2656;0.223;-0.0085;9.0;-37.59;18.41;-20.74;61.67;-22.09;9.58;2.0;989.57;69.52;35.958263;-83.92442;796.18;NaN;;0.0;21.159746;;4 / 19;48011;2022-10-23 22:40:48:285
-1.951;0.559;8.5732;-2.8731;0.0624;9.3761;-0.2938;0.3161;0.1648;-0.9077;0.2456;0.4351;9.0;-1.2;56.34;-15.19;5.45;-0.36;17.04;2.0;989.61;71.021;35.958263;-83.92442;796.18;NaN;;0.0;21.159746;;5 / 19;48509;2022-10-23 22:40:48:783
-3.4977;4.6229;8.0991;-2.5255;3.7916;8.6842;0.7232;-1.4827;2.1848;0.47;1.0529;0.3124;9.0;14.38;53.51;-1.05;345.26;-14.77;4.56;2.0;989.61;57.704;35.958263;-83.92442;796.18;NaN;;0.0;21.159746;;5 / 19;49009;2022-10-23 22:40:49:283
-2.5367;3.3996;11.9189;-1.633;4.6069;8.5018;-0.9352;-0.3583;-1.8395;-0.2687;0.047;-0.0437;9.0;34.39;35.29;0.68;314.89;-28.02;10.87;2.0;989.65;52.443;35.958263;-83.92442;796.18;NaN;;0.0;21.159746;;6 / 19;49509;2022-10-23 22:40:49:783
-1.9499;4.2221;7.2182;-1.9729;3.762;8.8389;-0.2568;0.3284;-1.0388;0.0926;0.1284;0.9315;8.0;30.54;23.44;4.52;305.9;-21.16;15.03;2.0;989.64;72.439;35.958263;-83.92442;796.18;NaN;;0.0;21.159746;;6 / 19;50009;2022-10-23 22:40:50:283
-2.4574;1.6675;7.7474;-1.949;2.9567;9.1449;-0.3035;-1.2659;-1.2144;0.6384;-0.4532;0.7855;7.0;21.34;3.39;10.03;275.23;-10.26;13.32;2.0;989.63;70.02;35.958263;-83.92442;796.18;NaN;;0.0;21.159746;;6 / 19;50508;2022-10-23 22:40:50:782
-0.5279;-0.7684;8.7506;-0.0829;1.2805;9.7223;-1.4091;-2.9947;-0.6153;1.0994;-0.4458;1.5199;3.0;18.34;-2.14;9.53;264.58;1.45;5.45;2.0;989.64;65.793;35.958263;-83.92442;796.18;NaN;;0.0;21.159746;;6 / 19;51009;2022-10-23 22:40:51:283
-0.4131;1.4641;8.9013;0.2497;1.4415;9.6969;0.0848;-0.0407;-0.3649;-0.4836;-0.0329;0.3431;2.0;20.59;-14.91;10.37;230.71;-12.18;-1.83;2.0;989.7;69.895;35.958263;-83.92442;796.18;NaN;;0.0;21.159746;;6 / 19;51508;2022-10-23 22:40:51:782
-0.3353;0.8955;9.8734;0.4925;1.3615;9.6992;-0.6029;-0.6729;0.2073;0.1103;0.1419;0.2569;2.0;11.29;-24.11;11.23;202.11;-7.8;-3.52;2.0;989.71;65.987;35.958263;-83.92442;796.18;NaN;;0.0;21.159746;;6 / 19;52008;2022-10-23 22:40:52:282
-0.1041;-0.7205;10.5532;0.9516;0.3659;9.7535;-0.6094;0.1757;-0.9705;-0.8476;-0.2211;-0.9661;3.0;-5.61;-29.68;10.26;167.74;-4.75;-3.93;2.0;989.69;65.269;35.958263;-83.92442;796.18;NaN;;0.0;21.159746;;6 / 19;52509;2022-10-23 22:40:52:783
0.5076;1.2784;8.365;0.3435;0.1097;9.8;-0.251;-0.1771;-0.3956;0.4322;0.3987;0.3554;1.0;-12.52;-28.01;1.54;154.92;1.24;-3.05;2.0;989.7;66.194;35.958263;-83.92442;796.18;NaN;;0.0;21.159746;;6 / 19;53008;2022-10-23 22:40:53:282
-1.0558;-1.2724;10.3579;-1.0349;-1.0161;9.6988;-0.3724;-0.5077;1.4125;-0.8442;1.1418;0.646;1.0;-19.31;-13.01;-12.97;124.74;5.95;6.09;2.0;989.72;64.885;35.958263;-83.92442;796.18;NaN;;0.0;21.159746;;5 / 19;53508;2022-10-23 22:40:53:782
-1.9116;1.3346;10.0265;-2.0843;0.5283;9.568;-0.5543;1.3496;-1.1515;-0.1372;0.2356;0.5383;0.0;-11.74;0.17;-17.64;92.5;2.21;7.72;2.0;989.76;68.623;35.958263;-83.92442;796.18;NaN;;0.0;21.159746;;5 / 19;54008;2022-10-23 22:40:54:282
-1.6436;1.7189;7.8706;-1.7157;1.0336;9.5999;0.4733;-0.2821;-0.7265;0.482;0.7177;-0.3978;0.0;8.03;13.99;-13.26;340.08;-6.05;10.13;2.0;989.74;65.543;35.958263;-83.92442;796.18;NaN;;0.0;21.159746;;3 / 19;54509;2022-10-23 22:40:54:783
-0.6954;1.64;6.7729;-0.9758;1.6644;9.615;0.8931;-1.0041;0.71;1.426;-0.8204;0.1251;0.0;18.04;14.59;1.01;310.16;-4.3;9.76;2.0;989.79;70.652;35.958263;-83.92442;796.18;NaN;;0.0;21.159746;;3 / 19;55008;2022-10-23 22:40:55:282
-1.634;0.1376;10.0756;-1.6103;0.8912;9.6324;-0.1583;0.9242;-0.6991;-0.3635;-0.12;-0.0263;0.0;-1.97;-2.49;11.78;180.11;-5.21;9.49;2.0;989.78;55.274;35.958263;-83.92442;796.18;NaN;;0.0;21.159746;;1 / 19;55508;2022-10-23 22:40:55:782
-1.8051;1.4258;9.2617;-2.0074;0.2365;9.5961;1.6594;-1.4028;0.5053;-0.6735;-0.15;0.4856;1.0;-3.36;-1.59;-8.31;106.42;-4.79;13.22;2.0;989.81;59.788;35.958263;-83.92442;796.18;NaN;;0.0;21.159746;;1 / 19;56008;2022-10-23 22:40:56:282
-2.479;3.2022;7.6875;-3.5973;1.9756;8.9066;0.1388;-0.1304;0.7279;0.1823;0.4555;0.4459;1.0;6.62;-13.24;-20.23;176.33;-14.08;20.58;2.0;989.89;71.262;35.958263;-83.92442;796.18;NaN;;0.0;21.159746;;2 / 19;56508;2022-10-23 22:40:56:782
-1.7441;2.1583;8.1664;-0.3171;1.2179;9.7256;-2.7047;1.5932;1.3095;-0.8326;-1.0304;0.1871;0.0;7.99;-19.76;-21.45;192.17;-12.25;12.68;2.0;989.79;68.835;35.958263;-83.92442;796.18;NaN;;0.0;21.159746;;2 / 19;57008;2022-10-23 22:40:57:282
2.211;1.0786;11.8747;0.9048;1.2953;9.6785;-0.247;0.7311;1.4649;-1.1749;-0.3184;0.1245;2.0;-13.01;-26.38;-23.96;147.29;-16.83;-3.82;2.0;989.88;62.478;35.958263;-83.92442;796.18;NaN;;0.0;21.159746;;2 / 19;57508;2022-10-23 22:40:57:782
-0.4585;3.0775;7.6265;-0.5097;3.0411;9.3092;-0.6361;-1.1718;1.2833;0.2263;0.2194;0.8176;9.0;-30.06;-30.51;-26.31;126.63;-15.71;2.75;2.0;989.81;68.313;35.958263;-83.92442;796.18;NaN;;0.0;21.159746;;2 / 19;58009;2022-10-23 22:40:58:283
-0.498;3.1675;8.2083;-0.3958;3.654;9.0919;-0.5733;-0.0607;-0.5529;-0.5093;0.3447;0.4542;16.0;-45.39;-31.72;-26.85;112.56;-23.52;1.03;2.0;989.84;72.203;35.958263;-83.92442;796.18;NaN;;0.0;21.159746;;2 / 19;58508;2022-10-23 22:40:58:782
-0.1232;2.9746;9.4687;-0.9763;4.0458;8.8797;-0.2282;0.3349;0.7478;-0.3251;-0.2026;0.5681;15.0;-52.88;-30.22;-27.45;108.59;-23.81;5.36;2.0;989.89;71.027;35.958263;-83.92442;796.18;NaN;;0.0;21.159746;;2 / 19;59009;2022-10-23 22:40:59:283
-1.0319;3.1412;6.6138;-0.1738;2.7716;9.4052;1.0191;1.0616;-0.585;-1.2129;0.1037;-0.2135;14.0;-44.01;-4.82;-36.68;79.22;-21.11;0.71;2.0;989.9;69.292;35.958263;-83.92442;796.18;NaN;;0.0;21.159746;;3 / 19;59508;2022-10-23 22:40:59:782
0.297;2.5391;8.694;0.3871;2.9851;9.3333;0.2198;-1.7986;1.3516;0.2959;0.2876;1.0988;14.0;-33.11;5.34;-39.19;63.86;-16.75;-0.33;2.0;989.85;69.187;35.958263;-83.92442;796.18;NaN;;0.0;21.159746;;3 / 19;60008;2022-10-23 22:41:00:282
0.0407;1.8206;10.5784;-0.041;3.0222;9.3293;0.2115;-0.4414;0.0725;0.1681;0.1999;0.3496;12.0;-5.42;20.89;-46.09;8.66;-17.95;0.25;2.0;989.86;65.487;35.958263;-83.92442;796.18;NaN;;0.0;21.159746;;3 / 19;60508;2022-10-23 22:41:00:782
-0.7935;2.8107;8.8271;-0.3141;3.2595;9.2438;-0.3664;-0.8524;-0.4652;0.0321;0.3349;0.9522;3.0;12.66;20.16;-46.07;338.68;-16.24;0.59;2.0;989.79;68.301;35.958263;-83.92442;796.18;NaN;;0.0;21.159746;;3 / 19;61009;2022-10-23 22:41:01:283
-0.1974;2.1176;9.7666;-0.4917;3.1045;9.2893;-0.3699;-0.3937;0.77;0.1394;0.079;0.0505;2.0;26.83;5.78;-38.1;306.04;-18.46;3.03;2.0;989.91;68.678;35.958263;-83.92442;796.18;NaN;;0.0;21.159746;;3 / 19;61509;2022-10-23 22:41:01:783
0.4394;2.8238;9.6326;-0.0709;3.3238;9.2259;-0.1097;-0.0328;-0.417;0.1374;-0.0604;0.2004;2.0;24.54;2.01;-33.41;299.03;-20.29;1.18;2.0;989.82;69.256;35.958263;-83.92442;796.18;NaN;;0.0;21.159746;;3 / 19;62009;2022-10-23 22:41:02:283
-0.5518;3.2836;8.6486;0.3005;4.4558;8.7307;-1.7619;-0.7922;0.4588;0.2543;-0.144;0.4271;2.0;21.96;-4.24;-28.05;289.47;-24.62;-0.75;2.0;989.85;68.66;35.958263;-83.92442;796.18;NaN;;0.0;21.159746;;3 / 19;62508;2022-10-23 22:41:02:782
0.7839;4.2353;8.688;0.009;4.2399;8.8427;-0.5048;0.0494;-1.8818;-0.0517;0.0364;-0.2071;4.0;21.81;-10.09;-22.91;271.17;-24.94;-1.04;2.0;989.87;65.143;35.958263;-83.92442;796.18;NaN;;0.0;21.159746;;3 / 19;63010;2022-10-23 22:41:03:284
0.1065;3.9156;8.5062;0.3123;4.2582;8.8284;-0.1066;0.4405;-0.6886;0.1554;0.1583;0.5917;3.0;15.64;-11.66;-17.46;254.99;-23.49;-1.8;2.0;989.9;66.017;35.958263;-83.92442;796.18;NaN;;0.0;21.159746;;3 / 19;63509;2022-10-23 22:41:03:783
-0.492;4.4698;8.6521;0.1952;4.1153;8.8992;-0.5233;-0.1421;-0.5456;-0.0748;-0.0148;-0.039;4.0;10.13;-13.2;-17.76;249.18;-25.73;-2.41;2.0;989.95;63.8;35.958263;-83.92442;796.18;NaN;;0.0;21.159746;;3 / 19;64009;2022-10-23 22:41:04:283
-0.693;4.0424;7.4025;-0.8277;4.4573;8.6959;0.1229;1.1122;1.3445;-0.2572;-0.0384;-0.1126;4.0;7.09;-13.97;-20.7;258.97;-30.86;5.99;2.0;989.91;67.652;35.958263;-83.92442;796.18;NaN;;0.0;21.159746;;3 / 19;64508;2022-10-23 22:41:04:782
0.3221;4.1919;7.6959;-0.0681;4.1017;8.9074;-0.2185;-0.59;0.1788;-0.651;0.2311;-0.0241;3.0;5.91;-12.41;-25.82;266.29;-23.96;2.28;2.0;989.94;70.256;35.958263;-83.92442;796.18;NaN;;0.0;21.159746;;3 / 19;65009;2022-10-23 22:41:05:283
0.3497;2.9734;12.1466;-0.8157;3.3485;9.1811;1.3066;0.5909;0.6346;-0.7938;0.532;-0.4074;3.0;-0.21;-7.89;-35.29;10.67;-22.87;1.92;2.0;989.95;71.002;35.958263;-83.92442;796.18;NaN;;0.0;21.159746;;2 / 19;65509;2022-10-23 22:41:05:783
0.3508;3.4642;10.3173;-0.0805;3.6288;9.1102;-0.6137;-0.1737;-0.8043;-0.3919;-0.3351;0.0465;2.0;-1.42;-5.51;-39.51;23.32;-19.61;3.34;2.0;990.0;51.528;35.958263;-83.92442;796.18;NaN;;0.0;21.159746;;2 / 19;66008;2022-10-23 22:41:06:282
-0.5411;2.7879;12.2662;-0.3269;3.8527;9.0122;-0.8317;-0.4837;0.3252;0.4766;-0.1446;0.0951;2.0;-7.39;-7.54;-40.57;44.47;-23.13;2.08;2.0;989.99;74.158;35.958263;-83.92442;796.18;NaN;;0.0;21.159746;;4 / 18;66509;2022-10-23 22:41:06:783
-1.0845;3.5839;7.4073;-0.9766;3.5218;9.1002;0.9001;0.1968;-1.5786;-0.1651;0.3981;0.1532;2.0;-7.61;-8.33;-39.82;58.3;-21.92;5.24;2.0;990.02;70.284;35.958263;-83.92442;796.18;NaN;;0.0;21.159746;;4 / 18;67009;2022-10-23 22:41:07:283
-1.5538;2.4802;10.7435;0.0825;2.9392;9.3555;-0.2501;0.5334;0.4037;-0.6076;-0.2181;-0.1134;2.0;-9.67;-6.09;-37.91;59.51;-17.44;-0.51;2.0;990.01;66.872;35.958263;-83.92442;796.18;NaN;;0.0;21.159746;;4 / 19;67509;2022-10-23 22:41:07:783
-2.0865;5.1664;9.3993;-1.621;4.4897;8.5665;0.5315;-0.8155;-1.0812;0.5456;0.1149;0.3896;2.0;-12.36;-2.83;-35.08;61.59;-22.5;9.86;2.0;990.02;65.129;35.958263;-83.92442;796.18;NaN;;0.0;21.159746;;4 / 19;68008;2022-10-23 22:41:08:282
-0.3221;2.8549;10.6071;-0.4864;3.9434;8.9657;-1.1996;0.2793;1.7554;-0.0457;-0.7067;0.5917;3.0;-6.77;-3.36;-35.38;51.81;-23.61;10.67;2.0;990.09;67.264;35.958263;-83.92442;796.18;NaN;;0.0;21.159746;;4 / 18;68508;2022-10-23 22:41:08:782
-1.9908;2.898;9.4603;-0.9761;3.0191;9.2792;0.4521;-0.3965;0.2377;0.1339;1.2532;0.2287;8.0;-6.58;1.35;-35.87;32.82;-16.12;0.1;2.0;990.1;72.466;35.958263;-83.92442;796.18;NaN;;0.0;21.159746;;4 / 18;69008;2022-10-23 22:41:09:282
-5.2478;2.3498;8.8917;-3.515;3.835;8.3131;-1.1717;-0.2616;-0.6711;-0.9351;-0.5514;0.8971;13.0;8.85;-3.97;-43.67;39.66;-24.99;27.24;2.0;990.04;70.261;35.958263;-83.92442;796.18;NaN;;0.0;21.159746;;4 / 19;69508;2022-10-23 22:41:09:782
0.8572;1.4569;10.8009;-1.0576;2.0406;9.5335;-2.1518;0.0621;-0.6906;-0.6379;-0.0584;2.0554;14.0;18.98;-2.76;-52.01;324.28;-15.78;11.11;2.0;990.06;64.636;35.958263;-83.92442;796.18;NaN;;0.0;21.159746;;4 / 19;70008;2022-10-23 22:41:10:282
-0.6834;3.39;9.5094;-0.8009;3.4489;9.1452;0.2857;-0.3918;-0.514;0.0564;-0.0172;0.2224;14.0;19.67;-4.84;-54.06;313.63;-19.29;5.87;2.0;990.16;63.659;35.958263;-83.92442;796.18;NaN;;0.0;21.159746;;4 / 19;70509;2022-10-23 22:41:10:783
-0.3461;2.8226;10.8009;-0.9254;3.0077;9.288;-0.09;-0.7414;0.2484;-0.1342;-0.2243;0.2457;13.0;19.5;-13.41;-52.61;286.47;-18.14;4.71;2.0;990.08;67.705;35.958263;-83.92442;796.18;NaN;;0.0;21.159746;;4 / 19;71008;2022-10-23 22:41:11:282
-1.3238;1.8984;9.6386;-0.9917;2.7933;9.348;0.4908;-1.3161;1.8606;0.2043;0.3386;-0.3517;12.0;15.6;-16.26;-50.1;267.52;-16.83;4.28;2.0;990.16;68.775;35.958263;-83.92442;796.18;NaN;;0.0;21.159746;;4 / 19;71508;2022-10-23 22:41:11:782
-0.7768;2.7437;8.5289;-0.9317;2.7133;9.3777;0.0639;0.3316;-1.2612;0.0161;-0.2865;-0.0383;16.0;15.47;-16.16;-48.88;258.05;-15.71;8.02;2.0;990.08;70.874;35.958263;-83.92442;796.18;NaN;;0.0;21.159746;;4 / 19;72008;2022-10-23 22:41:12:282
-1.2221;3.2512;8.7661;-0.4113;2.4295;9.492;0.3697;0.2437;1.1331;-0.6587;0.2668;-0.2234;15.0;15.08;-17.66;-46.54;246.45;-14.34;2.48;2.0;990.1;72.188;35.958263;-83.92442;796.18;NaN;;0.0;21.159746;;3 / 19;72508;2022-10-23 22:41:12:782
-1.1659;4.5655;9.7893;-0.803;4.4964;8.678;-0.2257;-0.8942;-0.6511;0.6081;0.0638;0.2582;11.0;15.23;-17.68;-45.77;252.8;-16.48;2.41;2.0;990.11;69.208;35.958263;-83.92442;796.18;NaN;;0.0;21.159746;;3 / 19;73009;2022-10-23 22:41:13:283
-0.3365;4.1285;9.2339;-0.02;4.2109;8.8565;-0.3952;-0.3341;-0.5483;0.5394;0.5177;0.8256;10.0;14.98;-23.57;-40.35;253.26;-25.43;0.13;2.0;990.17;65.715;35.958263;-83.92442;796.18;NaN;;0.0;21.159746;;3 / 19;73509;2022-10-23 22:41:13:783
0.1687;4.5595;10.3663;0.1476;3.2241;9.2603;-0.6661;0.0313;-0.4558;-0.279;-0.0946;0.5;6.0;13.33;-24.07;-43.12;236.81;-19.51;0.59;2.0;990.16;67.8;35.958263;-83.92442;796.18;NaN;;0.0;21.159746;;3 / 19;74009;2022-10-23 22:41:14:283
-0.4741;1.8697;9.5321;-0.1741;2.6961;9.4271;-0.3188;-0.6979;0.0913;-0.246;0.2378;1.1175;3.0;15.06;-23.06;-50.94;244.88;-17.3;0.71;2.0;990.17;65.28;35.958275;-83.924416;824.52;NaN;;1.15;427.09998;73.7;3 / 19;74509;2022-10-23 22:41:14:783
-0.0562;2.0806;8.7721;0.1405;2.2523;9.5435;0.1369;-0.1641;1.3109;-0.0256;-0.1805;0.0153;4.0;9.81;-28.52;-52.71;217.8;-14.36;-1.81;2.0;990.18;72.214;35.958275;-83.924416;824.52;NaN;;1.15;427.09998;73.7;3 / 19;75008;2022-10-23 22:41:15:282
-0.2644;3.4606;10.4611;-0.1706;3.1166;9.2967;-0.931;-0.8983;0.0056;0.2598;0.1004;0.6342;6.0;1.33;-27.22;-54.07;183.54;-16.57;0.37;2.0;990.22;59.62;35.958267;-83.92442;793.65;NaN;;0.0;493.61188;;3 / 19;75509;2022-10-23 22:41:15:783
-0.8931;2.187;10.121;-0.1636;2.9688;9.3451;0.7885;-0.3599;-0.303;-0.3757;-0.1546;-0.3111;5.0;0.83;-25.8;-56.12;180.19;-17.67;1.0;2.0;990.16;67.694;35.958267;-83.92442;793.65;NaN;;0.0;493.61188;;3 / 19;76010;2022-10-23 22:41:16:284
0.0837;2.9387;9.999;-0.1293;2.9937;9.3376;-0.0107;0.4242;-2.052;-0.0383;-0.155;-0.1685;5.0;6.66;-21.43;-58.01;240.46;-16.79;1.13;2.0;990.17;68.817;35.958267;-83.92442;793.65;NaN;;0.0;493.61188;;1 / 19;76508;2022-10-23 22:41:16:782
-1.1348;3.4834;7.5858;-0.2754;3.2453;9.25;-0.1815;0.4193;0.3616;-0.3777;0.2608;0.0078;4.0;15.04;-21.58;-58.14;270.64;-20.66;3.03;2.0;990.19;54.608;35.958267;-83.92442;793.65;NaN;;0.0;493.61188;;1 / 19;77009;2022-10-23 22:41:17:283
-1.0403;4.7186;9.7187;-0.0357;3.2939;9.2368;-0.7323;-0.6222;0.6948;0.3996;-0.5122;-0.0753;4.0;29.98;-26.12;-54.69;256.09;-18.45;2.13;2.0;990.18;55.999;35.958267;-83.92442;793.65;NaN;;0.0;493.61188;;1 / 19;77508;2022-10-23 22:41:17:782
-1.3932;3.4798;10.6669;-0.5761;3.3261;9.2074;-1.1682;-0.1886;1.7971;-0.8196;0.1326;0.2591;4.0;28.28;-29.76;-46.12;245.76;-20.6;3.46;2.0;990.28;71.813;35.958267;-83.92442;793.65;NaN;;0.0;493.61188;;1 / 19;78009;2022-10-23 22:41:18:283
-0.0957;3.5252;9.5213;-0.0161;4.0544;8.9293;0.1483;-0.7619;0.2732;0.4465;-0.4682;-0.1239;3.0;15.04;-29.83;-39.26;233.17;-24.42;0.1;2.0;990.21;70.077;35.958267;-83.92442;793.65;NaN;;0.0;493.61188;;1 / 19;78508;2022-10-23 22:41:18:782
-0.4896;3.6703;8.359;-0.4796;4.2924;8.8043;-0.9569;-0.2997;1.3583;0.1454;0.0837;0.2432;3.0;7.31;-24.97;-39.26;219.57;-23.37;1.27;2.0;990.21;71.556;35.958267;-83.92442;793.65;NaN;;0.0;493.61188;;1 / 19;79008;2022-10-23 22:41:19:282
-0.0455;4.4375;7.7019;-0.9967;4.4326;8.6907;-0.0175;-0.014;2.3073;-0.3195;0.2931;0.1051;3.0;2.74;-22.65;-38.78;152.81;-26.87;6.54;2.0;990.26;70.074;35.958267;-83.92442;793.65;NaN;;0.0;493.61188;;3 / 18;79509;2022-10-23 22:41:19:783
-0.4155;3.8294;8.4655;-0.1034;3.9391;8.9802;-0.3485;-0.0468;0.1358;-0.086;0.0324;-0.2136;3.0;-3.21;-21.86;-41.19;127.03;-25.73;-0.48;2.0;990.24;65.767;35.958267;-83.92442;793.65;NaN;;0.0;493.61188;;3 / 18;80009;2022-10-23 22:41:20:283
-0.5554;3.1854;11.5768;-0.3143;3.6109;9.1122;0.3225;0.4203;1.515;-0.5326;0.2936;0.0767;2.0;-7.03;-19.01;-42.82;86.96;-24.42;1.15;2.0;990.33;70.608;35.958267;-83.92442;793.65;NaN;;0.0;493.61188;;3 / 19;80508;2022-10-23 22:41:20:782
0.2838;4.1417;8.7374;-0.1343;3.7328;9.0674;1.052;0.2674;-1.0378;0.09;-0.0038;-0.0166;2.0;-5.16;-19.26;-43.09;109.64;-21.57;0.32;2.0;990.31;68.385;35.958267;-83.92442;793.65;NaN;;0.0;493.61188;;3 / 19;81009;2022-10-23 22:41:21:283
-1.0726;3.6559;8.8451;0.0099;3.903;8.9965;0.6351;0.5276;0.2761;-0.366;0.1794;-0.2429;2.0;0.73;-21.82;-38.25;197.59;-23.89;-0.76;2.0;990.34;70.548;35.958267;-83.92442;793.65;NaN;;0.0;493.61188;;4 / 19;81508;2022-10-23 22:41:21:782
-0.8091;2.1978;12.6278;0.659;4.3577;8.7605;-0.8136;1.1479;-0.241;0.1596;-0.2805;0.3862;2.0;7.01;-20.55;-31.91;234.36;-24.69;-2.02;2.0;990.33;58.363;35.958267;-83.92442;793.65;NaN;;0.0;493.61188;;4 / 19;82008;2022-10-23 22:41:22:282
-1.1527;4.4901;9.5429;-0.2524;3.8917;8.9979;-0.6711;-0.9427;0.0633;0.1213;0.9234;1.1222;3.0;12.94;-20.87;-19.26;228.11;-22.82;-1.6;2.0;990.37;71.744;35.958267;-83.92442;793.65;NaN;;0.0;493.61188;;4 / 19;82508;2022-10-23 22:41:22:782
-1.1492;4.022;9.0975;-0.5211;3.5952;9.109;-1.2955;-0.2937;-0.7745;0.0933;0.234;0.5537;7.0;11.49;-23.31;-15.56;213.64;-21.99;3.34;2.0;990.4;69.606;35.958267;-83.92442;793.65;NaN;;0.0;493.61188;;4 / 19;83008;2022-10-23 22:41:23:282
-0.3473;3.4499;8.3495;-0.4987;3.4288;9.1742;-0.1899;0.2173;-1.0728;-0.2735;0.0774;0.4587;12.0;-7.13;-26.36;-26.74;148.07;-20.86;4.96;2.0;990.34;68.102;35.958267;-83.92442;793.65;NaN;;0.0;493.61188;;4 / 19;83510;2022-10-23 22:41:23:784
-0.1771;3.0428;8.3387;-0.1211;3.1516;9.2856;-0.289;-0.1046;-1.1399;-0.0114;-0.2508;0.3873;13.0;-11.96;-23.72;-33.71;126.92;-20.33;4.69;2.0;990.36;66.86;35.958267;-83.92442;793.65;NaN;;0.0;493.61188;;4 / 19;84008;2022-10-23 22:41:24:282
0.0203;2.3964;8.1401;0.4988;2.7144;9.4103;-0.1089;-0.9152;0.558;0.1973;-0.0024;0.448;11.0;-19.46;-23.55;-36.11;126.94;-16.07;-3.03;2.0;990.31;64.596;35.958267;-83.92442;793.65;NaN;;0.0;493.61188;;4 / 19;84509;2022-10-23 22:41:24:783
0.3329;2.1117;8.8606;0.6621;2.6032;9.4316;-0.0233;-0.3568;-1.2308;0.0405;0.1503;0.6925;10.0;-22.2;-16.52;-38.36;106.99;-15.19;-2.5;2.0;990.33;72.163;35.958267;-83.92442;793.65;NaN;;0.0;493.61188;;4 / 19;85008;2022-10-23 22:41:25:282
0.4956;2.254;9.1382;0.3631;2.7463;9.4073;0.559;-0.9923;0.1845;0.394;0.4589;0.6502;10.0;-13.37;-1.8;-42.49;48.74;-16.26;-2.21;2.0;990.38;64.503;35.958267;-83.92442;793.65;NaN;;0.0;493.61188;;3 / 19;85509;2022-10-23 22:41:25:783
-1.1946;2.0961;10.2215;-0.84;2.2778;9.5014;0.1006;0.3334;-0.5806;-0.3464;0.3434;0.2079;4.0;-1.05;0.51;-44.51;13.54;-14.3;2.43;2.0;990.35;62.973;35.958267;-83.92442;793.65;NaN;;0.0;493.61188;;3 / 19;86008;2022-10-23 22:41:26:282
-1.4151;2.5343;9.5788;-1.139;2.582;9.3918;-0.3371;0.0436;-0.0383;0.1304;-0.0463;-0.0273;2.0;11.79;-0.04;-41.89;326.83;-14.23;6.82;2.0;990.39;64.729;35.958267;-83.92442;793.65;NaN;;0.0;493.61188;;3 / 19;86508;2022-10-23 22:41:26:782
-0.4226;2.776;8.6474;-1.0386;2.8016;9.3404;-0.1319;-0.4889;0.8176;0.4508;-0.0248;0.1873;3.0;11.89;-2.91;-39.45;315.84;-15.32;6.53;2.0;990.46;68.174;35.958267;-83.92442;793.65;NaN;;0.0;493.61188;;3 / 19;87009;2022-10-23 22:41:27:283
0.0562;4.5272;8.2717;-0.4708;4.2287;8.8356;0.6579;-0.2347;-0.5561;0.3887;-0.1274;-0.2366;1.0;8.44;-8.55;-33.58;311.87;-22.71;4.03;2.0;990.41;70.702;35.958267;-83.92442;793.65;NaN;;0.0;493.61188;;2 / 19;87508;2022-10-23 22:41:27:782
-0.3209;4.0316;8.863;-0.3135;3.8821;9.0001;-0.4688;-0.0706;0.3175;0.2885;-0.0063;-0.0817;2.0;7.05;-14.91;-26.44;236.61;-21.8;1.34;2.0;990.42;73.502;35.958267;-83.92442;793.65;NaN;;0.0;493.61188;;2 / 19;88008;2022-10-23 22:41:28:282
0.5124;3.5623;8.6665;-0.5437;3.6754;9.0756;0.3529;0.3398;-0.4916;-0.0241;-0.3011;0.0173;2.0;1.46;-17.25;-16.33;176.82;-21.66;5.54;2.0;990.38;66.603;35.958267;-83.92442;793.65;NaN;;0.0;493.61188;;4 / 19;88508;2022-10-23 22:41:28:782
-0.8704;4.0388;9.2447;0.0185;4.0812;8.9171;-0.6392;-0.0379;0.7772;-0.1641;0.0353;-0.0872;2.0;-4.59;-16.61;-13.82;150.76;-25.64;0.85;2.0;990.41;54.314;35.958267;-83.92442;793.65;NaN;;0.0;493.61188;;4 / 19;89009;2022-10-23 22:41:29:283
0.8007;4.4746;10.6908;-0.3481;4.261;8.8257;0.6604;0.252;0.3508;-0.6567;0.0952;-0.0675;2.0;-12.99;-15.49;-11.1;121.88;-27.95;0.82;2.0;990.49;69.933;35.958267;-83.92442;793.65;NaN;;0.0;493.61188;;4 / 19;89508;2022-10-23 22:41:29:782
-1.2832;2.9758;8.3411;-0.061;4.2978;8.8145;-0.2371;-0.9882;0.1783;0.3168;0.1282;0.3798;2.0;-16.59;-12.41;-12.34;110.67;-22.9;0.74;2.0;990.41;69.983;35.958267;-83.92442;793.65;NaN;;0.0;493.61188;;4 / 19;90009;2022-10-23 22:41:30:283
-1.9968;3.5611;10.9421;-0.5718;4.4646;8.7127;0.1958;-0.3131;-0.8202;0.2134;0.5056;-0.0588;2.0;-20.34;-8.7;-12.36;98.66;-27.08;3.75;2.0;990.45;67.303;35.958267;-83.92442;793.65;NaN;;0.0;493.61188;;4 / 19;90510;2022-10-23 22:41:30:784
-1.9116;2.6827;10.777;-1.0651;4.2092;8.7931;0.8866;-0.5064;-0.3286;0.1471;0.0579;0.1535;2.0;-21.94;-5.98;-15.86;91.03;-22.28;6.23;2.0;990.49;59.375;35.958267;-83.92442;793.65;NaN;;0.0;493.61188;;4 / 19;91008;2022-10-23 22:41:31:282
-0.553;3.457;7.9651;-0.2164;3.983;8.9588;-0.4767;-0.1492;-1.0325;0.3512;-0.1202;-0.1005;2.0;-23.49;-0.21;-19.35;72.29;-23.96;1.38;2.0;990.5;65.843;35.958267;-83.92442;793.65;NaN;;0.0;493.61188;;4 / 19;91508;2022-10-23 22:41:31:782
0.7086;4.0161;8.7374;-0.6354;3.46;9.154;0.3105;0.0589;-0.5038;0.1536;0.3399;0.3443;2.0;-24.94;0.58;-20.18;73.01;-21.15;1.93;2.0;990.51;70.47;35.958267;-83.92442;793.65;NaN;;0.0;493.61188;;4 / 19;92009;2022-10-23 22:41:32:283
-0.8548;3.8665;7.1991;-0.2799;3.7586;9.0534;-0.009;0.2543;-2.2926;-0.1741;-0.0818;-0.4335;2.0;-26.42;3.3;-21.9;67.14;-23.64;1.77;2.0;990.53;67.18;35.958267;-83.92442;793.65;NaN;;0.0;493.61188;;4 / 19;92508;2022-10-23 22:41:32:782
-0.0299;3.3374;6.7753;-0.4788;3.4029;9.1849;0.4244;0.71;0.5343;-0.2285;-0.0483;0.1642;2.0;-30.96;3.09;-19.97;73.52;-22.41;3.99;2.0;990.62;68.469;35.958267;-83.92442;793.65;NaN;;0.0;493.61188;;4 / 19;93008;2022-10-23 22:41:33:282
-1.1611;4.5667;6.434;-0.1642;3.7467;9.0612;-0.4831;-0.0776;3.4422;0.2114;0.1065;0.1495;2.0;-32.18;7.74;-26.08;61.01;-24.82;0.91;2.0;990.57;70.674;35.958267;-83.92442;793.65;NaN;;0.0;493.61188;;4 / 19;93508;2022-10-23 22:41:33:782
-0.8031;1.7453;9.8459;0.3316;3.6995;9.076;0.047;-0.2356;4.2937;-0.0383;-0.522;0.112;4.0;-23.57;12.02;-31.31;48.43;-24.84;-0.73;2.0;990.53;58.723;35.958267;-83.92442;793.65;NaN;;0.0;493.61188;;4 / 19;94008;2022-10-23 22:41:34:282
-1.1216;1.5299;8.3889;-0.3187;2.7855;9.3973;-1.2472;-2.7037;3.5287;0.3476;0.4731;1.5418;10.0;-12.45;16.05;-38.31;24.92;-16.4;0.17;2.0;990.63;67.735;35.958267;-83.92442;793.65;NaN;;0.0;493.61188;;2 / 19;94509;2022-10-23 22:41:34:783
-0.5889;2.4203;9.5441;-0.2843;3.956;8.9688;0.4418;-0.6301;0.3095;0.0625;0.065;0.2541;13.0;8.79;15.21;-41.85;345.94;-19.27;2.65;2.0;990.6;68.806;35.958267;-83.92442;793.65;NaN;;0.0;493.61188;;2 / 19;95008;2022-10-23 22:41:35:282
-0.498;3.1699;9.7475;-0.8759;3.4;9.1566;-0.4219;0.9023;0.1305;-0.515;-0.2815;0.3989;9.0;14.1;-2.57;-35.59;319.54;-22.28;6.68;2.0;990.61;70.806;35.958267;-83.92442;793.65;NaN;;0.0;493.61188;;2 / 19;95508;2022-10-23 22:41:35:782
-1.0128;1.4414;12.0362;-0.7649;3.2098;9.2348;-0.2587;0.1532;0.4221;-0.4855;-0.2053;-0.1084;10.0;14.83;-9.73;-32.55;284.22;-21.28;4.88;2.0;990.63;68.187;35.958267;-83.92442;793.65;NaN;;0.0;493.61188;;2 / 19;96008;2022-10-23 22:41:36:282
-2.4718;3.1735;9.0233;-1.8102;3.8853;8.8203;0.9334;-1.0106;-0.1586;0.3477;1.067;0.9632;16.0;10.37;-7.74;-37.31;343.21;-23.34;11.6;2.0;990.7;68.83;35.958267;-83.92442;793.65;NaN;;0.0;493.61188;;2 / 19;96508;2022-10-23 22:41:36:782
-0.0574;2.2732;9.4232;-0.2965;2.7919;9.3962;-0.867;-0.675;0.47;-0.1728;-0.2252;0.7975;21.0;10.09;-6.71;-40.24;326.79;-18.97;7.92;2.0;990.59;70.58;35.958267;-83.92442;793.65;NaN;;0.0;493.61188;;2 / 19;97008;2022-10-23 22:41:37:282
-0.6416;1.0965;11.1637;0.4864;2.4829;9.4746;-0.4593;-0.6544;0.3696;0.0777;-0.1463;0.8676;14.0;7.24;5.79;-43.07;331.0;-14.67;-2.94;2.0;990.58;66.797;35.95853;-83.92437;820.6;NaN;;3.78;489.4796;2.2;2 / 19;97508;2022-10-23 22:41:37:782
-0.3724;1.8494;9.3156;-0.2746;1.9893;9.5988;0.2002;0.2371;0.1633;0.1875;0.0609;0.0803;3.0;13.69;11.1;-43.12;325.2;-10.39;1.39;2.0;990.61;70.493;35.95853;-83.92437;820.6;NaN;;3.78;489.4796;2.2;2 / 19;98010;2022-10-23 22:41:38:284
0.4621;1.957;9.0844;-0.3019;2.0156;9.5925;0.6457;0.2529;-0.7778;-0.1085;-0.0773;0.0071;2.0;26.89;10.44;-39.84;306.29;-11.86;2.96;2.0;990.63;65.936;35.95853;-83.92437;820.6;NaN;;3.78;489.4796;2.2;2 / 19;98509;2022-10-23 22:41:38:783
-0.1005;2.4407;9.8049;-0.4052;2.3503;9.5122;1.1007;0.2389;-0.3989;0.1252;0.4386;0.2656;2.0;32.18;9.11;-38.14;299.01;-12.23;1.83;2.0;990.63;68.931;35.95853;-83.92437;820.6;NaN;;3.78;489.4796;2.2;2 / 19;99008;2022-10-23 22:41:39:282
-0.6165;2.3019;8.9504;-0.5749;3.089;9.2897;-0.7727;-0.3654;-0.6849;0.2184;0.0291;-0.0263;2.0;48.04;6.66;-33.07;289.5;-15.31;3.57;2.0;990.61;55.817;35.95827;-83.92442;793.18;NaN;;0.0;663.53326;;0 / 19;99508;2022-10-23 22:41:39:782
-0.3592;3.4499;6.5539;-1.5179;3.3301;9.0982;-1.5335;0.0499;1.0962;0.3106;0.7824;1.5471;4.0;53.27;3.86;-28.41;286.82;-18.71;7.2;2.0;990.62;71.694;35.95827;-83.92442;793.18;NaN;;0.0;663.53326;;0 / 19;100009;2022-10-23 22:41:40:283
-2.2457;0.7516;11.1051;-1.651;0.7875;9.6345;1.3714;-2.6618;-0.6308;1.4019;-0.0857;-0.6289;4.0;49.13;-8.27;-17.68;256.99;4.93;11.16;2.0;990.69;69.185;35.95827;-83.92442;793.18;NaN;;0.0;663.53326;;2 / 19;100509;2022-10-23 22:41:40:783
-3.8713;-1.1264;9.6757;-2.3539;1.95;9.3181;-2.8812;-0.659;-2.0853;0.937;-0.4331;1.4046;0.0;41.74;-9.17;-7.76;259.38;-5.55;23.26;2.0;990.65;69.827;35.95827;-83.92442;793.18;NaN;;0.0;663.53326;;2 / 19;101009;2022-10-23 22:41:41:283
-2.2947;3.207;7.2159;-2.6924;3.6273;8.7043;0.1918;-0.2224;-1.1204;0.8459;-0.4622;-0.3645;1.0;33.04;-4.44;-4.97;270.92;-16.01;19.37;2.0;990.73;65.377;35.95827;-83.92442;793.18;NaN;;0.0;663.53326;;2 / 19;101508;2022-10-23 22:41:41:782
-2.5499;2.2122;8.9539;-2.9119;3.1629;8.814;0.0617;0.2074;0.7916;0.4402;-0.0735;-0.2963;1.0;27.68;0.73;-8.17;280.97;-14.42;15.91;2.0;990.79;65.714;35.95827;-83.92442;793.18;NaN;;0.0;663.53326;;2 / 19;102008;2022-10-23 22:41:42:282
-1.9152;3.5396;9.1346;-3.1446;2.9989;8.7914;0.3755;-0.741;0.101;0.1536;0.1248;-0.0119;1.0;29.31;18.02;-12.77;316.15;-17.81;19.68;2.0;990.73;56.372;35.95827;-83.92442;793.18;NaN;;0.0;663.53326;;2 / 19;102508;2022-10-23 22:41:42:782
-4.9714;0.0634;8.3961;-4.232;0.7498;8.8146;1.3149;-2.5166;1.7112;-0.2143;0.976;0.0786;1.0;31.71;29.78;-7.33;321.0;-5.19;26.02;2.0;990.82;70.655;35.95827;-83.92442;793.18;NaN;;0.0;663.53326;;2 / 19;103008;2022-10-23 22:41:43:282
-4.1931;-2.7138;12.1765;-4.5074;-0.6815;8.6827;0.7991;1.44;-2.0797;-1.3966;0.2382;-1.1395;1.0;42.79;30.64;14.16;304.28;3.99;27.44;2.0;990.81;68.298;35.95827;-83.92442;793.18;NaN;;0.0;663.53326;;2 / 19;103509;2022-10-23 22:41:43:783
-3.6571;-0.1615;8.9839;-3.851;-0.2659;9.015;-2.8531;1.4103;-2.2614;-0.3397;-0.0822;0.3287;4.0;35.27;17.96;25.11;293.18;-0.69;21.6;2.0;990.81;60.858;35.95827;-83.92442;793.18;NaN;;0.0;663.53326;;2 / 19;104008;2022-10-23 22:41:44:282
-1.9343;0.6344;13.8153;-0.4727;2.0689;9.5743;-3.2854;-1.6394;-1.6473;0.2858;0.2156;2.3063;8.0;8.31;-4.73;4.91;237.31;-6.05;5.48;2.0;990.88;65.117;35.95827;-83.92442;793.18;NaN;;0.0;663.53326;;2 / 19;104508;2022-10-23 22:41:44:782
-0.6775;1.5526;11.0859;0.0684;1.8934;9.6219;0.1343;0.8577;-1.2724;0.4481;-0.6186;0.2495;8.0;-6.99;7.54;-10.42;40.81;-7.13;5.07;2.0;990.86;68.328;35.95827;-83.92442;793.18;NaN;;0.0;663.53326;;2 / 19;105009;2022-10-23 22:41:45:283
-3.7325;1.3944;8.2609;-2.9498;1.4047;9.2464;-0.7253;-0.4315;0.0143;-0.304;1.1447;1.5051;7.0;21.86;17.79;-22.05;317.38;-7.12;6.83;2.0;990.87;71.477;35.95827;-83.92442;793.18;NaN;;0.0;663.53326;;0 / 19;105509;2022-10-23 22:41:45:783
-2.4802;1.4174;7.8658;-2.8505;1.9066;9.1875;-0.6073;-1.6114;-1.0351;0.713;-0.3086;1.3589;7.0;28.44;1.13;-13.58;276.92;-4.11;19.81;2.0;990.86;52.017;35.95827;-83.92442;793.18;NaN;;0.0;663.53326;;0 / 19;106009;2022-10-23 22:41:46:283
0.3233;2.4622;8.4847;0.3536;3.0152;9.3249;-0.1072;-0.2505;-1.6435;-0.0235;0.0783;1.0563;9.0;-7.95;-35.83;-27.26;161.82;-19.41;0.45;2.0;990.85;71.515;35.95827;-83.92442;793.18;NaN;;0.0;663.53326;;0 / 19;106509;2022-10-23 22:41:46:783
0.2862;3.6389;8.9049;0.4811;3.5163;9.1419;0.2488;-1.2654;0.4664;0.0493;0.3835;0.4646;9.0;-36.04;-50.34;-29.06;142.2;-19.64;-3.39;2.0;990.9;66.903;35.95827;-83.92442;793.18;NaN;;0.0;663.53326;;0 / 19;107009;2022-10-23 22:41:47:283
-2.4144;2.8095;7.2745;-1.5408;2.7405;9.289;1.5868;0.2597;-1.4696;-0.7274;0.9138;-0.1565;7.0;-42.77;-41.64;-35.06;122.35;-20.25;0.42;2.0;990.87;67.457;35.95827;-83.92442;793.18;NaN;;0.0;663.53326;;0 / 19;107509;2022-10-23 22:41:47:783
-0.4143;1.392;8.1939;0.7312;1.8236;9.6078;0.1521;-1.1149;1.7757;0.3461;0.3009;0.3386;2.0;-28.11;-34.33;-43.35;132.45;-7.43;4.22;2.0;990.89;63.503;35.95827;-83.92442;793.18;NaN;;0.0;663.53326;;0 / 19;108009;2022-10-23 22:41:48:283
-0.7816;-0.055;9.9715;0.5485;1.6588;9.6498;0.4236;0.0594;0.0089;-0.5159;0.0087;-0.2517;2.0;-33.68;-27.07;-41.57;121.3;-9.74;-3.25;2.0;990.86;71.683;35.95827;-83.92442;793.18;NaN;;0.0;663.53326;;0 / 19;108508;2022-10-23 22:41:48:782
-0.4346;1.9307;7.9878;-0.4633;1.5628;9.6702;-0.2014;-0.3223;-1.2957;0.513;0.1101;0.3767;0.0;-27.67;-23.4;-45.79;122.32;-5.79;1.17;2.0;990.9;69.521;35.95827;-83.92442;793.18;NaN;;0.0;663.53326;;0 / 19;109009;2022-10-23 22:41:49:283
-1.9932;1.8254;6.7286;-3.0797;0.5057;9.2968;0.492;-1.2955;4.731;0.4166;1.6006;0.7342;0.0;-19.61;-16.82;-50.47;113.17;-2.96;18.33;2.0;990.91;63.116;35.95827;-83.92442;793.18;NaN;;0.0;663.53326;;0 / 18;109508;2022-10-23 22:41:49:782
-1.7776;-0.6954;9.926;-2.6979;-0.3409;9.4221;-0.096;1.0583;-0.0857;0.0933;-0.1178;0.4045;1.0;-5.92;-6.73;-53.72;113.44;2.81;17.27;2.0;990.88;70.602;35.95827;-83.92442;793.18;NaN;;0.0;663.53326;;0 / 18;110009;2022-10-23 22:41:50:283
-2.2504;0.5518;10.5102;-0.9033;1.7252;9.6113;-0.8845;-0.0588;-3.1759;1.1673;-2.0744;-0.5343;2.0;-3.3;4.63;-53.38;69.77;-1.64;15.94;2.0;990.92;61.024;35.95827;-83.92442;793.18;NaN;;0.0;663.53326;;0 / 19;110508;2022-10-23 22:41:50:782
1.1252;1.8817;9.6063;0.7713;2.2521;9.5133;-0.2545;-0.1913;0.7296;0.8816;-0.1397;0.3663;1.0;-10.87;1.61;-50.59;49.11;-6.8;-1.89;2.0;990.95;44.04;35.95827;-83.92442;793.18;NaN;;0.0;663.53326;;0 / 19;111009;2022-10-23 22:41:51:283
2.9638;2.7508;10.2395;1.1672;3.0029;9.2623;0.2997;-0.5116;-0.1508;0.079;0.3344;-0.1956;1.0;-19.61;-0.53;-39.69;48.64;-17.89;-8.64;2.0;990.99;48.317;35.95827;-83.92442;793.18;NaN;;0.0;663.53326;;0 / 19;111508;2022-10-23 22:41:51:782
0.2608;2.1188;10.6119;0.409;2.7184;9.4135;-1.9542;-0.315;-0.8321;0.5628;0.0444;0.7053;2.0;-16.71;1.93;-34.03;58.86;-12.49;-2.29;2.0;991.0;53.876;35.95827;-83.92442;793.18;NaN;;0.0;663.53326;;0 / 19;112009;2022-10-23 22:41:52:283
0.6416;-0.8115;16.5287;-0.0266;1.4492;9.6989;-0.605;0.2039;1.6634;-0.7344;0.3505;0.0948;4.0;-19.5;7.46;-28.09;52.88;-12.42;-3.42;2.0;991.06;49.715;35.95827;-83.92442;793.18;NaN;;0.0;663.53326;;0 / 19;112508;2022-10-23 22:41:52:782
-2.065;0.4346;8.741;-0.6199;2.0477;9.5704;-2.9955;-0.4282;0.5061;-0.0303;0.1265;2.1499;18.0;-21.9;15.83;-30.71;45.31;-12.51;0.93;2.0;991.07;70.641;35.95827;-83.92442;793.18;NaN;;0.0;663.53326;;0 / 19;113008;2022-10-23 22:41:53:282
-3.7205;2.1763;10.2873;-1.3936;3.4387;9.0776;1.498;-0.7707;1.1688;0.036;0.5153;-0.8834;23.0;9.79;25.29;-33.06;346.58;-21.15;2.69;2.0;991.02;69.646;35.95827;-83.92442;793.18;NaN;;0.0;663.53326;;0 / 19;113509;2022-10-23 22:41:53:783
-3.0775;1.4749;14.2555;-2.315;2.879;9.0842;-0.9953;0.0757;1.2166;-0.3063;0.6573;0.937;12.0;6.36;9.49;-31.11;355.67;-17.37;8.48;2.0;991.05;64.482;35.95827;-83.92442;793.18;NaN;;0.0;663.53326;;0 / 19;114008;2022-10-23 22:41:54:282
-2.1595;3.6138;9.8267;-1.7984;4.0693;8.7394;0.8168;-0.5132;-1.5844;-0.5029;0.0631;0.0958;7.0;29.79;24.69;-47.94;336.24;-24.52;11.63;2.0;991.04;68.153;35.95827;-83.92442;793.18;NaN;;0.0;663.53326;;0 / 19;114508;2022-10-23 22:41:54:782
-3.0885;2.2732;10.1342;-1.8187;2.7708;9.2296;-1.8253;-0.6928;0.9513;-0.0486;0.5322;1.6413;14.0;47.7;15.23;-42.26;308.24;-18.12;11.98;2.0;991.06;68.111;35.95827;-83.92442;793.18;NaN;;0.0;663.53326;;0 / 19;115009;2022-10-23 22:41:55:283
-1.5754;2.0662;9.944;-1.2269;3.3289;9.1424;0.1672;-1.0462;-1.581;-0.1416;0.2206;0.5577;25.0;48.92;-4.46;-32.64;282.2;-19.84;7.64;2.0;991.03;69.591;35.95827;-83.92442;793.18;NaN;;0.0;663.53326;;0 / 19;115508;2022-10-23 22:41:55:782
-0.8163;2.7221;8.6151;-0.7453;2.2653;9.5123;0.1597;0.6788;-1.2675;-0.2048;0.0484;0.3961;19.0;44.16;-16.18;-32.46;260.0;-13.43;5.59;2.0;991.0;67.374;35.95827;-83.92442;793.18;NaN;;0.0;663.53326;;0 / 19;116009;2022-10-23 22:41:56:283
-1.5263;0.8979;7.6935;-0.2767;2.4761;9.4849;-0.7356;-1.8138;0.2129;0.2698;0.0567;0.8927;6.0;43.59;-24.34;-28.65;248.9;-12.85;1.15;2.0;990.99;68.272;35.95827;-83.92442;793.18;NaN;;0.0;663.53326;;0 / 19;116509;2022-10-23 22:41:56:783
2.0136;2.8478;9.2542;0.4879;2.5025;9.4694;-0.2294;-1.5606;1.6161;0.3958;-0.2325;0.2035;2.0;35.66;-41.94;-25.09;226.15;-13.47;-1.69;2.0;990.99;70.904;35.95827;-83.92442;793.18;NaN;;0.0;663.53326;;0 / 19;117008;2022-10-23 22:41:57:282
1.7393;3.9706;8.5648;0.7613;3.2827;9.2095;1.2911;0.8539;-0.4002;0.6714;-0.1516;-0.2646;2.0;31.01;-50.51;-23.03;217.04;-15.59;-5.36;2.0;991.02;69.332;35.95827;-83.92442;793.18;NaN;;0.0;663.53326;;0 / 19;117508;2022-10-23 22:41:57:782
-0.3568;3.1184;7.6636;0.3574;2.9292;9.3521;-1.5279;0.7941;-3.468;-0.7313;-0.3305;-0.1064;2.0;34.8;-48.26;-14.34;221.64;-21.63;-3.07;2.0;991.03;65.232;35.95827;-83.92442;793.18;NaN;;0.0;663.53326;;0 / 19;118009;2022-10-23 22:41:58:283
0.5016;3.0069;9.44;-0.1091;2.205;9.5549;-0.1045;1.3753;-2.4635;-0.368;-0.3718;-0.2426;2.0;39.79;-34.26;-13.84;233.36;-13.59;-0.98;2.0;990.99;69.244;35.95827;-83.92442;793.18;NaN;;0.0;663.53326;;0 / 18;118508;2022-10-23 22:41:58:782
-1.0642;3.0476;6.8853;-0.5225;2.8351;9.3733;-0.2842;-0.6117;1.0961;-0.0428;-0.3563;-0.2109;1.0;33.75;-29.51;-16.58;234.97;-17.1;3.27;2.0;991.0;67.478;35.95827;-83.92442;793.18;NaN;;0.0;663.53326;;0 / 18;119010;2022-10-23 22:41:59:284
-1.8781;0.4944;10.3077;-1.3547;1.9994;9.5046;0.7448;1.2359;-0.304;0.579;0.2598;0.319;1.0;20.16;-31.33;-21.11;213.4;-11.76;8.11;2.0;991.13;56.864;35.95827;-83.92442;793.18;NaN;;0.0;663.53326;;0 / 19;119509;2022-10-23 22:41:59:783
0.1448;3.7624;11.5935;-1.7169;3.0769;9.1518;0.0536;-1.1144;0.0972;0.467;0.1245;0.1846;1.0;12.66;-33.02;-22.63;200.03;-16.58;9.69;2.0;991.18;71.994;35.95827;-83.92442;793.18;NaN;;0.0;663.53326;;0 / 19;120009;2022-10-23 22:42:00:283
-0.0969;1.6866;10.5317;-1.8367;2.5445;9.291;-0.944;-0.6682;1.5768;0.2795;-0.6123;0.2806;1.0;8.93;-31.88;-28.84;187.91;-15.04;11.18;2.0;991.12;70.979;35.95827;-83.92442;793.18;NaN;;0.0;663.53326;;0 / 19;120508;2022-10-23 22:42:00:782
-0.9852;1.3813;10.7064;-1.0852;2.7859;9.3398;-1.2728;-0.4107;-0.6413;0.2805;-0.1095;-0.5855;1.0;1.88;-30.9;-36.6;175.3;-15.99;7.6;2.0;991.21;69.765;35.95827;-83.92442;793.18;NaN;;0.0;663.53326;;0 / 19;121010;2022-10-23 22:42:01:284
-3.609;2.9411;8.1266;-1.5701;1.2174;9.6033;-0.0985;0.15;1.1371;-0.891;1.7123;0.5157;1.0;5.23;-20.85;-42.99;172.62;-7.13;9.29;2.0;991.2;51.668;35.95827;-83.92442;793.18;NaN;;0.0;663.53326;;0 / 19;121508;2022-10-23 22:42:01:782
-2.2313;-2.7305;13.4189;-0.6304;0.6482;9.7649;-0.8622;1.1819;-0.2223;-0.9141;-1.0901;-0.0998;3.0;6.83;-14.27;-45.69;201.07;-8.71;5.42;2.0;991.21;70.595;35.95827;-83.92442;793.18;NaN;;0.0;663.53326;;0 / 19;122009;2022-10-23 22:42:02:283
-1.4725;-2.2361;16.2153;-1.2769;1.393;9.6229;-0.3112;-3.7524;6.5026;-0.0883;-0.1649;2.6221;10.0;2.04;-9.6;-48.69;161.17;-3.28;5.2;2.0;991.27;50.161;35.95827;-83.92442;793.18;NaN;;0.0;663.53326;;0 / 19;122508;2022-10-23 22:42:02:782
-0.0766;2.1679;12.0688;-2.2451;1.4493;9.4355;-0.309;-0.5025;1.6674;-0.5586;-0.4958;1.5819;8.0;4.33;-23.57;-47.38;148.79;-20.65;9.19;2.0;991.24;69.324;35.95827;-83.92442;793.18;NaN;;0.0;663.53326;;0 / 19;123008;2022-10-23 22:42:03:282
-1.9295;2.3414;5.4969;-2.0787;3.1892;9.0376;-0.3491;-4.8388;2.4627;1.0905;0.2527;1.6735;5.0;-0.64;-32.44;-41.62;157.6;-11.39;11.85;2.0;991.2;67.471;35.95827;-83.92442;793.18;NaN;;0.0;663.53326;;0 / 19;123508;2022-10-23 22:42:03:782
-6.9392;-1.8314;11.7933;-3.5849;1.1183;9.0591;0.1907;0.409;1.1539;0.1384;1.3654;0.3997;12.0;-9.09;-37.16;-32.27;147.06;-14.59;18.55;2.0;991.26;69.729;35.95827;-83.92442;793.18;NaN;;0.0;663.53326;;0 / 19;124009;2022-10-23 22:42:04:283
-4.1369;2.6719;6.8172;-4.297;2.8977;8.3252;-1.3446;-3.1912;3.8824;-0.3596;-0.0721;1.1565;20.0;-9.17;-43.71;-28.35;151.99;-11.58;26.9;2.0;991.16;68.261;35.95827;-83.92442;793.18;NaN;;0.0;663.53326;;0 / 18;124508;2022-10-23 22:42:04:782
-4.6193;0.6691;10.4635;-4.0938;2.6188;8.5178;-0.2103;0.2096;0.2396;0.0503;-0.2276;0.2588;18.0;-26.29;-41.16;-30.49;133.62;-16.61;26.51;2.0;991.22;65.063;35.95827;-83.92442;793.18;NaN;;0.0;663.53326;;0 / 18;125008;2022-10-23 22:42:05:282
-3.2584;1.9044;8.6617;-3.0192;2.231;9.0596;0.3655;0.289;-1.2998;-0.2613;0.2351;0.1131;12.0;-41.62;-36.69;-33.43;122.53;-12.87;20.78;2.0;991.25;67.901;35.95827;-83.92442;793.18;NaN;;0.0;663.53326;;0 / 19;125509;2022-10-23 22:42:05:783
-2.9794;2.892;6.8339;-3.0027;2.4289;9.0141;0.7973;-0.0822;0.5981;-0.0919;-0.2229;-0.1945;3.0;-49.5;-33.43;-33.09;115.9;-14.6;18.97;2.0;991.27;67.882;35.95827;-83.92442;793.18;NaN;;0.0;663.53326;;0 / 19;126008;2022-10-23 22:42:06:282
-3.9239;0.5626;9.6661;-3.2058;-0.139;9.2668;0.227;1.3539;0.1606;-0.2243;-0.5219;0.3641;3.0;-53.38;-39.32;-32.91;122.77;0.81;19.08;2.0;991.27;66.548;35.95827;-83.92442;793.18;NaN;;0.0;663.53326;;0 / 19;126509;2022-10-23 22:42:06:783
-2.4562;-0.364;11.0022;-2.9122;1.3079;9.2725;0.0599;0.5605;-2.9289;0.6966;0.7507;0.0668;2.0;-53.04;-36.75;-33.19;119.96;-7.11;15.65;2.0;991.24;67.669;35.95827;-83.92442;793.18;NaN;;0.0;663.53326;;0 / 19;127009;2022-10-23 22:42:07:283
-2.5271;-0.5602;9.4496;-2.7176;-0.7847;9.3899;-1.7197;-0.2215;1.4699;0.5199;-0.5069;0.0719;2.0;-45.09;-15.24;-28.28;107.52;4.59;16.14;2.0;991.31;58.035;35.95827;-83.92442;793.18;NaN;;0.0;663.53326;;0 / 19;127509;2022-10-23 22:42:07:783
-2.6779;0.3592;7.3917;-2.5821;1.3227;9.3677;1.1337;-0.7282;-0.1687;0.4268;-0.2057;-0.6486;1.0;-34.09;-1.05;-22.65;90.81;-2.01;15.82;2.0;991.33;65.074;35.95827;-83.92442;793.18;NaN;;0.0;663.53326;;0 / 19;128008;2022-10-23 22:42:08:282
-0.3269;0.7959;9.3861;-0.9191;1.5764;9.6354;0.1027;-0.9706;-1.1499;0.7523;-0.2088;0.9794;2.0;-28.95;16.56;-28.31;60.61;-2.63;6.86;2.0;991.39;71.211;35.95827;-83.92442;793.18;NaN;;0.0;663.53326;;0 / 19;128508;2022-10-23 22:42:08:782
-1.6615;0.9051;9.3622;-0.8878;1.6618;9.624;0.1323;0.294;-2.3304;0.4167;-0.1481;-0.3875;2.0;-29.89;22.99;-33.24;53.83;-5.32;9.12;2.0;991.39;68.309;35.95827;-83.92442;793.18;NaN;;0.0;663.53326;;0 / 19;129008;2022-10-23 22:42:09:282
0.5973;3.6966;9.95;-0.4141;2.3629;9.5087;-0.2078;-0.8053;-0.4942;0.8478;-0.2644;0.912;2.0;-34.28;8.87;-31.8;70.67;-8.4;6.0;2.0;991.38;69.768;35.95827;-83.92442;793.18;NaN;;0.0;663.53326;;0 / 19;129508;2022-10-23 22:42:09:782
2.339;4.6708;13.6774;0.3514;3.8635;9.0067;0.0782;-1.2411;0.5286;0.3441;-0.3761;-0.542;3.0;-26.46;6.43;-23.38;66.87;-15.9;3.3;2.0;991.43;69.09;35.95827;-83.92442;793.18;NaN;;0.0;663.53326;;0 / 19;130008;2022-10-23 22:42:10:282
-1.1623;3.0835;8.6605;0.1251;3.4639;9.1736;0.4096;-1.4121;3.7812;-0.3851;-0.0915;0.9043;4.0;-22.65;-8.74;-8.83;100.34;-24.71;-1.58;2.0;991.37;67.21;35.95827;-83.92442;793.18;NaN;;0.0;663.53326;;0 / 18;130508;2022-10-23 22:42:10:782
-0.5483;3.4618;8.0943;-0.2128;4.3609;8.7811;-0.782;0.3437;1.152;0.1284;-0.0715;0.2671;8.0;-39.81;-7.73;4.86;104.24;-25.64;2.37;2.0;991.46;70.535;35.95827;-83.92442;793.18;NaN;;0.0;663.53326;;0 / 18;131008;2022-10-23 22:42:11:282
-0.0431;3.3972;9.3323;-0.6304;3.6129;9.095;-0.2661;-0.4386;-0.1144;-0.6289;0.6916;1.0956;9.0;-38.53;7.03;-2.74;80.23;-23.93;3.18;2.0;991.38;55.529;35.95827;-83.92442;793.18;NaN;;0.0;663.53326;;0 / 19;131509;2022-10-23 22:42:11:783
-2.9124;2.5822;10.4874;-3.0472;3.8034;8.5099;-0.9755;-1.9717;-0.7362;-0.2872;0.3633;1.2112;14.0;-24.9;20.53;-15.34;53.44;-22.86;21.05;2.0;991.45;69.297;35.95827;-83.92442;793.18;NaN;;0.0;663.53326;;0 / 19;132008;2022-10-23 22:42:12:282