ACCELEROMETER X (m/s²);ACCELEROMETER Y (m/s²);ACCELEROMETER Z (m/s²);GRAVITY X (m/s²);GRAVITY Y (m/s²);GRAVITY Z (m/s²);LINEAR ACCELERATION X (m/s²);LINEAR ACCELERATION Y (m/s²);LINEAR ACCELERATION Z (m/s²);GYROSCOPE X (rad/s);GYROSCOPE Y (rad/s);GYROSCOPE Z (rad/s);LIGHT (lux);MAGNETIC FIELD X (μT);MAGNETIC FIELD Y (μT);MAGNETIC FIELD Z (μT);ORIENTATION Z (azimuth °);ORIENTATION X (pitch °);ORIENTATION Y (roll °);PROXIMITY (i);ATMOSPHERIC PRESSURE (hPa);SOUND LEVEL (dB);LOCATION Latitude : ;LOCATION Longitude : ;LOCATION Altitude ( m);LOCATION Altitude-google ( m);LOCATION Altitude-atmospheric pressure ( m);LOCATION Speed ( Kmh);LOCATION Accuracy ( m);LOCATION ORIENTATION (°);Satellites in range;Time since start in ms ;YYYY-MO-DD HH-MI-SS_SSS
-0.7217;0.4693;11.0752;-2.3279;2.4986;9.1928;-0.6597;0.7987;-0.3973;-1.3886;-1.2444;0.1381;139.0;11.23;-36.17;-21.26;189.01;-18.88;17.43;2.0;988.37;65.441;35.9583;-83.924736;803.23;NaN;;;137.84515;;0 / 18;7;2022-10-23 22:46:14:370
-1.0343;1.5622;8.4823;-1.6709;0.7616;9.6332;-0.1278;0.6334;-0.8541;-0.265;-0.1189;0.1052;141.0;6.53;-31.22;-29.34;183.18;-7.61;10.71;2.0;988.43;64.88;35.9583;-83.924736;803.23;NaN;;;137.84515;;0 / 18;509;2022-10-23 22:46:14:872
-3.5563;-0.3281;7.8826;-1.7412;-0.3177;9.6456;-1.3929;-1.298;-0.5398;-0.428;0.2574;-0.7901;182.0;7.2;-26.06;-35.18;181.42;1.86;10.23;2.0;988.4;59.437;35.9583;-83.924736;803.23;NaN;;;137.84515;;0 / 18;1008;2022-10-23 22:46:15:371
-0.7253;-1.0152;14.234;-2.3322;-1.9932;9.3144;-1.2208;-0.554;3.0067;-1.3061;0.7213;-0.9409;209.0;9.79;-25.13;-37.12;178.38;4.31;16.3;2.0;988.6;67.854;35.9583;-83.924736;803.23;NaN;;;137.84515;;0 / 18;1507;2022-10-23 22:46:15:870
-0.4537;1.5191;7.5209;0.7174;1.1025;9.718;-1.4115;-1.0934;-1.1405;-0.0286;-0.8456;0.4335;177.0;5.72;-28.16;-33.26;199.19;-6.45;-4.22;2.0;988.51;72.391;35.95828;-83.924515;797.74;NaN;;0.0;26.12158;;0 / 18;2008;2022-10-23 22:46:16:371
2.8047;1.9283;6.9954;3.1614;2.7597;8.8634;2.1243;-2.4612;6.6678;-0.6392;-0.3249;1.3982;104.0;-12.17;-37.82;-25.13;168.58;-17.97;-13.97;2.0;988.51;68.282;35.95828;-83.924515;797.74;NaN;;0.0;26.12158;;0 / 18;2508;2022-10-23 22:46:16:871
-3.6305;-0.1484;7.7916;-3.5264;1.0063;9.0952;-0.4598;-1.4635;0.4684;-0.8329;2.9455;2.6796;32.0;-27.77;-42.88;-19.12;142.54;-10.25;8.12;2.0;988.55;68.699;35.95828;-83.924484;782.98;NaN;;0.0;18.463268;;10 / 18;3007;2022-10-23 22:46:17:370
-5.4802;-5.2418;9.9799;-5.16;-3.3069;7.6557;0.8189;-1.0476;6.6985;0.6651;-0.5495;-0.6638;19.0;-30.75;-5.29;-42.43;101.12;21.26;37.62;2.0;988.59;67.986;35.95828;-83.924484;782.98;NaN;;0.0;18.463268;;10 / 18;3508;2022-10-23 22:46:17:871
-4.0113;-0.5841;7.29;-3.8781;-0.5772;8.9888;-0.3912;-0.6518;-2.008;0.4118;-0.5496;0.144;11.0;-28.31;30.04;-48.04;60.72;6.9;26.82;2.0;988.5;66.498;35.95827;-83.9245;793.52;NaN;;0.0;15.882357;;10 / 18;4009;2022-10-23 22:46:18:372
-4.8218;0.6488;8.0405;-4.8555;-0.2228;8.5173;0.6205;0.1955;0.1891;-0.724;-0.0336;0.0271;11.0;-25.14;19.97;-50.94;67.7;1.3;29.69;2.0;988.47;71.989;35.95827;-83.9245;793.52;NaN;;0.0;15.882357;;10 / 18;4508;2022-10-23 22:46:18:871
-6.2318;0.8788;7.381;-6.7528;0.7492;7.0717;-0.9116;-0.8498;2.5822;1.2492;0.3328;0.1221;9.0;-9.06;22.65;-50.55;59.72;-2.63;43.73;2.0;988.57;71.668;35.95828;-83.92448;797.43;NaN;;0.0;13.839068;;10 / 18;5007;2022-10-23 22:46:19:370
-4.1477;5.1245;0.0491;-6.649;5.5909;4.5501;-0.4328;-1.2641;-1.7593;3.3554;-1.6564;-0.895;6.0;3.88;2.63;-45.94;62.24;-29.87;52.85;2.0;988.56;69.401;35.95828;-83.92448;797.43;NaN;;0.0;13.839068;;10 / 18;5508;2022-10-23 22:46:19:871
-10.1163;5.152;-1.1157;-9.6624;1.5829;0.5509;-3.9605;1.1438;0.0239;-2.0327;-1.104;0.6706;5.0;11.87;-20.14;-20.78;130.97;-9.29;86.74;2.0;988.58;67.494;35.958286;-83.92446;793.69;NaN;;0.0;13.360365;;10 / 18;6008;2022-10-23 22:46:20:371
-9.6386;1.0463;3.4522;-9.2591;2.5811;1.9436;-1.9038;-0.4568;0.6709;1.5581;1.1671;-0.8214;4.0;21.02;-11.06;-8.61;136.38;-15.26;78.15;2.0;988.65;67.454;35.958286;-83.92446;793.69;NaN;;0.0;13.360365;;10 / 18;6508;2022-10-23 22:46:20:871
-7.0161;4.2341;-1.6627;-9.3772;1.7499;2.2751;-3.4529;0.4445;4.9304;0.4248;-1.6772;1.0355;5.0;32.33;4.63;-6.47;353.42;-6.38;77.64;2.0;988.64;69.826;35.95829;-83.92446;794.24;NaN;;0.0;13.033313;;10 / 18;7007;2022-10-23 22:46:21:370
-4.5392;11.2415;4.5787;-0.9555;4.8264;8.4831;-2.6666;2.3212;-6.7318;0.1723;1.0477;0.6864;6.0;19.01;-9.94;-41.87;6.97;-40.95;27.78;2.0;988.66;65.948;35.95829;-83.92446;794.24;NaN;;0.0;13.033313;;10 / 18;7508;2022-10-23 22:46:21:871
-4.5248;5.8451;9.8061;0.9095;8.0709;5.4958;2.9297;2.8456;-5.5542;-1.3618;2.5262;0.9715;11.0;-24.13;-23.12;-48.06;28.53;-55.39;-9.4;2.0;988.7;68.845;35.95829;-83.92446;794.24;NaN;;0.0;13.033313;;10 / 18;8008;2022-10-23 22:46:22:371
2.7808;6.9799;6.5468;-1.2899;3.9521;8.8818;0.9862;3.71;-0.0721;0.0987;1.3217;0.1555;19.0;-19.07;-18.96;-49.67;86.8;-23.77;8.26;2.0;988.69;69.625;35.95829;-83.92446;794.24;NaN;;0.0;13.033313;;10 / 18;8507;2022-10-23 22:46:22:870
-4.27;6.7262;2.1858;-1.5865;8.3129;4.9546;-0.5496;-2.7381;-3.7612;0.3843;0.6577;0.7797;79.0;-4.63;-14.19;-51.26;29.35;-59.66;16.28;2.0;988.71;65.872;35.95829;-83.92446;794.24;NaN;;0.0;13.033313;;10 / 18;9007;2022-10-23 22:46:23:370
1.057;4.6062;6.5192;0.1356;3.8982;8.9976;-0.0811;-0.3653;0.2765;0.7265;-0.4226;0.8889;70.0;9.99;-11.53;-42.41;320.0;-25.87;4.65;2.0;988.67;59.652;35.95829;-83.92446;794.24;NaN;;0.0;13.033313;;10 / 18;9508;2022-10-23 22:46:23:871
0.2512;4.4841;7.0902;0.2352;5.4348;8.1595;-0.1057;-0.5106;-0.342;0.2414;-0.0274;0.2991;57.0;19.29;-5.49;-36.96;306.94;-31.79;-1.45;2.0;988.64;69.957;35.95829;-83.92446;794.24;NaN;;0.0;13.033313;;10 / 18;10008;2022-10-23 22:46:24:371
-2.8131;5.7625;5.9865;-0.5037;5.4523;8.1357;-0.2891;-1.6018;0.8925;0.3072;0.9972;0.5322;30.0;29.18;-7.82;-23.31;284.48;-33.78;3.54;2.0;988.67;67.697;35.95829;-83.92446;794.24;NaN;;0.0;13.033313;;10 / 18;10508;2022-10-23 22:46:24:871
-2.4778;4.9666;6.792;-3.4444;6.5528;6.4318;-0.6731;-1.1832;0.8928;-0.0667;-1.1229;-0.5219;11.0;32.61;-13.93;-2.12;280.31;-44.03;36.27;2.0;988.73;66.657;35.95829;-83.92446;794.24;NaN;;0.0;13.033313;;10 / 18;11008;2022-10-23 22:46:25:371
-4.41;5.1209;6.7214;-4.9907;5.4697;6.43;0.5574;0.214;-0.7084;-0.3175;0.3205;0.409;0.0;28.46;-23.74;8.49;242.04;-32.9;37.26;2.0;988.63;66.924;35.95829;-83.92446;794.24;NaN;;0.0;13.033313;;10 / 18;11507;2022-10-23 22:46:25:870
-5.7111;3.8438;5.6046;-5.1747;5.4201;6.3258;-0.1799;-1.3444;0.4615;0.108;0.0615;0.018;0.0;30.62;-25.46;4.35;246.2;-33.55;39.28;2.0;988.68;65.147;35.95829;-83.92446;794.24;NaN;;0.0;13.033313;;10 / 18;12008;2022-10-23 22:46:26:371
-1.2987;5.1736;6.0978;-3.6793;5.6624;7.1113;-1.0063;-0.6257;2.5217;-1.0228;-0.2878;-0.6569;0.0;28.35;-28.39;-4.43;239.84;-35.27;27.36;2.0;988.65;68.247;35.95829;-83.92446;794.24;NaN;;0.0;13.033313;;10 / 18;12507;2022-10-23 22:46:26:870
-5.1006;1.4103;11.074;-3.4416;1.6671;9.0303;-0.8003;1.3599;-1.3583;-1.1864;-0.0445;-0.7996;0.0;26.4;-28.16;-9.58;240.68;-36.02;26.2;2.0;988.72;70.121;35.95829;-83.92446;794.24;NaN;;0.0;13.033313;;6 / 18;13007;2022-10-23 22:46:27:370
-3.6751;2.5534;7.4647;-5.3482;1.0423;8.1536;0.1167;0.5666;1.299;0.3422;0.5023;-1.157;2.0;27.17;-16.46;-15.54;231.01;-3.77;25.22;2.0;988.71;68.545;35.95829;-83.92446;794.24;NaN;;0.0;13.033313;;6 / 18;13507;2022-10-23 22:46:27:870
-6.7262;2.394;5.904;-5.5658;1.0912;8.0001;-5.4223;-1.9234;3.8986;-0.5177;0.173;-0.0974;1.0;30.77;-16.63;3.26;240.77;-6.39;34.83;2.0;988.72;66.646;35.95829;-83.92446;794.24;NaN;;0.0;13.033313;;6 / 18;14008;2022-10-23 22:46:28:371
-4.0866;2.6492;5.4144;-5.1028;0.4481;8.3625;-2.8948;-0.7594;4.9196;1.8345;0.8778;-0.4583;1.0;34.89;-17.59;13.84;244.54;-2.62;31.39;2.0;988.84;69.18;35.95829;-83.92446;794.24;NaN;;0.0;13.033313;;6 / 18;14507;2022-10-23 22:46:28:870
-9.8073;2.0901;5.6417;-6.8544;2.8356;6.4146;-0.3207;0.5661;0.8298;-0.6549;0.3909;-0.4236;1.0;38.64;-9.81;8.51;263.69;-15.73;46.04;2.0;988.86;68.232;35.95829;-83.92446;794.24;NaN;;0.0;13.033313;;4 / 18;15007;2022-10-23 22:46:29:370
-4.3322;3.274;2.3749;-7.4691;3.8784;5.034;1.9264;-0.0069;-2.3515;0.067;-0.0708;0.349;1.0;28.35;-6.09;7.82;269.85;-17.08;57.54;2.0;988.86;67.223;35.95829;-83.92446;794.24;NaN;;0.0;13.033313;;4 / 18;15507;2022-10-23 22:46:29:870
-17.8337;7.0292;5.2478;-7.2962;5.321;3.824;1.9543;0.7;-4.3465;-0.5654;0.1736;0.8237;1.0;10.29;-21.6;0.75;200.77;-39.68;70.93;2.0;988.96;69.633;35.958298;-83.92445;795.11;NaN;;0.0;51.669678;;4 / 18;16007;2022-10-23 22:46:30:370
-8.5457;4.9008;4.7318;-5.5179;6.6057;4.6998;-1.3452;0.1761;0.5814;1.1301;0.0723;0.4834;2.0;5.42;-35.49;-1.88;184.38;-42.35;49.58;2.0;988.94;72.254;35.958298;-83.92445;795.11;NaN;;0.0;51.669678;;4 / 18;16508;2022-10-23 22:46:30:871
-11.0154;7.0424;3.0308;-5.6847;7.7696;1.8675;-3.5224;0.9627;0.4712;-1.9961;0.2036;0.6655;5.0;6.75;-40.65;-3.69;175.08;-52.4;71.81;2.0;988.83;73.383;35.958298;-83.92445;795.11;NaN;;0.0;51.669678;;3 / 18;17008;2022-10-23 22:46:31:371
-4.1142;5.7099;8.5337;-3.0887;6.6378;6.5245;-1.6156;-0.687;1.4859;-0.3087;0.0021;-0.1626;13.0;-0.26;-37.01;-21.6;140.34;-44.64;28.78;2.0;988.93;69.754;35.958298;-83.92445;795.11;NaN;;0.0;51.669678;;3 / 18;17507;2022-10-23 22:46:31:870
-2.4287;3.1065;12.5486;-1.0589;5.0775;8.3227;0.1553;0.4005;0.6874;0.3594;0.3169;0.4076;14.0;-21.6;-31.65;-33.71;112.33;-31.98;4.55;2.0;988.89;41.93;35.958298;-83.92445;795.11;NaN;;0.0;51.669678;;4 / 18;18008;2022-10-23 22:46:32:371
-0.6727;3.2201;10.6609;-0.2596;4.2773;8.8209;-0.1562;-0.4098;1.2342;-0.3961;-0.1742;0.2763;18.0;-23.94;-20.76;-43.82;90.05;-25.86;1.69;2.0;988.91;40.21;35.958298;-83.92445;795.11;NaN;;0.0;51.669678;;4 / 18;18509;2022-10-23 22:46:32:872
-3.2142;2.9112;8.8726;-2.5736;4.134;8.5122;-1.0716;-1.5771;0.6193;-0.8888;1.0702;1.5819;10.0;-14.98;-14.36;-47.55;76.21;-26.74;15.01;2.0;988.86;71.424;35.958298;-83.92445;795.11;NaN;;0.0;51.669678;;6 / 18;19007;2022-10-23 22:46:33:370
-3.0344;4.0723;9.3873;-2.5987;4.1755;8.4842;-0.2108;0.4492;-0.239;-0.1144;0.0068;0.2376;3.0;6.41;-7.13;-48.43;30.8;-25.2;17.03;2.0;988.79;70.414;35.958298;-83.92445;795.11;NaN;;0.0;51.669678;;6 / 18;19509;2022-10-23 22:46:33:872
-2.5654;2.7616;7.7833;-2.9484;3.7681;8.5603;-0.0963;-0.6099;-1.0226;-0.2154;0.3584;0.5532;2.0;10.26;-8.03;-44.51;22.33;-22.68;17.81;2.0;988.84;62.821;35.958298;-83.92445;795.11;NaN;;0.0;51.669678;;7 / 18;20008;2022-10-23 22:46:34:371
-4.1489;3.7134;7.9184;-4.0531;4.2443;7.8568;0.7021;-0.2831;0.784;0.5605;-0.501;-0.6709;2.0;17.59;-11.25;-34.82;337.77;-21.6;24.69;2.0;988.92;66.785;35.958298;-83.92445;795.11;NaN;;0.0;51.669678;;7 / 18;20507;2022-10-23 22:46:34:870
-2.7544;3.3278;4.7079;-4.0899;5.4915;7.0204;-1.1471;-2.6405;-0.3766;-0.2014;0.3202;0.7521;2.0;22.37;-18.0;-24.97;281.93;-31.29;28.93;2.0;988.92;54.581;35.958298;-83.92445;795.11;NaN;;0.0;51.669678;;8 / 18;21008;2022-10-23 22:46:35:371
-7.2135;4.3573;7.9771;-3.6615;5.3871;7.331;0.6079;-0.2797;-0.4324;0.3677;-0.1888;-0.1226;2.0;21.19;-21.13;-19.18;246.07;-30.72;26.5;2.0;989.0;66.398;35.958298;-83.92445;795.11;NaN;;0.0;51.669678;;8 / 18;21508;2022-10-23 22:46:35:871
-4.8171;3.9861;9.0712;-5.6205;4.3248;6.7732;1.4561;-0.1146;-2.5445;-0.5169;0.9609;0.2578;2.0;22.86;-12.38;-21.19;303.45;-26.17;39.69;2.0;988.99;67.513;35.958298;-83.92445;795.11;NaN;;0.0;51.669678;;8 / 18;22007;2022-10-23 22:46:36:370
-3.8342;2.9471;6.0464;-4.1675;4.3239;7.7528;0.5464;-0.6458;-3.0262;1.0887;-0.4232;-0.1737;3.0;19.93;-0.58;-27.56;342.88;-26.16;28.26;2.0;988.96;67.35;35.958298;-83.92445;795.11;NaN;;0.0;51.669678;;8 / 18;22507;2022-10-23 22:46:36:870
-3.6293;3.4594;9.8818;-4.3787;4.131;7.7416;1.6333;-0.6461;-2.2121;-1.7072;0.9887;0.1054;2.0;15.51;-2.66;-32.14;8.43;-24.91;29.49;2.0;988.94;69.904;35.958298;-83.92445;795.11;NaN;;0.0;51.669678;;8 / 18;23008;2022-10-23 22:46:37:371
-6.3156;1.5072;10.82;-3.7292;3.3012;8.4478;1.0702;0.1253;-2.2035;0.3899;-0.4941;-0.2643;2.0;15.94;4.37;-31.52;358.58;-17.14;26.0;2.0;989.0;46.905;35.958298;-83.92445;795.11;NaN;;0.0;51.669678;;8 / 18;23507;2022-10-23 22:46:37:870
-2.0626;0.6045;14.6172;-3.0442;0.8748;9.2811;0.7944;0.6706;-2.7333;-2.3815;-0.8157;0.3315;2.0;9.6;8.33;-33.28;14.59;-15.55;24.18;2.0;989.06;50.178;35.958298;-83.92445;795.11;NaN;;0.0;51.669678;;6 / 18;24007;2022-10-23 22:46:38:370
-8.9037;0.303;12.2865;-3.6285;1.895;8.9114;-2.5626;0.2683;1.0132;-0.0467;0.2393;0.0247;4.0;-0.54;18.41;-35.66;31.11;-11.14;22.15;2.0;989.08;74.197;35.958298;-83.92445;795.11;NaN;;0.0;51.669678;;6 / 18;24507;2022-10-23 22:46:38:870
-2.0148;-0.1196;13.5888;-1.4003;1.9353;9.5113;-0.7404;-0.8234;1.1935;-0.7593;0.1032;1.1262;10.0;-4.87;24.84;-41.51;25.66;-13.93;15.69;2.0;989.14;70.375;35.958298;-83.92445;795.11;NaN;;0.0;51.669678;;5 / 18;25008;2022-10-23 22:46:39:371
-1.841;1.7357;10.4133;-0.8995;3.0391;9.2804;-0.8585;-0.2954;0.5183;-0.3731;0.203;-0.2762;13.0;-5.62;18.83;-42.21;18.01;-18.05;5.54;2.0;989.11;42.026;35.958298;-83.92445;795.11;NaN;;0.0;51.669678;;5 / 18;25508;2022-10-23 22:46:39:871
-4.6086;3.6173;7.1273;-3.11;3.4894;8.621;-2.6869;-1.5005;3.2832;-0.3082;0.6889;0.8039;13.0;12.96;14.79;-35.85;357.45;-20.35;18.03;2.0;989.06;71.224;35.958298;-83.92445;795.11;NaN;;0.0;51.669678;;4 / 18;26007;2022-10-23 22:46:40:370
-2.9435;3.1663;7.0122;-3.7448;4.0637;8.1014;0.3504;-0.3075;0.3285;0.076;0.1747;0.0509;11.0;32.85;5.85;-27.22;318.9;-24.48;24.81;2.0;989.11;40.79;35.958298;-83.92445;795.11;NaN;;0.0;51.669678;;4 / 18;26507;2022-10-23 22:46:40:870
-1.1145;3.7971;7.3451;-3.5402;3.748;8.342;1.7184;-0.2821;-1.5867;-0.1238;0.2632;0.6271;10.0;32.81;-3.51;-27.77;299.27;-21.93;23.32;2.0;989.15;69.106;35.958298;-83.92445;795.11;NaN;;0.0;51.669678;;3 / 18;27008;2022-10-23 22:46:41:371
-4.0041;3.4463;8.3483;-3.9859;2.2545;8.6718;-0.5188;1.1317;0.3915;0.1264;-0.2679;0.0844;9.0;28.46;-6.62;-28.65;278.77;-13.37;25.12;2.0;989.13;66.956;35.958298;-83.92445;795.11;NaN;;0.0;51.669678;;3 / 18;27507;2022-10-23 22:46:41:870
-1.0714;2.8047;10.7399;-2.3747;1.8471;9.3338;-1.2588;3.2691;0.5737;-1.4253;-1.2934;0.1258;7.0;24.73;-5.68;-33.06;274.59;-10.86;14.27;2.0;989.17;65.67;35.958298;-83.92445;795.11;NaN;;0.0;51.669678;;3 / 16;28008;2022-10-23 22:46:42:371
-1.5945;2.7724;9.0999;-2.7435;0.3232;9.4095;-1.0522;0.8305;2.3208;-0.0653;-0.0636;0.853;6.0;21.06;-1.03;-39.3;272.65;-1.89;16.26;2.0;989.11;65.289;35.958298;-83.92445;795.11;NaN;;0.0;51.669678;;3 / 16;28507;2022-10-23 22:46:42:870
-3.4295;1.1994;7.5532;-2.3986;1.5114;9.3879;-0.9206;-1.0546;-1.0807;-0.2039;0.8917;1.6615;1.0;26.34;-7.39;-35.61;268.07;-8.87;14.33;2.0;989.16;72.375;35.958298;-83.92445;795.11;NaN;;0.0;51.669678;;3 / 18;29007;2022-10-23 22:46:43:370
-3.6329;2.7401;7.7785;-3.6526;1.7057;8.9398;0.0916;0.948;-1.0461;-0.1959;0.1692;0.8081;2.0;18.38;-23.53;-31.39;196.63;-9.54;21.62;2.0;989.09;69.042;35.958298;-83.92445;795.11;NaN;;0.0;51.669678;;3 / 18;29508;2022-10-23 22:46:43:871
-4.1022;1.3789;7.8598;-3.6957;2.5693;8.7127;-1.7371;-2.0933;3.2629;0.333;0.0537;-0.3021;2.0;7.59;-26.94;-35.06;161.54;-12.87;22.74;2.0;989.15;68.311;35.958298;-83.92445;795.11;NaN;;0.0;51.669678;;5 / 18;30008;2022-10-23 22:46:44:371
-5.0611;1.264;10.2191;-4.434;2.5083;8.3797;-0.2462;-0.5193;0.1778;-0.5838;0.6628;0.2526;1.0;9.06;-28.67;-34.41;157.59;-14.82;27.88;2.0;989.19;62.758;35.958298;-83.92445;795.11;NaN;;0.0;51.669678;;5 / 18;30508;2022-10-23 22:46:44:871
-3.821;2.2612;7.1225;-4.5426;2.925;8.1841;1.4441;0.3784;-1.2537;0.8761;-0.2595;-0.501;1.0;15.0;-25.52;-35.29;166.2;-13.96;29.16;2.0;989.12;72.245;35.958298;-83.92445;795.11;NaN;;0.0;51.669678;;7 / 18;31007;2022-10-23 22:46:45:370
-4.3513;2.6623;7.7294;-4.6969;1.7759;8.4235;-0.1102;0.2743;2.4761;-0.2026;0.3026;-0.2959;1.0;22.65;-26.31;-28.09;198.65;-10.43;29.14;2.0;989.15;68.735;35.958298;-83.92445;795.11;NaN;;0.0;51.669678;;7 / 18;31507;2022-10-23 22:46:45:870
-4.0412;2.7879;7.4133;-5.1619;1.8646;8.127;-3.0284;-0.8203;4.4384;0.3814;0.4019;-0.5394;1.0;27.19;-26.42;-17.4;215.99;-11.08;30.63;2.0;989.2;47.516;35.958298;-83.92445;795.11;NaN;;0.0;51.669678;;8 / 18;32007;2022-10-23 22:46:46:370
-4.282;2.4993;5.4718;-5.7304;2.4285;7.5786;1.9244;0.3513;-0.1802;0.5472;0.4275;0.6716;0.0;30.83;-21.75;-8.01;229.62;-9.23;34.61;2.0;989.19;59.179;35.958298;-83.92445;795.11;NaN;;0.0;51.669678;;8 / 18;32508;2022-10-23 22:46:46:871
-4.6851;1.6579;5.3773;-5.9004;1.987;7.5767;1.7886;-0.0278;-1.0065;0.8549;-0.2808;-0.3887;0.0;28.13;-20.87;-7.24;227.32;-9.42;36.0;2.0;989.29;71.489;35.958298;-83.92445;795.11;NaN;;0.0;51.669678;;9 / 18;33007;2022-10-23 22:46:47:370
-10.558;1.3167;7.3594;-6.9538;2.162;6.5681;0.9832;-0.2431;-1.8071;-0.1246;0.4215;-0.2918;0.0;31.65;-19.43;-4.71;238.57;-14.43;43.9;2.0;989.22;69.317;35.958298;-83.92445;795.11;NaN;;0.0;51.669678;;9 / 18;33507;2022-10-23 22:46:47:870
-11.5409;-0.1149;8.6521;-6.5646;1.8798;7.0387;-0.8974;-1.5342;-0.9401;1.4274;0.2467;-0.0859;1.0;31.18;-17.81;-11.19;231.49;-11.05;43.0;2.0;989.29;68.066;35.958298;-83.92445;795.11;NaN;;0.0;51.669678;;9 / 18;34007;2022-10-23 22:46:48:370
-4.0807;2.1691;4.7402;-6.1538;-0.4373;7.623;-4.1239;0.4818;-0.9328;-1.0753;-1.0684;0.0157;1.0;24.75;-15.96;-23.14;195.98;2.56;38.91;2.0;989.32;60.821;35.958298;-83.92445;795.11;NaN;;0.0;51.669678;;9 / 18;34507;2022-10-23 22:46:48:870
-10.0158;2.5172;9.0281;-6.9795;1.1454;6.7931;-2.3675;-0.7317;2.3217;-0.0218;-0.1622;0.3489;5.0;19.74;-7.71;-35.32;107.08;-6.71;45.78;2.0;989.34;69.749;35.958298;-83.92445;795.11;NaN;;0.0;51.669678;;9 / 18;35008;2022-10-23 22:46:49:371
-4.4064;3.0607;3.2656;-6.1597;0.7216;7.5966;-0.0601;0.5199;-0.5921;-0.3394;-1.4907;0.1379;6.0;20.48;-1.42;-45.69;76.38;-8.59;51.17;2.0;989.33;65.778;35.958298;-83.92445;795.11;NaN;;0.0;51.669678;;9 / 18;35507;2022-10-23 22:46:49:870
-4.1369;2.4156;2.8633;-5.9629;5.2877;5.7144;-5.6277;-2.6201;1.3848;0.5017;0.0989;1.2722;16.0;23.29;-12.02;-53.25;68.3;-22.86;47.63;2.0;989.36;65.131;35.958298;-83.92445;795.11;NaN;;0.0;51.669678;;7 / 18;36008;2022-10-23 22:46:50:371
-4.0196;3.1807;4.2209;-6.6553;3.1476;6.4784;-1.3124;-0.3293;-1.1494;-0.4731;0.2537;0.5004;15.0;25.63;-44.64;-49.72;145.19;-18.72;45.77;2.0;989.36;55.234;35.958298;-83.92445;795.11;NaN;;0.0;51.669678;;7 / 18;36508;2022-10-23 22:46:50:871
-5.8295;1.8649;6.3419;-5.9669;2.9609;7.1972;-2.6864;-1.6908;2.4341;-0.2039;-0.1051;0.312;15.0;16.56;-32.87;-63.26;119.49;-15.84;40.11;2.0;989.37;58.094;35.958298;-83.92445;795.11;NaN;;0.0;51.669678;;5 / 18;37007;2022-10-23 22:46:51:370
-7.9508;2.3749;8.2394;-6.6697;1.7905;6.9628;-3.2585;-0.5014;1.5313;-1.1815;0.014;0.5322;15.0;14.96;-29.4;-57.69;122.93;-10.52;43.77;2.0;989.39;71.5;35.958298;-83.92445;795.11;NaN;;0.0;51.669678;;5 / 18;37507;2022-10-23 22:46:51:870
-2.3031;2.2289;9.2952;-1.1349;3.159;9.2143;0.6901;-1.1865;0.9505;0.3;0.224;0.1235;3.0;-15.86;-17.29;-58.14;91.22;-16.27;4.07;2.0;989.36;69.714;35.958298;-83.92445;795.11;NaN;;0.0;51.669678;;4 / 18;38008;2022-10-23 22:46:52:371
-1.9741;3.189;9.186;-1.0366;3.2292;9.2015;-0.3311;-0.6578;-0.8185;-0.1239;0.328;0.547;1.0;-21.04;-21.64;-58.05;93.81;-19.8;4.85;2.0;989.38;60.7;35.958298;-83.92445;795.11;NaN;;0.0;51.669678;;4 / 18;38507;2022-10-23 22:46:52:870
-1.2365;2.5196;8.4212;-1.7583;3.0405;9.1561;-0.2781;-0.3859;0.4444;-0.3552;0.5724;0.4527;1.0;-19.72;-20.14;-59.1;89.91;-19.82;8.05;2.0;989.36;66.527;35.958298;-83.92445;795.11;NaN;;0.0;51.669678;;4 / 18;39008;2022-10-23 22:46:53:371
-3.2058;3.0739;10.7495;-3.4143;2.1628;8.935;2.1105;0.0909;-0.1066;-0.7727;0.3279;0.4069;1.0;-15.41;-14.14;-58.16;86.44;-17.91;18.93;2.0;989.35;66.503;35.958298;-83.92445;795.11;NaN;;0.0;51.669678;;4 / 18;39510;2022-10-23 22:46:53:873
-6.2593;-1.2293;10.1294;-3.1278;1.9885;9.0793;-2.2034;-1.853;2.1846;-0.856;-1.0558;-0.4988;1.0;-5.32;-6.84;-53.42;82.29;-11.7;19.01;2.0;989.42;60.659;35.958298;-83.92445;795.11;NaN;;0.0;51.669678;;4 / 18;40007;2022-10-23 22:46:54:370
-3.8067;1.6998;8.1939;-4.307;0.4595;8.7982;0.394;-1.5804;1.694;-0.1978;-0.1162;-0.6259;1.0;-0.62;-0.94;-45.9;87.52;-2.69;26.08;2.0;989.47;64.065;35.958298;-83.92445;795.11;NaN;;0.0;51.669678;;4 / 18;40507;2022-10-23 22:46:54:870
-5.0695;0.2874;10.3759;-5.5783;0.5954;8.0435;-0.3033;-0.2954;0.4455;0.3457;0.1773;0.3651;1.0;4.63;0.24;-41.85;83.47;-3.48;34.74;2.0;989.46;67.902;35.958298;-83.92445;795.11;NaN;;0.0;51.669678;;4 / 18;41008;2022-10-23 22:46:55:371
-4.5332;2.4395;7.0292;-5.6815;0.2859;7.9881;1.3755;1.7845;-1.2997;0.3473;0.3006;-0.5511;1.0;10.22;5.79;-36.98;63.26;-1.03;35.26;2.0;989.55;70.311;35.958298;-83.92445;795.11;NaN;;0.0;51.669678;;4 / 18;41508;2022-10-23 22:46:55:871
-5.6501;0.6368;5.8499;-6.8598;0.5701;6.9849;1.0029;0.4592;0.9904;0.0281;0.3688;0.756;1.0;10.09;10.35;-37.2;61.27;0.3;43.0;2.0;989.48;70.238;35.958298;-83.92445;795.11;NaN;;0.0;51.669678;;6 / 18;42007;2022-10-23 22:46:56:370
-4.1931;1.6902;5.4873;-6.303;0.3951;7.5025;2.106;0.8125;-2.3221;0.8966;-0.075;0.0229;2.0;11.76;18.51;-37.37;35.56;-2.31;40.03;2.0;989.5;54.796;35.958298;-83.92445;795.11;NaN;;0.0;51.669678;;6 / 18;42507;2022-10-23 22:46:56:870
-5.0384;1.6555;5.0013;-7.6364;1.4959;5.9681;1.0493;-0.0434;2.6617;0.5741;0.4221;0.3561;3.0;10.89;16.43;-42.28;53.51;-3.62;49.26;2.0;989.52;70.686;35.958298;-83.92445;795.11;NaN;;0.0;51.669678;;6 / 18;43008;2022-10-23 22:46:57:371
-2.5427;2.697;8.5624;-5.0042;2.8733;7.9292;0.2955;0.0435;-3.6156;0.7695;-0.6219;0.2529;3.0;5.78;11.36;-46.39;40.44;-17.04;32.26;2.0;989.55;72.688;35.958298;-83.92445;795.11;NaN;;0.0;51.669678;;6 / 18;43507;2022-10-23 22:46:57:870
-5.9112;2.1835;9.198;-4.613;2.6003;8.254;-0.4616;0.1356;-1.6153;-0.8408;0.1265;0.8849;4.0;-8.51;2.78;-45.43;67.35;-15.56;28.71;2.0;989.56;70.76;35.958298;-83.92445;795.11;NaN;;0.0;51.669678;;6 / 18;44007;2022-10-23 22:46:58:370
-5.5723;-0.2668;11.2546;-4.4655;1.5928;8.5844;-0.361;-0.0344;0.1598;0.2695;0.1552;-0.393;9.0;-9.15;16.48;-33.88;47.25;-11.15;25.19;2.0;989.64;69.707;35.958298;-83.92445;795.11;NaN;;0.0;51.669678;;6 / 18;44507;2022-10-23 22:46:58:870
-6.8722;0.3473;8.0859;-6.5309;1.8345;7.0819;-0.8818;-0.6438;0.1679;-1.7079;0.8817;0.7052;12.0;-13.09;25.35;-28.91;45.2;-16.24;38.64;2.0;989.63;70.146;35.958298;-83.92445;795.11;NaN;;0.0;51.669678;;7 / 18;45009;2022-10-23 22:46:59:372
-6.3431;0.4609;8.2131;-6.3113;1.3035;7.3918;0.6457;0.36;0.0767;-0.16;-0.1892;0.0115;10.0;15.17;39.17;-1.95;346.4;-7.6;42.41;2.0;989.62;70.396;35.958298;-83.92445;795.11;NaN;;0.0;51.669678;;7 / 18;45507;2022-10-23 22:46:59:870
-3.7935;1.8206;5.7003;-5.6629;1.8786;7.7828;0.258;-1.3991;-0.3883;-0.3061;-0.0114;0.5172;11.0;30.11;27.83;12.75;312.12;-11.04;36.04;2.0;989.62;68.025;35.958298;-83.92445;795.11;NaN;;0.0;51.669678;;7 / 18;46007;2022-10-23 22:47:00:370
-5.2537;2.0614;6.5097;-5.4567;0.8756;8.1011;-2.0852;0.5025;2.0372;0.6654;-0.2664;-0.2602;9.0;30.66;14.74;17.74;292.96;-5.12;33.96;2.0;989.58;69.709;35.958298;-83.92445;795.11;NaN;;0.0;51.669678;;7 / 18;46508;2022-10-23 22:47:00:871
-0.6081;3.76;8.4368;-2.8541;2.9271;8.9139;-2.7045;-1.2924;2.2078;0.3251;-1.0641;0.7413;8.0;25.71;5.68;14.93;277.44;-17.37;17.75;2.0;989.62;68.828;35.958298;-83.92445;795.11;NaN;;0.0;51.669678;;6 / 18;47007;2022-10-23 22:47:01:370
-0.4705;4.2796;6.9799;-0.2272;3.8478;9.0174;0.448;0.474;-2.0335;-0.0549;0.578;0.1925;8.0;21.71;-1.97;7.8;255.28;-24.94;-2.98;2.0;989.67;66.801;35.958298;-83.92445;795.11;NaN;;0.0;51.669678;;6 / 18;47508;2022-10-23 22:47:01:871
-3.5109;-1.0989;7.617;-3.3737;-0.7993;9.1733;-3.3438;-0.5815;1.0152;0.0538;-1.1376;0.8146;3.0;15.02;-8.12;8.31;244.84;1.42;24.77;2.0;989.67;68.784;35.958298;-83.92445;795.11;NaN;;0.0;51.669678;;4 / 18;48009;2022-10-23 22:47:02:372
-3.7445;-0.486;9.5261;-4.0874;0.4322;8.9038;0.2295;-1.1187;-0.3387;-0.1781;0.1992;1.4522;1.0;2.18;-18.56;1.11;186.71;-2.53;24.66;2.0;989.63;68.549;35.958298;-83.92445;795.11;NaN;;0.0;51.669678;;4 / 18;48508;2022-10-23 22:47:02:871
-4.2437;0.195;8.7721;-4.3882;1.4118;8.6557;-0.2627;-0.499;0.6818;0.4046;0.0373;-0.222;1.0;-9.79;-15.67;-9.58;144.93;-6.13;26.64;2.0;989.61;55.419;35.958298;-83.92445;795.11;NaN;;0.0;51.669678;;5 / 15;49008;2022-10-23 22:47:03:371
-4.7474;2.2696;7.5174;-4.723;2.0198;8.3537;0.8487;-0.1681;-0.0925;0.1209;0.1226;0.0377;0.0;-9.43;-15.21;-11.89;134.36;-11.89;29.48;2.0;989.65;68.228;35.958298;-83.92445;795.11;NaN;;0.0;51.669678;;5 / 15;49507;2022-10-23 22:47:03:870
-4.04;0.9721;5.4921;-5.8106;1.3739;7.7795;0.7211;0.7451;-1.0728;0.3837;0.3515;-0.0311;0.0;-5.02;-9.09;-14.47;122.07;-8.05;36.76;2.0;989.62;69.174;35.958298;-83.92445;795.11;NaN;;0.0;51.669678;;4 / 18;50007;2022-10-23 22:47:04:370
-4.7665;0.5207;5.3136;-5.9203;0.4916;7.8025;-1.231;-0.8124;0.1526;-1.2506;-0.4749;0.8414;0.0;5.68;-2.34;-10.8;108.75;-4.8;41.83;2.0;989.7;70.704;35.958298;-83.92445;795.11;NaN;;0.0;51.669678;;4 / 18;50507;2022-10-23 22:47:04:870
-9.7044;-0.5913;6.731;-6.2924;0.4271;7.5096;0.2556;-0.984;-0.0187;0.886;-0.1836;-0.2618;0.0;11.85;0.66;-5.46;278.36;0.6;39.99;2.0;989.65;67.742;35.958298;-83.92445;795.11;NaN;;0.0;51.669678;;2 / 18;51008;2022-10-23 22:47:05:371
-8.7936;0.553;7.818;-6.6175;0.0108;7.2374;-0.9326;-2.0083;-0.5917;0.2624;-0.1415;-0.4626;0.0;13.29;-1.82;-2.74;256.52;-1.75;45.97;2.0;989.78;62.467;35.958298;-83.92445;795.11;NaN;;0.0;51.669678;;2 / 18;51507;2022-10-23 22:47:05:870
-7.5114;0.8943;7.4276;-6.4885;0.4246;7.3409;1.4166;-0.5825;0.8902;-1.0635;-0.3021;0.3477;0.0;8.61;-4.63;-10.48;181.57;-2.48;41.47;2.0;989.75;66.729;35.958298;-83.92445;795.11;NaN;;0.0;51.669678;;2 / 18;52007;2022-10-23 22:47:06:370
-5.5591;1.0546;5.231;-6.3749;0.6897;7.4199;-2.0611;2.0272;1.2039;0.9045;-0.5701;-0.3259;1.0;11.16;-5.91;-16.46;155.76;-4.03;40.67;2.0;989.79;72.192;35.958298;-83.92445;795.11;NaN;;0.0;51.669678;;2 / 18;52507;2022-10-23 22:47:06:870
-8.9468;0.3102;5.8956;-6.8616;0.5876;6.9817;0.5657;0.8304;-0.7583;-2.1448;0.3914;0.4766;2.0;12.81;-11.72;-18.77;159.14;-3.43;44.5;2.0;989.77;71.054;35.958298;-83.92445;795.11;NaN;;0.0;51.669678;;2 / 18;53008;2022-10-23 22:47:07:371
-14.4939;-1.2173;14.1215;-6.1532;0.6948;7.6043;-3.712;-0.7991;2.5746;0.5622;0.1217;0.006;5.0;6.04;-10.09;-31.16;122.56;-0.68;39.61;2.0;989.88;65.479;35.958298;-83.92445;795.11;NaN;;0.0;51.669678;;2 / 18;53508;2022-10-23 22:47:07:871
-8.8726;-2.0495;9.015;-6.9369;0.3992;6.9203;-4.8754;-4.0727;-2.5825;-2.91;-0.1384;1.6448;11.0;-4.18;-32.55;-42.0;129.19;-10.98;47.93;2.0;989.85;65.034;35.958298;-83.92445;795.11;NaN;;0.0;51.669678;;4 / 18;54007;2022-10-23 22:47:08:370
-8.5313;-0.2524;4.113;-5.7801;0.175;7.9202;-4.618;-2.8953;-1.0818;2.3802;-1.1947;-0.0969;13.0;-10.5;0.54;-60.38;87.68;-1.02;36.12;2.0;989.83;57.61;35.958298;-83.92445;795.11;NaN;;0.0;51.669678;;4 / 18;54507;2022-10-23 22:47:08:870
1.331;3.3434;9.3227;3.0926;3.2499;8.7203;-1.5191;-3.1932;4.4755;1.1901;-2.1252;-0.1424;14.0;-28.39;-2.06;-52.84;72.82;-11.74;0.44;2.0;989.89;72.367;35.958298;-83.92445;795.11;NaN;;0.0;51.669678;;3 / 18;55007;2022-10-23 22:47:09:370
2.126;3.9287;7.6409;3.6108;5.2607;7.447;2.5882;-1.02;-0.107;0.0499;0.9354;-0.0602;6.0;-50.63;0.02;-22.03;58.14;-32.44;-25.87;2.0;989.82;69.575;35.958298;-83.92445;795.11;NaN;;0.0;51.669678;;3 / 18;55508;2022-10-23 22:47:09:871
-3.4822;1.4856;10.6358;-1.3432;3.8226;8.9305;0.2291;-1.2384;0.7749;-1.5378;3.3037;3.0212;5.0;-28.52;4.01;-40.46;63.29;-22.94;8.55;2.0;989.94;68.866;35.958298;-83.92445;795.11;NaN;;0.0;51.669678;;3 / 18;56008;2022-10-23 22:47:10:371
-2.9004;3.1484;8.1915;-4.089;3.7835;8.0707;2.2671;-1.6179;0.8931;0.4892;0.8166;-1.3815;3.0;30.98;4.91;-28.71;311.3;-22.31;17.01;2.0;989.84;71.463;35.958298;-83.92445;795.11;NaN;;0.0;51.669678;;3 / 18;56508;2022-10-23 22:47:10:871
-3.6329;3.0476;6.6891;-4.7444;2.905;8.076;0.6505;-0.1115;-1.1293;0.1229;0.0664;0.3399;0.0;35.44;0.43;-16.78;292.9;-16.43;30.3;2.0;989.86;71.004;35.958298;-83.92445;795.11;NaN;;0.0;51.669678;;5 / 18;57007;2022-10-23 22:47:11:370
-4.9032;2.5439;6.6425;-5.1982;1.469;8.1848;-1.9317;-0.3521;1.2011;-0.0495;0.646;-0.0221;1.0;32.7;-3.77;-6.98;267.47;-7.32;29.66;2.0;989.85;67.864;35.958298;-83.92445;795.11;NaN;;0.0;51.669678;;5 / 18;57507;2022-10-23 22:47:11:870
-6.1409;1.331;5.1652;-6.1802;0.7787;7.5742;0.1185;-0.2582;1.9485;-0.7043;0.2222;0.2274;1.0;26.49;-8.72;-5.51;245.95;-4.55;39.21;2.0;989.95;66.2;35.958298;-83.92445;795.11;NaN;;0.0;51.669678;;5 / 18;58009;2022-10-23 22:47:12:372
-6.2988;1.264;5.3509;-6.4392;1.7831;7.1783;0.2533;1.3417;0.4486;0.6635;-0.0248;-0.1904;2.0;24.19;-8.04;-8.53;252.52;-10.48;41.89;2.0;989.87;72.101;35.958298;-83.92445;795.11;NaN;;0.0;51.669678;;5 / 18;58507;2022-10-23 22:47:12:870
-4.3083;0.3102;2.9387;-6.6446;2.075;6.9075;1.3513;-0.6114;-0.3488;0.6916;0.738;1.1234;2.0;26.89;-4.41;-12.22;279.58;-12.22;43.89;2.0;989.92;50.577;35.958298;-83.92445;795.11;NaN;;0.0;51.669678;;5 / 18;59007;2022-10-23 22:47:13:370
-5.2693;1.1312;4.5942;-6.9154;2.6898;6.4119;-0.4513;-1.2018;-1.2275;0.8298;0.3121;0.2538;2.0;29.36;-1.09;-18.96;304.06;-9.98;44.72;2.0;989.95;70.416;35.958298;-83.92445;795.11;NaN;;0.0;51.669678;;5 / 18;59507;2022-10-23 22:47:13:870
-12.5175;1.1037;11.5098;-8.1241;1.0853;5.3843;2.4107;-0.3532;-2.1225;-1.1931;1.1824;-1.0177;2.0;32.01;2.68;-25.95;0.87;-14.12;51.18;2.0;989.88;69.067;35.958298;-83.92445;795.11;NaN;;0.0;51.669678;;4 / 17;60007;2022-10-23 22:47:14:370
-12.1394;-1.0965;7.7689;-7.1735;1.2646;6.566;0.4347;-0.9398;-1.4933;0.6154;-0.2105;0.1659;3.0;28.78;9.79;-29.19;6.8;-7.41;47.53;2.0;990.01;69.457;35.958298;-83.92445;795.11;NaN;;0.0;51.669678;;4 / 17;60507;2022-10-23 22:47:14:870
-7.9651;0.1244;8.7398;-7.5335;1.1617;6.1698;1.0237;-0.9547;-2.4948;-1.0079;0.1999;0.3754;6.0;27.71;10.46;-30.56;22.84;-6.8;50.68;2.0;990.04;70.828;35.958298;-83.92445;795.11;NaN;;0.0;51.669678;;5 / 18;61007;2022-10-23 22:47:15:370
-14.6949;-0.0574;8.8642;-7.2252;1.7528;6.3949;1.8175;0.8978;-0.5113;-0.3398;0.1919;0.486;10.0;27.11;13.63;-30.39;12.31;-10.3;48.49;2.0;990.09;70.486;35.958298;-83.92445;795.11;NaN;;0.0;51.669678;;5 / 18;61508;2022-10-23 22:47:15:871
-7.3415;1.124;12.0879;-6.3018;1.7047;7.3179;-0.8872;-2.0898;-2.3388;-1.4931;-1.3006;0.9781;14.0;29.01;12.15;-33.94;0.62;-10.01;40.73;2.0;990.08;52.424;35.958298;-83.92445;795.11;NaN;;0.0;51.669678;;5 / 18;62008;2022-10-23 22:47:16:371
-7.3044;1.0367;6.7226;-6.7613;1.6975;6.8974;-2.9352;-2.5822;0.2492;0.4209;0.3901;-0.317;16.0;28.91;10.78;-34.95;9.38;-11.91;43.84;2.0;990.08;44.703;35.958298;-83.92445;795.11;NaN;;0.0;51.669678;;5 / 18;62510;2022-10-23 22:47:16:873
-7.9615;0.7373;6.6437;-7.8737;1.4949;5.6515;-1.2748;-1.2246;-0.492;-1.4008;1.538;1.1081;11.0;45.96;7.22;-27.54;322.0;-7.37;47.2;2.0;990.05;71.489;35.958298;-83.92445;795.11;NaN;;0.0;51.669678;;4 / 18;63008;2022-10-23 22:47:17:371
-5.6441;0.9625;3.7971;-7.5823;2.384;5.7442;1.6894;-0.9584;-0.9764;-0.2263;-0.6857;0.5508;8.0;50.55;-4.44;-17.85;295.85;-12.54;54.23;2.0;990.06;71.739;35.958298;-83.92445;795.11;NaN;;0.0;51.669678;;4 / 18;63507;2022-10-23 22:47:17:870
-7.6265;-1.7692;9.0592;-5.5847;1.2776;7.9592;3.4553;1.1759;-0.1058;-0.9918;-1.3859;1.314;9.0;42.51;-12.32;-25.56;253.75;-7.49;35.06;2.0;990.1;61.042;35.958298;-83.92445;795.11;NaN;;0.0;51.669678;;4 / 18;64007;2022-10-23 22:47:18:370
-2.199;1.2377;8.4715;-1.9982;1.2374;9.5208;0.1629;0.4169;-2.5222;0.8222;0.2754;-0.5679;9.0;23.93;-7.95;-40.61;261.5;-7.25;11.85;2.0;990.02;71.862;35.958298;-83.92445;795.11;NaN;;0.0;51.669678;;4 / 18;64509;2022-10-23 22:47:18:872
-6.05;0.8967;4.4136;-4.4815;2.1024;8.4656;3.0661;0.9058;-2.2557;-0.4226;2.983;-0.1747;8.0;22.28;-11.1;-40.74;198.77;-12.38;27.9;2.0;990.11;69.325;35.958298;-83.92445;795.11;NaN;;0.0;51.669678;;4 / 18;65007;2022-10-23 22:47:19:370
-11.5361;-1.8721;7.1046;-8.6748;0.3997;4.5562;0.6373;0.9195;0.4468;-0.0837;1.0818;0.6459;2.0;44.33;-0.43;-16.03;263.62;1.72;54.99;2.0;990.21;70.481;35.958298;-83.92445;795.11;NaN;;0.0;51.669678;;4 / 18;65507;2022-10-23 22:47:19:870
-8.0812;0.1723;3.3171;-7.9604;0.2518;5.7218;-0.0617;-1.0322;-2.6121;-2.3628;-0.4676;1.3416;0.0;54.99;6.21;-9.28;292.88;-3.09;58.8;2.0;990.12;67.794;35.958298;-83.92445;795.11;NaN;;0.0;51.669678;;5 / 18;66009;2022-10-23 22:47:20:372
-6.5515;1.209;4.9307;-7.0739;0.1687;6.7898;0.7158;0.2132;-2.0874;-0.4251;-0.6306;0.7434;0.0;50.61;-7.69;-25.26;247.75;-0.99;46.17;2.0;990.18;69.755;35.958298;-83.92445;795.11;NaN;;0.0;51.669678;;5 / 18;66507;2022-10-23 22:47:20:870
-4.7474;-2.1619;7.8538;-6.0357;-0.782;7.6895;-0.1094;-1.3345;-0.9955;-0.3811;-0.4881;0.1654;0.0;43.84;-2.23;-34.97;243.95;4.57;38.13;2.0;990.16;63.105;35.958298;-83.92445;795.11;NaN;;0.0;51.669678;;3 / 18;67010;2022-10-23 22:47:21:373
-5.2238;-0.3257;7.4803;-5.5144;-0.4045;8.0993;-0.3096;-0.2004;0.5725;0.4446;-0.3703;0.2011;0.0;43.26;2.03;-38.12;268.8;2.36;34.25;2.0;990.14;52.711;35.958298;-83.92445;795.11;NaN;;0.0;51.669678;;3 / 18;67509;2022-10-23 22:47:21:872
-6.1373;0.0969;6.8554;-7.1083;0.7953;6.7089;1.595;1.3087;-0.6429;-0.0564;0.7373;1.0349;0.0;47.74;-4.09;-30.49;272.65;-4.65;46.66;2.0;990.23;57.918;35.958324;-83.92435;778.71;NaN;;;122.47742;;3 / 18;68007;2022-10-23 22:47:22:370
-5.2418;0.3078;5.5077;-7.5119;-0.5395;6.281;1.4181;-1.6749;-1.2777;-1.7941;-0.2104;0.0032;0.0;46.44;-11.33;-19.87;237.92;-3.55;51.81;2.0;990.15;72.596;35.958324;-83.92435;778.71;NaN;;;122.47742;;3 / 18;68508;2022-10-23 22:47:22:871
-8.802;-2.132;9.3299;-7.5275;-0.2956;6.2785;-6.5999;-4.1714;2.7806;-1.2644;0.4509;-0.5415;0.0;41.42;-6.92;-23.94;253.21;-5.05;48.09;2.0;990.25;69.787;35.958324;-83.92435;778.71;NaN;;;122.47742;;2 / 18;69009;2022-10-23 22:47:23:372
-6.7825;-0.7624;12.2351;-6.1361;-1.1146;7.5681;-1.9013;1.5098;3.8323;1.2636;0.4183;0.3645;0.0;33.64;4.52;-31.57;252.74;9.16;37.23;2.0;990.24;68.295;35.958324;-83.92435;778.71;NaN;;;122.47742;;2 / 18;69507;2022-10-23 22:47:23:870
-6.1217;-0.0514;5.2561;-7.6014;-0.6335;6.1634;0.0198;-0.5946;1.9016;-1.1469;-0.4863;0.1421;0.0;28.67;6.15;-37.46;73.88;3.7;50.96;2.0;990.28;69.642;35.958324;-83.92435;778.71;NaN;;;122.47742;;3 / 18;70008;2022-10-23 22:47:24:371
-4.9092;3.5049;4.8661;-7.9741;-0.1508;5.7063;-6.8173;0.8833;0.5275;0.3341;1.382;0.3551;0.0;31.09;6.47;-35.57;64.79;0.88;54.41;2.0;990.26;72.192;35.958324;-83.92435;778.71;NaN;;;122.47742;;3 / 18;70508;2022-10-23 22:47:24:871
-8.1987;1.5395;1.9068;-7.9824;0.0716;5.6962;1.5025;0.2975;1.9614;-0.4225;-0.4709;0.4299;1.0;30.45;0.09;-31.74;87.91;-0.42;54.49;2.0;990.3;62.887;35.958324;-83.92435;778.71;NaN;;;122.47742;;3 / 18;71007;2022-10-23 22:47:25:370
-7.0663;-0.7828;7.418;-6.4637;-1.7582;7.1623;1.5243;0.1219;-1.3161;-0.1723;0.2601;-0.2106;3.0;18.53;-5.12;-29.7;156.02;12.48;41.33;2.0;990.31;41.817;35.958324;-83.92435;778.71;NaN;;;122.47742;;3 / 18;71508;2022-10-23 22:47:25:871
-10.9421;-6.6162;3.2824;-7.3957;-1.2019;6.3269;0.9906;-1.1234;-5.7487;-1.6072;1.1443;1.5393;11.0;12.84;-14.33;-27.88;155.24;5.86;39.6;2.0;990.38;67.09;35.958324;-83.92435;778.71;NaN;;;122.47742;;2 / 18;72007;2022-10-23 22:47:26:370
-12.8946;-4.8326;9.3;-7.4988;-1.0436;6.2329;2.4821;2.1785;0.1706;-0.7297;-0.1714;0.889;12.0;13.35;-4.31;-37.18;110.57;6.11;50.27;2.0;990.33;73.233;35.958324;-83.92435;778.71;NaN;;;122.47742;;2 / 18;72507;2022-10-23 22:47:26:870
-9.9775;-4.7079;6.5025;-7.2895;0.1742;6.5577;0.0862;-1.0881;-2.5553;-1.0088;0.1765;1.0936;11.0;15.77;-6.17;-40.69;105.0;-1.02;48.03;2.0;990.34;66.405;35.958324;-83.92435;778.71;NaN;;;122.47742;;3 / 17;73008;2022-10-23 22:47:27:371
-6.6126;-2.0351;5.9913;-3.9393;-1.0655;8.9172;2.5112;0.5165;-1.4857;-0.3405;0.6712;-0.0734;10.0;10.88;6.34;-41.01;77.8;6.24;23.83;2.0;990.3;70.556;35.958324;-83.92435;778.71;NaN;;;122.47742;;3 / 17;73507;2022-10-23 22:47:27:870
-7.5293;-1.7943;8.1784;-4.9274;0.3551;8.4714;0.4804;-2.0978;-0.2828;-0.0576;-0.0273;0.8104;5.0;12.45;12.02;-36.62;31.62;-2.08;30.18;2.0;990.31;70.407;35.958324;-83.92435;778.71;NaN;;;122.47742;;3 / 18;74007;2022-10-23 22:47:28:370
-4.8135;1.0594;8.6797;-5.5671;0.7596;8.0375;1.2943;1.0319;0.2315;0.0874;0.2128;-0.3195;1.0;21.09;6.49;-31.35;357.67;-4.83;33.55;2.0;990.32;69.351;35.958324;-83.92435;778.71;NaN;;;122.47742;;3 / 18;74507;2022-10-23 22:47:28:870
-4.3131;0.3377;6.5109;-5.6748;0.6642;7.9703;-0.1568;-0.9572;-0.9928;-0.0296;-0.0567;0.1966;1.0;21.26;2.68;-27.9;352.63;-3.48;35.79;2.0;990.35;65.253;35.958324;-83.92435;778.71;NaN;;;122.47742;;3 / 17;75008;2022-10-23 22:47:29:371
-5.4885;2.6444;5.9399;-6.6626;0.1365;7.1945;-2.8685;-0.0496;4.2558;0.8504;0.767;-0.2134;1.0;19.44;-3.26;-22.61;184.42;2.6;38.91;2.0;990.37;70.018;35.958324;-83.92435;778.71;NaN;;;122.47742;;3 / 17;75508;2022-10-23 22:47:29:871
-6.0368;1.5861;5.9782;-6.8246;1.4458;6.8924;0.7078;-0.286;-0.9429;-0.0835;-0.1258;-0.255;1.0;13.22;-8.81;-17.76;148.84;-8.48;44.72;2.0;990.34;65.09;35.958324;-83.92435;778.71;NaN;;;122.47742;;3 / 18;76008;2022-10-23 22:47:30:371
-5.5687;1.567;7.1225;-6.4164;0.4241;7.4041;0.6077;2.2219;-2.2049;0.408;0.4794;-0.3908;1.0;4.03;-4.82;-19.26;114.34;-2.48;40.91;2.0;990.36;70.417;35.958324;-83.92435;778.71;NaN;;;122.47742;;3 / 18;76508;2022-10-23 22:47:30:871
-6.8782;-0.1854;6.105;-6.6796;0.1545;7.1784;1.6038;1.2312;-1.8914;-0.3593;0.4973;1.2041;1.0;-0.06;-0.9;-21.73;92.85;-0.9;42.94;2.0;990.46;72.957;35.958324;-83.92435;778.71;NaN;;;122.47742;;3 / 18;77007;2022-10-23 22:47:31:370
-12.0446;-0.2477;5.3617;-8.0189;2.492;5.0654;-1.7939;-2.4154;2.2016;2.0179;0.2232;0.3191;2.0;1.8;5.96;-22.65;65.96;-5.4;51.48;2.0;990.41;69.01;35.958324;-83.92435;778.71;NaN;;;122.47742;;3 / 18;77507;2022-10-23 22:47:31:870
-9.0927;2.1942;5.9315;-7.7705;2.6162;5.3801;2.4843;0.0939;-0.176;-0.9789;-0.1025;-0.2017;2.0;12.17;1.56;-22.97;55.1;-20.42;59.43;2.0;990.49;69.593;35.958305;-83.924446;792.89;NaN;;0.0;385.80612;;3 / 18;78008;2022-10-23 22:47:32:371
-12.5378;-2.2229;9.6661;-7.6615;2.2489;5.6933;1.4427;-1.3137;-1.1378;0.669;0.5034;0.4292;3.0;17.12;17.31;-29.87;30.38;-13.26;53.38;2.0;990.46;69.652;35.958305;-83.924446;792.89;NaN;;0.0;385.80612;;3 / 18;78508;2022-10-23 22:47:32:871
-10.2132;-0.833;7.9113;-7.893;0.3805;5.8074;2.3658;0.7976;-0.4035;-0.1416;-0.4573;-0.5801;6.0;12.41;33.38;-46.37;41.03;-2.22;53.66;2.0;990.51;69.783;35.958305;-83.924446;792.89;NaN;;0.0;385.80612;;3 / 17;79007;2022-10-23 22:47:33:370
-4.3274;-3.3505;14.8576;-5.0396;-0.2993;8.4073;-4.079;-0.1158;-0.849;0.1708;-0.9651;-0.5709;8.0;-0.51;24.71;-52.35;49.41;1.75;30.94;2.0;990.52;71.939;35.958305;-83.924446;792.89;NaN;;0.0;385.80612;;3 / 17;79508;2022-10-23 22:47:33:871
-5.4742;-0.3544;7.4097;-3.2367;-0.5939;9.238;-0.1664;0.2808;-0.7649;-0.775;0.3583;0.3635;9.0;-34.35;9.64;-41.81;79.81;3.47;19.31;2.0;990.51;70.754;35.958305;-83.924446;792.89;NaN;;0.0;385.80612;;3 / 18;80007;2022-10-23 22:47:34:370
-5.5508;0.3054;7.7091;-4.8775;-0.0241;8.5077;-2.8474;-3.2958;1.746;0.3541;0.6693;1.1501;16.0;-6.67;21.53;-29.16;42.15;4.3;24.16;2.0;990.68;72.074;35.958305;-83.924446;792.89;NaN;;0.0;385.80612;;3 / 18;80507;2022-10-23 22:47:34:870
-5.0001;0.3281;6.5839;-6.8778;-0.1329;6.9892;1.9503;0.1795;-0.3023;-0.978;-0.1326;1.3326;14.0;22.14;20.63;-16.39;345.73;1.9;43.14;2.0;990.58;71.474;35.958305;-83.924446;792.89;NaN;;0.0;385.80612;;2 / 18;81007;2022-10-23 22:47:35:370
-6.8255;0.8222;6.1768;-6.5138;0.8298;7.2837;-1.1137;-0.9758;-1.7728;-0.3345;-0.1655;0.2535;12.0;29.66;6.39;-12.64;304.08;-5.12;43.52;2.0;990.59;67.926;35.958305;-83.924446;792.89;NaN;;0.0;385.80612;;2 / 18;81507;2022-10-23 22:47:35:870
-6.3215;1.9128;5.6142;-6.5836;0.9716;7.203;0.7761;-0.3479;-0.3538;-0.7039;0.085;0.8911;17.0;31.71;-5.49;-14.64;262.66;-5.69;42.43;2.0;990.59;67.454;35.958305;-83.924446;792.89;NaN;;0.0;385.80612;;2 / 18;82009;2022-10-23 22:47:36:372
-7.1656;1.1719;6.1409;-6.3571;1.9986;7.1947;-1.6403;-1.2078;0.2927;-0.3834;0.0544;0.9232;17.0;32.34;-6.19;-14.61;272.99;-11.76;41.46;2.0;990.61;69.283;35.958305;-83.924446;792.89;NaN;;0.0;385.80612;;2 / 18;82509;2022-10-23 22:47:36:872
-5.8798;2.5869;7.022;-6.6175;2.4829;6.7981;0.1821;0.1007;-1.7032;-0.6916;0.2586;0.3124;7.0;33.58;-6.86;-13.89;276.92;-14.67;44.23;2.0;990.58;55.51;35.958305;-83.924446;792.89;NaN;;0.0;385.80612;;2 / 18;83007;2022-10-23 22:47:37:370
-9.8542;0.5136;8.1628;-6.6231;2.1091;6.9179;0.846;0.3376;-0.1325;0.3396;-0.1422;0.2064;3.0;35.06;-12.6;-9.11;248.85;-10.25;44.04;2.0;990.59;48.093;35.958305;-83.924446;792.89;NaN;;0.0;385.80612;;2 / 18;83507;2022-10-23 22:47:37:870
-7.4898;1.6842;6.5994;-7.064;1.8706;6.54;-0.1526;-0.8454;-0.1789;-0.4522;0.1252;0.0685;2.0;36.34;-16.61;4.39;247.88;-13.19;46.98;2.0;990.57;50.952;35.958393;-83.924286;791.0;NaN;;3.85;541.137;67.6;2 / 17;84007;2022-10-23 22:47:38:370
-9.3168;1.5646;7.4192;-7.6316;2.3102;5.709;1.888;1.4773;1.3495;-0.4542;1.1389;0.4799;0.0;37.74;-20.85;16.73;246.73;-13.63;53.2;2.0;990.6;71.418;35.958393;-83.924286;791.0;NaN;;3.85;541.137;67.6;2 / 17;84508;2022-10-23 22:47:38:871
-8.5564;2.2828;10.2598;-7.3441;1.7097;6.2699;-1.9107;-1.0259;-0.126;-1.1838;-0.4776;-0.7024;0.0;47.79;-15.49;20.19;257.04;-10.04;49.51;2.0;990.55;67.334;35.958393;-83.924286;791.0;NaN;;3.85;541.137;67.6;2 / 18;85008;2022-10-23 22:47:39:371
-11.7215;2.7604;4.7557;-7.4702;1.8573;6.0759;-1.3461;-0.5562;3.2546;-0.1377;-0.2374;-0.4291;0.0;51.73;-10.33;12.53;265.03;-10.92;50.88;2.0;990.68;66.878;35.958393;-83.924286;791.0;NaN;;3.85;541.137;67.6;2 / 18;85508;2022-10-23 22:47:39:871
-8.1194;2.1571;6.2318;-7.7611;1.6153;5.7729;0.4415;-1.4739;-0.5298;-0.5556;0.5543;-0.318;0.0;46.52;-7.44;1.41;268.43;-9.48;53.36;2.0;990.67;69.08;35.958305;-83.924446;792.46;NaN;;0.0;647.73065;;0 / 18;86007;2022-10-23 22:47:40:370
-5.6201;2.5774;5.0001;-7.4272;0.9381;6.3347;-1.3075;-0.9871;3.7444;0.752;-0.3878;-0.6054;0.0;38.31;-1.74;-15.79;284.76;-6.9;52.24;2.0;990.74;69.619;35.958305;-83.924446;792.46;NaN;;0.0;647.73065;;0 / 18;86508;2022-10-23 22:47:40:871
-6.6963;2.0853;5.5376;-7.6546;1.9319;5.8176;1.9188;-0.467;0.6269;-0.6185;-0.5893;0.0467;0.0;24.28;-7.22;-17.25;118.77;-12.68;56.02;2.0;990.67;66.058;35.958305;-83.924446;792.46;NaN;;0.0;647.73065;;2 / 18;87008;2022-10-23 22:47:41:371
-5.656;2.9841;2.5845;-8.1381;2.6943;4.7626;-2.0185;0.4762;-2.9198;0.5243;0.4325;0.3319;0.0;27.73;-10.82;10.35;253.51;-12.02;55.97;2.0;990.74;53.345;35.958305;-83.924446;792.46;NaN;;0.0;647.73065;;2 / 18;87507;2022-10-23 22:47:41:870
-6.367;2.4598;-0.3437;-9.336;1.6498;2.5074;0.6362;0.6872;-0.9318;0.9351;2.3672;0.2631;1.0;32.76;7.58;20.7;293.15;-9.69;74.97;2.0;990.74;73.04;35.958305;-83.924446;792.46;NaN;;0.0;647.73065;;2 / 18;88007;2022-10-23 22:47:42:370
-4.4052;2.8047;4.4483;-7.1783;3.0796;5.9295;-2.8613;1.3335;-1.4158;0.176;-1.1031;1.5519;1.0;24.83;15.04;19.73;297.47;-18.3;50.44;2.0;990.75;70.185;35.958305;-83.924446;792.46;NaN;;0.0;647.73065;;2 / 18;88508;2022-10-23 22:47:42:871
-2.6204;4.8829;7.515;-2.7611;4.2831;8.3787;2.2302;2.8915;-4.5846;0.1708;-0.9031;-1.9341;2.0;25.61;6.32;5.74;283.67;-25.9;18.24;2.0;990.8;69.338;35.958305;-83.924446;792.46;NaN;;0.0;647.73065;;2 / 18;89008;2022-10-23 22:47:43:371
-4.174;7.4659;8.1772;-3.4659;6.4284;6.5447;-0.9294;1.5736;1.4515;-0.9698;-0.7397;-0.6358;2.0;5.64;-4.48;-7.52;354.11;-51.55;33.72;2.0;990.83;63.962;35.958305;-83.924446;792.46;NaN;;0.0;647.73065;;2 / 18;89508;2022-10-23 22:47:43:871
-1.768;3.1376;6.2821;-1.9221;3.2888;9.0366;-0.9314;-1.7373;3.603;0.4937;0.2356;1.1697;1.0;-11.72;-11.17;-13.59;113.27;-21.4;19.15;2.0;990.82;52.381;35.95843;-83.924255;791.26;NaN;;3.42;821.0408;55.6;2 / 18;90008;2022-10-23 22:47:44:371
-2.4802;2.7102;7.5377;-2.6253;2.8994;8.9929;1.8263;-0.2374;-0.1763;-0.3132;0.253;0.7556;4.0;-10.56;17.48;-34.61;38.88;-17.2;16.27;2.0;990.81;46.351;35.95843;-83.924255;791.26;NaN;;3.42;821.0408;55.6;2 / 18;90508;2022-10-23 22:47:44:871
-4.6588;-1.5383;7.2302;-4.1234;1.5361;8.7641;-0.8383;-1.3896;1.2012;-1.2683;0.7077;2.4538;4.0;11.91;26.49;-29.78;0.07;-13.84;21.87;2.0;990.83;56.397;35.95843;-83.924255;791.26;NaN;;3.42;821.0408;55.6;2 / 17;91008;2022-10-23 22:47:45:371
-10.3125;-0.6595;3.6571;-8.3982;-0.2515;5.0574;-2.0308;-0.8769;1.7021;-0.6176;-0.2185;0.8249;5.0;31.16;-4.8;4.24;253.84;1.47;58.94;2.0;990.83;69.563;35.95843;-83.924255;791.26;NaN;;3.42;821.0408;55.6;2 / 17;91507;2022-10-23 22:47:45:870
-4.264;-4.3681;8.6079;-7.6095;-1.0949;6.0883;-1.445;-2.9783;-1.5058;-4.6755;-0.9025;2.0689;7.0;24.69;-32.01;-6.79;194.75;-3.09;56.27;2.0;990.81;70.177;35.95843;-83.924255;791.26;NaN;;3.42;821.0408;55.6;0 / 18;92008;2022-10-23 22:47:46:371
-11.2678;-4.6768;9.2148;-7.1511;-1.5641;6.5257;-0.1502;2.4446;0.5392;0.1469;0.157;0.234;2.0;-1.33;-4.61;-53.4;107.76;12.73;47.15;2.0;990.84;64.533;35.95843;-83.924255;791.26;NaN;;3.42;821.0408;55.6;0 / 18;92508;2022-10-23 22:47:46:871
-7.2601;-0.1878;3.457;-6.8833;0.6932;6.9505;-0.0477;-0.0832;-2.3;-0.1493;0.3044;0.3254;2.0;3.64;-3.54;-52.31;93.29;-2.98;43.34;2.0;990.75;69.515;35.95843;-83.924255;791.26;NaN;;3.42;821.0408;55.6;0 / 18;93007;2022-10-23 22:47:47:370
-7.8168;0.5016;6.5683;-7.8152;-0.5571;5.8977;1.0142;0.9366;0.5782;0.7855;0.526;-0.49;2.0;14.63;-3.56;-50.96;102.76;3.6;50.52;2.0;990.93;71.278;35.95843;-83.924255;791.26;NaN;;3.42;821.0408;55.6;0 / 18;93507;2022-10-23 22:47:47:870
-8.3985;-1.3454;5.6393;-8.2809;-0.8218;5.1887;0.0497;-1.384;-0.7432;-0.3635;0.8091;-0.211;2.0;22.43;0.45;-49.29;94.13;2.3;53.26;2.0;990.81;71.111;35.95843;-83.924255;791.26;NaN;;3.42;821.0408;55.6;0 / 18;94008;2022-10-23 22:47:48:371
-7.8299;1.4569;5.2298;-7.2601;-0.5173;6.5722;-3.1573;-1.7624;1.4338;0.4481;-0.0545;-0.7046;2.0;29.23;4.91;-44.02;79.63;2.45;50.55;2.0;990.87;70.133;35.95843;-83.924255;791.26;NaN;;3.42;821.0408;55.6;0 / 18;94507;2022-10-23 22:47:48:870
-7.0699;0.7899;6.3419;-7.8048;-0.4979;5.9168;-0.145;0.817;0.9786;0.4617;0.8772;0.387;2.0;29.46;5.94;-42.96;65.88;-2.28;53.98;2.0;990.86;66.944;35.95843;-83.924255;791.26;NaN;;3.42;821.0408;55.6;0 / 18;95007;2022-10-23 22:47:49:370
-6.5204;1.2185;2.977;-7.5775;-0.4088;6.2117;1.1683;1.1625;-2.6303;0.7703;-0.3697;-0.0662;3.0;37.14;14.66;-34.52;24.02;2.76;52.89;2.0;990.88;65.389;35.95843;-83.924255;791.26;NaN;;3.42;821.0408;55.6;0 / 18;95508;2022-10-23 22:47:49:871
-4.5535;-0.1065;6.8076;-8.0061;0.2418;5.6581;1.5729;-0.0556;1.4384;-0.1847;-0.2243;0.4271;4.0;36.02;16.59;-31.95;18.82;-1.88;55.91;2.0;990.89;60.849;35.95843;-83.924255;791.26;NaN;;3.42;821.0408;55.6;0 / 18;96007;2022-10-23 22:47:50:370
-6.1445;-0.5662;3.705;-7.5452;-0.6607;6.2292;0.5326;0.944;-1.3581;0.5233;-0.1842;0.0112;5.0;31.01;17.63;-23.4;352.58;3.86;50.46;2.0;990.97;51.916;35.95843;-83.924255;791.26;NaN;;3.42;821.0408;55.6;0 / 18;96507;2022-10-23 22:47:50:870
-4.9044;0.1819;3.2788;-6.3065;-0.2721;7.505;1.0429;0.7228;-2.3588;-0.0755;0.2937;1.2044;7.0;22.09;19.91;-21.09;339.9;10.41;36.46;2.0;991.01;72.701;35.95843;-83.924255;791.26;NaN;;3.42;821.0408;55.6;0 / 18;97008;2022-10-23 22:47:51:371
-6.4196;4.9391;7.29;-7.7844;0.4195;5.9496;0.8312;1.3618;-2.4688;-0.673;1.5055;0.7525;10.0;16.56;22.03;-21.96;17.19;-2.45;52.61;2.0;990.99;72.383;35.95843;-83.924255;791.26;NaN;;3.42;821.0408;55.6;0 / 18;97508;2022-10-23 22:47:51:871
-7.2805;-0.3437;5.6022;-6.433;4.9515;5.5018;1.3233;-2.3671;-3.0566;-1.8984;0.2267;2.7757;20.0;27.62;25.09;-15.66;358.65;-22.88;58.76;2.0;990.98;49.538;35.95843;-83.924255;791.26;NaN;;3.42;821.0408;55.6;0 / 18;98007;2022-10-23 22:47:52:370
-3.4032;0.9529;8.9515;-3.6676;-0.1947;9.0929;-0.3013;1.7158;-0.6332;-0.4597;1.117;-0.4292;26.0;40.03;16.8;-17.12;298.98;-3.59;16.07;2.0;990.98;48.588;35.95843;-83.924255;791.26;NaN;;3.42;821.0408;55.6;0 / 18;98508;2022-10-23 22:47:52:871
-5.6991;-0.5375;6.7214;-4.9166;-0.4861;8.4712;-0.6449;0.0462;-0.3917;-0.0726;0.4814;0.6619;19.0;30.75;27.06;-20.87;322.87;4.98;26.77;2.0;991.01;72.163;35.95843;-83.924255;791.26;NaN;;3.42;821.0408;55.6;0 / 18;99007;2022-10-23 22:47:53:370
-2.2026;-1.1157;10.1175;-3.8221;-2.3359;8.7238;1.2324;1.3347;-0.7651;-0.6347;-0.1455;0.5608;12.0;45.88;26.31;-14.61;298.1;11.08;23.43;2.0;991.01;71.464;35.95843;-83.924255;791.26;NaN;;3.42;821.0408;55.6;0 / 18;99508;2022-10-23 22:47:53:871
-4.4901;-2.1464;5.2119;-4.0246;-0.6626;8.9182;2.5006;-0.8071;-2.0027;0.7087;0.1054;0.3522;17.0;52.24;14.31;-15.49;280.97;9.55;23.36;2.0;990.95;67.696;35.95843;-83.924255;791.26;NaN;;3.42;821.0408;55.6;0 / 17;100007;2022-10-23 22:47:54:370
-3.2154;-2.1846;7.7737;-4.3373;-3.1553;8.2099;0.4742;1.0355;-1.111;-0.6791;-0.3202;0.7045;16.0;53.36;1.65;-16.07;254.91;18.77;27.85;2.0;991.04;64.938;35.95843;-83.924255;791.26;NaN;;3.42;821.0408;55.6;0 / 17;100508;2022-10-23 22:47:54:871
-4.6146;-2.6647;7.3403;-4.0119;-2.2138;8.6703;-0.351;-0.6161;-2.1913;-0.3644;0.0552;1.2406;3.0;49.97;-3.09;-18.34;252.28;14.83;23.85;2.0;990.97;69.803;35.95843;-83.924255;791.26;NaN;;3.42;821.0408;55.6;0 / 18;101008;2022-10-23 22:47:55:371
-4.162;-1.8362;8.0201;-4.9707;-2.3347;8.1248;0.9012;0.693;-1.0958;-0.6417;-0.1556;0.8178;1.0;42.77;-20.74;-21.75;221.41;12.1;30.8;2.0;991.04;71.295;35.95843;-83.924255;791.26;NaN;;3.42;821.0408;55.6;0 / 18;101508;2022-10-23 22:47:55:871
-5.4574;-2.7329;6.0595;-5.5764;-2.793;7.5679;-0.1491;-0.9685;-1.8357;0.2604;0.4176;-0.3461;1.0;30.88;-32.48;-32.21;190.3;17.59;33.81;2.0;991.05;54.203;35.95843;-83.924255;791.26;NaN;;3.42;821.0408;55.6;0 / 18;102007;2022-10-23 22:47:56:370
-7.0484;-4.7509;9.5046;-6.0084;-2.3772;7.3768;-0.4002;-0.2384;0.2087;-0.3414;-0.2912;0.5618;1.0;31.67;-44.53;-27.92;187.55;14.03;39.16;2.0;991.05;72.354;35.95843;-83.924255;791.26;NaN;;3.42;821.0408;55.6;0 / 18;102507;2022-10-23 22:47:56:870
-8.4703;-1.6017;6.9344;-6.8415;-1.4544;6.8738;1.087;-0.571;0.5347;0.5292;0.6916;-0.3168;1.0;25.13;-47.91;-26.53;181.48;8.47;40.67;2.0;991.09;73.001;35.95843;-83.924255;791.26;NaN;;3.42;821.0408;55.6;0 / 18;103007;2022-10-23 22:47:57:370
-3.5551;0.5794;4.7836;-7.3016;-0.4955;6.5278;-2.4402;-2.8931;2.6864;1.3879;0.6386;-0.2774;1.0;29.25;-39.99;-12.06;194.06;2.9;48.2;2.0;991.12;65.142;35.95843;-83.924255;791.26;NaN;;3.42;821.0408;55.6;0 / 18;103508;2022-10-23 22:47:57:871
-8.3877;1.4402;4.666;-8.4351;0.8365;4.9315;-2.6529;-1.1421;-0.4176;-0.0844;0.2579;-0.6008;0.0;22.82;-35.12;-13.48;178.95;-7.93;59.92;2.0;991.08;66.752;35.95843;-83.924255;791.26;NaN;;3.42;821.0408;55.6;0 / 18;104007;2022-10-23 22:47:58:370
-7.7665;0.3736;4.2832;-8.2386;0.7184;5.2706;1.1168;1.27;-0.744;1.2131;-0.0829;-0.25;0.0;25.18;-27.86;-19.97;172.32;-1.62;57.89;2.0;991.08;66.169;35.95843;-83.924255;791.26;NaN;;3.42;821.0408;55.6;0 / 18;104507;2022-10-23 22:47:58:870
-11.1924;-0.5937;6.5994;-8.7938;-1.2154;4.1669;-1.9721;0.5951;2.3928;-1.0801;-0.2615;0.3806;1.0;29.79;-18.97;-21.82;165.26;7.75;63.42;2.0;991.11;67.282;35.95843;-83.924255;791.26;NaN;;3.42;821.0408;55.6;0 / 17;105007;2022-10-23 22:47:59:370
-14.7835;-4.9965;4.2556;-8.3628;-1.6195;4.8592;1.547;-0.9868;-1.6693;-2.1213;1.1563;-1.3078;2.0;32.63;-8.7;-23.12;179.73;-2.13;55.18;2.0;991.19;68.163;35.95843;-83.924255;791.26;NaN;;3.42;821.0408;55.6;0 / 17;105507;2022-10-23 22:47:59:870
-14.744;-2.7401;7.241;-6.7817;-3.0875;6.3755;-5.7798;-3.7617;5.0507;-1.9973;-0.4453;-1.2963;7.0;30.81;0.56;-25.8;178.32;5.9;50.14;2.0;991.27;56.653;35.95843;-83.924255;791.26;NaN;;3.42;821.0408;55.6;0 / 18;106008;2022-10-23 22:48:00:371
-8.1999;6.5312;3.14;-4.8;6.0191;6.0745;-0.7543;-0.8258;-6.8996;-1.2944;-0.0406;-0.2309;14.0;22.97;-1.03;-32.94;18.13;-43.33;47.21;2.0;991.15;71.969;35.95843;-83.924255;791.26;NaN;;3.42;821.0408;55.6;0 / 18;106508;2022-10-23 22:48:00:871
-4.0412;4.4231;2.9782;-7.1775;5.1208;4.2932;-2.4535;0.2658;1.5372;-1.8931;1.8904;0.7192;12.0;12.3;-37.71;-28.89;120.04;-43.41;50.91;2.0;991.21;67.753;35.95843;-83.924255;791.26;NaN;;3.42;821.0408;55.6;0 / 17;107008;2022-10-23 22:48:01:371
-4.0292;-0.9135;6.0679;-2.849;-1.688;9.2306;-3.6127;1.3802;-1.5418;-1.0994;-2.2462;-0.514;7.0;10.61;-23.44;-41.18;149.74;-1.97;32.28;2.0;991.19;62.829;35.95843;-83.924255;791.26;NaN;;3.42;821.0408;55.6;0 / 17;107508;2022-10-23 22:48:01:871
0.9972;1.445;8.2047;0.5153;1.8811;9.6107;-2.2633;-1.1531;-2.1043;0.5131;0.0546;0.7148;9.0;-27.81;-11.17;-43.97;99.48;-8.05;0.99;2.0;991.29;69.177;35.95843;-83.924255;791.26;NaN;;3.42;821.0408;55.6;0 / 18;108008;2022-10-23 22:48:02:371
-5.8379;3.2907;7.1632;-3.9398;4.2534;7.9093;-0.4358;0.6641;-0.2235;0.1688;1.2153;-0.8557;10.0;-45.26;-29.94;-31.54;113.14;-25.7;26.48;2.0;991.14;69.373;35.95843;-83.924255;791.26;NaN;;3.42;821.0408;55.6;0 / 18;108507;2022-10-23 22:48:02:870
-3.1819;0.8091;7.4515;-2.9783;1.8619;9.1561;0.353;-0.6008;1.0476;-0.1246;0.1103;0.3888;13.0;-41.55;-36.45;-38.36;121.44;-10.07;15.94;2.0;991.19;68.354;35.95843;-83.924255;791.26;NaN;;3.42;821.0408;55.6;0 / 18;109007;2022-10-23 22:48:03:370
-2.8035;1.1587;7.9232;-3.7141;1.4955;8.952;-0.0553;0.6365;-1.315;0.1205;-0.0281;0.4426;2.0;-51.06;-21.49;-46.27;104.93;-8.77;22.53;2.0;991.14;71.22;35.95843;-83.924255;791.26;NaN;;3.42;821.0408;55.6;0 / 18;109508;2022-10-23 22:48:03:871
-3.4822;-1.762;8.9061;-1.9276;0.1305;9.6144;-0.5568;-0.2665;0.0102;-0.8755;-0.2723;-1.9423;2.0;-50.19;-24.6;-42.68;108.96;-8.69;13.91;2.0;991.21;70.311;35.95843;-83.924255;791.26;NaN;;3.42;821.0408;55.6;0 / 18;110007;2022-10-23 22:48:04:370
-4.349;1.5371;10.783;-3.3104;1.2207;9.15;-2.9361;-1.9406;1.9162;0.0939;0.2083;1.1133;2.0;-54.11;-39.34;-34.87;121.59;-2.07;19.13;2.0;991.31;68.106;35.95843;-83.924255;791.26;NaN;;3.42;821.0408;55.6;0 / 18;110508;2022-10-23 22:48:04:871
-4.9415;2.2457;14.3192;-2.9881;2.4497;9.0133;0.4445;1.3894;-2.1118;0.0844;-0.2766;0.0829;2.0;-51.68;-42.07;-37.8;120.43;-14.14;19.8;2.0;991.21;65.76;35.95843;-83.924255;791.26;NaN;;3.42;821.0408;55.6;0 / 18;111007;2022-10-23 22:48:05:370
-2.3725;1.2712;8.6773;-3.0277;2.7754;8.9051;-0.7657;-0.8073;-1.9346;0.5537;-0.1335;0.8238;2.0;-43.29;-19.35;-36.58;106.4;-9.48;23.13;2.0;991.19;67.266;35.95843;-83.924255;791.26;NaN;;3.42;821.0408;55.6;0 / 18;111507;2022-10-23 22:48:05:870
-1.8972;2.5606;9.5812;-1.9824;2.5937;9.2473;-1.0931;1.1626;-0.2128;-0.7559;0.4175;0.0212;1.0;-40.43;-10.09;-32.96;91.92;-18.63;10.85;2.0;991.34;66.703;35.95843;-83.924255;791.26;NaN;;3.42;821.0408;55.6;0 / 18;112009;2022-10-23 22:48:06:372
-3.5659;0.8955;8.5756;-1.4101;1.2346;9.6259;-0.8858;0.2484;-0.1193;0.17;-0.0433;-0.2041;2.0;-33.68;9.21;-37.26;71.67;-8.83;11.26;2.0;991.39;69.387;35.95843;-83.924255;791.26;NaN;;3.42;821.0408;55.6;0 / 18;112509;2022-10-23 22:48:06:872
-1.9032;3.2931;5.8331;-1.5549;1.2281;9.6044;0.7512;-1.0028;4.0033;0.0878;0.0236;0.3924;2.0;-31.46;9.08;-34.54;69.15;-10.3;10.37;2.0;991.34;68.288;35.95843;-83.924255;791.26;NaN;;3.42;821.0408;55.6;0 / 18;113007;2022-10-23 22:48:07:370
-0.1065;2.691;10.0445;-1.5826;2.0024;9.4687;1.2174;0.9601;-0.3505;-0.0765;0.2793;0.3089;3.0;-24.9;-2.23;-21.66;86.49;-11.42;7.64;2.0;991.36;59.976;35.95843;-83.924255;791.26;NaN;;3.42;821.0408;55.6;0 / 18;113508;2022-10-23 22:48:07:871