ACCELEROMETER X (m/s²);ACCELEROMETER Y (m/s²);ACCELEROMETER Z (m/s²);GRAVITY X (m/s²);GRAVITY Y (m/s²);GRAVITY Z (m/s²);LINEAR ACCELERATION X (m/s²);LINEAR ACCELERATION Y (m/s²);LINEAR ACCELERATION Z (m/s²);GYROSCOPE X (rad/s);GYROSCOPE Y (rad/s);GYROSCOPE Z (rad/s);LIGHT (lux);MAGNETIC FIELD X (μT);MAGNETIC FIELD Y (μT);MAGNETIC FIELD Z (μT);ORIENTATION Z (azimuth °);ORIENTATION X (pitch °);ORIENTATION Y (roll °);PROXIMITY (i);ATMOSPHERIC PRESSURE (hPa);SOUND LEVEL (dB);LOCATION Latitude : ;LOCATION Longitude : ;LOCATION Altitude ( m);LOCATION Altitude-google ( m);LOCATION Altitude-atmospheric pressure ( m);LOCATION Speed ( Kmh);LOCATION Accuracy ( m);LOCATION ORIENTATION (°);Satellites in range;Time since start in ms ;YYYY-MO-DD HH-MI-SS_SSS
0.0945;3.0933;8.4775;-2.1043;2.9999;9.0963;0.7532;-1.0149;1.6281;0.9402;0.2567;-0.1452;3.0;38.76;-18.54;-7.44;249.92;-17.81;13.03;2.0;979.17;49.153;35.95845;-83.9243;741.94;NaN;;;55.396774;;0 / 15;17;2022-10-25 20:45:12:997
-5.5292;0.2536;6.8614;-3.0857;1.3696;9.2072;-2.7054;1.9389;-3.4351;1.5813;-1.9524;1.4176;2.0;46.48;-11.91;-13.91;261.96;-12.55;20.06;2.0;979.16;43.947;35.95845;-83.9243;741.94;NaN;;;55.396774;;0 / 15;517;2022-10-25 20:45:13:497
13.5362;-0.2489;6.4125;9.1096;1.7596;3.1763;5.518;-3.9617;3.0553;-1.412;-5.0085;1.3039;1.0;25.59;-28.05;-31.8;232.22;-10.34;-70.78;2.0;979.16;49.221;35.95845;-83.9243;741.94;NaN;;;55.396774;;0 / 15;1018;2022-10-25 20:45:13:998
11.458;1.9932;2.8466;9.6366;0.8637;1.6001;-1.193;0.8974;2.0825;2.7669;0.2769;-0.4011;0.0;-48.26;-33.24;-40.99;227.85;-0.31;-84.44;2.0;979.17;40.533;35.95845;-83.9243;741.94;NaN;;;55.396774;;0 / 15;1517;2022-10-25 20:45:14:497
7.6887;1.6089;-0.492;8.725;4.4711;0.2307;2.5242;-4.127;-0.9404;-0.2789;-0.6987;-0.0069;0.0;-37.44;-14.17;-9.49;321.94;-31.61;-85.53;2.0;979.14;55.42;35.95845;-83.9243;741.94;NaN;;;55.396774;;0 / 15;2018;2022-10-25 20:45:14:998
11.0812;4.2604;1.3119;8.8162;4.2244;0.7747;0.8961;3.5897;3.2394;1.8913;1.6193;-0.8962;0.0;-25.33;24.99;-16.5;332.26;-20.44;-91.89;2.0;979.17;51.061;35.95845;-83.9243;741.94;NaN;;;55.396774;;0 / 15;2517;2022-10-25 20:45:15:497
6.3562;4.6301;-0.9685;6.9397;6.837;1.1254;1.5915;-3.9654;-2.2325;-0.0563;-0.0526;0.9101;0.0;-2.76;-4.07;-56.83;275.69;-44.2;-80.79;2.0;979.1;52.76;35.95845;-83.9243;741.94;NaN;;;55.396774;;0 / 15;3017;2022-10-25 20:45:15:997
9.8435;7.6457;3.4331;7.0838;5.8896;3.3618;-0.5111;3.1386;3.4649;1.1078;1.6116;-0.2475;1.0;0.06;-7.33;-52.46;279.42;-36.91;-64.61;2.0;979.09;48.725;35.95845;-83.9243;741.94;NaN;;;55.396774;;0 / 15;3517;2022-10-25 20:45:16:497
2.1571;4.1572;5.6453;-0.083;4.1868;8.8676;2.6434;-0.3551;-1.4012;0.4776;-0.0893;-1.0208;3.0;31.33;3.08;-43.78;298.09;-22.32;-4.78;2.0;979.02;54.44;35.95845;-83.9243;741.94;NaN;;;55.396774;;0 / 15;4017;2022-10-25 20:45:16:997
0.0156;1.8362;6.8806;-2.2495;4.5502;8.3908;2.5906;-1.0325;0.6862;0.1298;0.0496;-0.736;4.0;51.15;1.29;-29.19;295.61;-27.65;15.01;2.0;979.02;45.011;35.95845;-83.9243;741.94;NaN;;;55.396774;;0 / 15;4517;2022-10-25 20:45:17:497
-0.2752;2.9399;7.8861;0.1481;4.4724;8.7262;-0.1673;-0.5816;-2.3385;-0.192;-1.2646;-1.1936;5.0;34.82;-7.42;-37.89;292.23;-28.99;3.55;2.0;978.99;40.315;35.95845;-83.9243;741.94;NaN;;;55.396774;;0 / 15;5017;2022-10-25 20:45:17:997
-0.6141;3.0607;7.0014;1.2659;3.1124;9.2131;0.5053;-0.4315;-2.7786;-0.995;-0.1271;-1.7786;6.0;10.93;1.43;-52.22;313.1;-18.5;-7.82;2.0;978.99;33.109;35.95845;-83.9243;741.94;NaN;;;55.396774;;0 / 15;5517;2022-10-25 20:45:18:497
1.9777;3.4223;5.3195;-0.2783;4.5819;8.666;2.4553;-1.7461;-3.3339;0.5667;-0.0373;-0.7369;4.0;6.02;2.81;-51.66;342.05;-21.41;-1.15;2.0;978.98;37.677;35.95845;-83.9243;741.94;NaN;;;55.396774;;0 / 15;6017;2022-10-25 20:45:18:997
-1.4151;2.6408;5.5101;0.0813;3.0863;9.308;2.4899;-0.4441;-0.8354;-1.6451;0.0683;-1.7488;6.0;9.53;-12.26;-47.55;289.49;-18.34;-0.5;2.0;978.98;37.783;35.95845;-83.9243;741.94;NaN;;;55.396774;;0 / 15;6517;2022-10-25 20:45:19:497
-1.908;2.8573;7.6816;-2.7995;2.7783;8.9785;2.0306;-2.0159;-1.5048;0.5966;0.8643;0.1809;4.0;13.24;-4.46;-39.17;295.26;-9.97;9.92;2.0;978.97;44.763;35.95845;-83.9243;741.94;NaN;;;55.396774;;0 / 15;7017;2022-10-25 20:45:19:997
1.5514;1.8015;7.6576;-1.4479;1.6531;9.5573;2.4408;-0.6282;-1.375;-0.0633;0.7959;-1.9705;2.0;5.91;-2.76;-37.67;356.1;-9.7;8.61;2.0;979.0;43.037;35.95845;-83.9243;741.94;NaN;;;55.396774;;0 / 15;7517;2022-10-25 20:45:20:497
-1.6364;0.1208;8.8008;-3.3125;2.6597;8.8387;-1.3002;-4.8748;4.8011;1.6614;1.2399;1.8041;1.0;-2.7;2.98;-36.88;68.54;-2.54;13.59;2.0;978.95;38.689;35.95845;-83.9243;741.94;NaN;;;55.396774;;0 / 15;8018;2022-10-25 20:45:20:998
-1.1886;3.2632;5.5244;-1.3001;4.0704;8.8268;2.9098;0.22;0.2137;0.3235;-0.9896;-1.7346;1.0;-1.95;-0.43;-42.41;34.76;-23.14;12.52;2.0;978.93;44.831;35.95845;-83.9243;741.94;NaN;;;55.396774;;0 / 15;8518;2022-10-25 20:45:21:498
1.8111;1.7369;11.2152;-0.1167;1.6167;9.6718;-4.9732;0.211;1.7693;-0.7355;0.2008;1.2767;1.0;-20.4;-7.2;-33.88;93.75;-9.49;0.69;2.0;978.93;38.908;35.95845;-83.9243;741.94;NaN;;;55.396774;;0 / 15;9018;2022-10-25 20:45:21:998
2.9219;2.819;8.4177;1.9419;1.4319;9.5052;3.1218;0.9322;4.9897;0.0742;-0.6186;-1.0649;1.0;-26.91;-8.17;-31.13;93.31;-11.3;-3.74;2.0;978.91;43.216;35.95845;-83.9243;741.94;NaN;;;55.396774;;0 / 15;9517;2022-10-25 20:45:22:497
-0.0538;3.4128;0.5925;1.1838;3.9363;8.9036;-1.5055;-0.7657;-6.4888;-1.3979;-0.514;0.3228;2.0;-37.65;-18.83;-21.02;98.71;-27.71;-5.15;2.0;978.87;37.066;35.95845;-83.9243;741.94;NaN;;;55.396774;;0 / 15;10017;2022-10-25 20:45:22:997
4.2999;-0.5997;10.5951;1.7598;-0.408;9.6388;-1.1802;-0.0771;-1.285;-0.4619;-0.2334;0.6636;3.0;-59.31;-35.89;-22.63;124.72;2.38;-10.35;2.0;978.88;36.437;35.95845;-83.9243;741.94;NaN;;;55.396774;;0 / 15;10518;2022-10-25 20:45:23:498
1.4653;2.254;13.0035;2.6923;0.9146;9.3854;-2.5379;0.2604;3.8525;0.6478;-0.0741;1.0859;5.0;-85.54;-24.34;-11.17;105.27;-3.41;-13.49;2.0;978.92;49.993;35.95845;-83.9243;741.94;NaN;;;55.396774;;0 / 15;11017;2022-10-25 20:45:23:997
5.1138;2.6157;12.4337;0.9748;2.5043;9.4313;0.105;-0.8122;-1.1868;-0.0411;0.5194;0.8943;5.0;-52.78;21.71;-22.12;60.76;-14.8;-5.9;2.0;978.83;44.158;35.95845;-83.9243;741.94;NaN;;;55.396774;;0 / 15;11519;2022-10-25 20:45:24:499
1.0307;3.5312;7.666;1.3367;2.9185;9.2664;1.0448;0.5378;-2.4289;0.1433;-0.2335;-0.5753;3.0;-32.32;18.75;-33.36;44.4;-14.87;-7.72;2.0;978.82;47.386;35.95845;-83.9243;741.94;NaN;;;55.396774;;0 / 15;12017;2022-10-25 20:45:24:997
1.9307;1.9534;7.2218;1.4933;1.9208;9.5;3.9702;-2.6047;2.653;0.2392;-0.001;-0.7607;5.0;-34.48;3.75;-34.61;67.38;-11.3;-8.93;2.0;978.78;47.338;35.95845;-83.9243;741.94;NaN;;;55.396774;;0 / 15;12518;2022-10-25 20:45:25:498
4.1477;2.7006;10.7291;2.1529;1.7964;9.3973;-0.4365;0.4221;0.5523;-0.7398;-0.3124;-0.7308;12.0;-42.71;-14.21;-35.61;99.35;-10.56;-12.9;2.0;978.83;36.098;35.95845;-83.9243;741.94;NaN;;;55.396774;;0 / 15;13017;2022-10-25 20:45:25:997
0.8596;1.1958;12.6191;0.859;1.2923;9.6831;-0.1411;0.1126;1.6306;0.5986;0.7503;-0.336;19.0;-36.0;-32.68;-31.37;130.44;-7.57;-5.07;2.0;978.81;40.938;35.95845;-83.9243;741.94;NaN;;;55.396774;;0 / 15;13517;2022-10-25 20:45:26:497
0.8692;1.8577;9.2578;-0.4962;1.7634;9.634;0.6804;0.1157;-0.251;0.1636;0.595;-0.5306;14.0;-15.36;-40.07;-33.11;157.7;-9.49;-1.87;2.0;978.82;36.672;35.95845;-83.9243;741.94;NaN;;;55.396774;;0 / 15;14018;2022-10-25 20:45:26:998
-1.3394;-0.4382;8.7805;1.1288;-0.6035;9.7227;-1.7233;1.276;-2.3576;-1.5562;0.0248;-1.1189;10.0;-2.32;-41.38;-28.46;181.72;-5.22;-6.43;2.0;978.8;37.796;35.95845;-83.9243;741.94;NaN;;;55.396774;;0 / 15;14518;2022-10-25 20:45:27:498
2.6659;0.3712;5.6381;0.7471;0.3997;9.77;2.0675;-1.2559;-1.5653;0.5342;0.2719;-1.4186;18.0;4.13;-34.11;-30.43;190.84;-2.34;-4.37;2.0;978.79;36.356;35.95845;-83.9243;741.94;NaN;;;55.396774;;0 / 15;15018;2022-10-25 20:45:27:998
0.7457;-0.1747;8.6797;2.7361;-0.4784;9.4051;-2.1993;0.7211;-0.8557;-0.5955;-0.1834;-0.6393;10.0;8.66;-24.53;-27.97;211.12;2.76;-14.67;2.0;978.81;35.319;35.95845;-83.9243;741.94;NaN;;;55.396774;;0 / 15;15517;2022-10-25 20:45:28:497
3.1196;-0.7433;9.8291;1.3775;0.1879;9.7076;0.5562;-0.8296;-2.2668;0.0448;0.4678;-0.1116;3.0;3.6;-9.13;-31.91;227.09;3.99;-14.53;2.0;978.81;43.785;35.95845;-83.9243;741.94;NaN;;;55.396774;;0 / 15;16017;2022-10-25 20:45:28:997
3.6329;-0.7457;7.7055;4.542;-1.1298;8.6177;-1.808;-1.0951;1.4838;0.6467;-0.2402;0.3689;2.0;8.76;-0.9;-36.94;259.81;6.88;-26.93;2.0;978.76;43.148;35.95845;-83.9243;741.94;NaN;;;55.396774;;0 / 15;16517;2022-10-25 20:45:29:497
3.9849;-0.2249;7.5688;4.4637;-0.4616;8.7197;-0.0191;-0.4263;-0.6231;0.8963;-0.2306;-0.13;3.0;-1.31;1.97;-43.78;270.4;2.7;-27.11;2.0;978.77;47.654;35.95845;-83.9243;741.94;NaN;;;55.396774;;0 / 15;17017;2022-10-25 20:45:29:997
3.2106;0.8608;8.79;-0.0106;0.2155;9.8043;1.9492;-1.1904;2.7806;0.568;1.3527;0.7083;3.0;3.54;-5.4;-45.66;224.73;-1.26;0.06;2.0;978.75;42.719;35.95845;-83.9243;741.94;NaN;;;55.396774;;0 / 15;17517;2022-10-25 20:45:30:497
-2.0064;-1.2461;7.7928;0.2283;-0.1969;9.802;-0.8276;-1.7023;-0.1239;1.5354;-0.0674;0.6502;2.0;13.84;0.92;-44.14;270.47;1.15;-1.33;2.0;978.76;55.418;35.95845;-83.9243;741.94;NaN;;;55.396774;;0 / 15;18018;2022-10-25 20:45:30:998
-1.8948;0.4478;7.497;-3.4946;-0.3959;9.1543;0.7319;-0.1299;3.0015;0.694;0.6642;-0.5992;2.0;22.61;1.37;-39.58;257.13;3.89;18.58;2.0;978.71;46.873;35.95845;-83.9243;741.94;NaN;;;55.396774;;0 / 15;18518;2022-10-25 20:45:31:498
-4.3633;-1.7895;8.6043;-3.4216;0.7522;9.1595;-1.3832;-1.193;-1.6834;-0.7491;-0.6586;1.7921;2.0;36.96;12.81;-28.69;307.1;-2.25;27.54;2.0;978.67;46.171;35.95845;-83.9243;741.94;NaN;;;55.396774;;0 / 15;19018;2022-10-25 20:45:31:998
-5.5232;-3.0823;13.9457;-3.2054;-0.57;9.2505;-0.3959;1.9205;0.7369;-0.6689;-0.5886;-1.0749;3.0;45.54;7.41;-26.01;277.63;3.33;19.11;2.0;978.66;38.784;35.95845;-83.9243;741.94;NaN;;;55.396774;;0 / 15;19517;2022-10-25 20:45:32:497
-0.6105;1.252;9.6912;-1.1838;1.545;9.6116;1.7168;-1.2496;-0.6515;0.7236;-0.7348;-0.6678;6.0;47.31;7.65;-23.14;284.73;-4.97;12.29;2.0;978.65;45.888;35.95845;-83.9243;741.94;NaN;;;55.396774;;0 / 15;20018;2022-10-25 20:45:32:998
-1.5072;1.8888;7.5906;-2.5378;4.0783;8.5497;0.7781;-2.4521;0.8907;0.5128;-0.2036;-1.5786;4.0;46.84;4.07;-30.58;300.75;-24.57;16.53;2.0;978.63;48.894;35.95845;-83.9243;741.94;NaN;;;55.396774;;0 / 15;20518;2022-10-25 20:45:33:498
-3.1436;3.2429;9.1119;-3.8758;3.6079;8.2542;-0.2792;-0.0878;3.8061;1.2021;-0.2766;-1.121;3.0;16.5;-1.39;-24.24;331.91;-21.59;25.15;2.0;978.67;51.511;35.95845;-83.9243;741.94;NaN;;;55.396774;;0 / 15;21017;2022-10-25 20:45:33:997
-3.7253;5.1808;8.7924;-4.6097;5.1411;6.9635;-1.266;-0.0211;3.7226;-0.7307;-0.4337;-0.1014;3.0;-3.41;-14.14;-21.75;95.01;-36.6;33.46;2.0;978.62;38.104;35.95845;-83.9243;741.94;NaN;;;55.396774;;0 / 15;21517;2022-10-25 20:45:34:497
-4.6828;2.5391;8.2334;-4.9388;3.9938;7.4719;0.2239;-1.3588;0.8391;0.9108;-0.8815;-1.4135;2.0;-9.58;-18.32;-15.15;129.31;-23.94;33.11;2.0;978.64;39.079;35.95845;-83.9243;741.94;NaN;;;55.396774;;0 / 15;22018;2022-10-25 20:45:34:998
-6.2856;0.874;11.785;-5.2965;1.9509;8.0194;-2.6987;-1.3518;4.9939;-0.154;-1.1817;0.1387;2.0;-1.97;4.28;-2.42;35.3;-8.1;41.21;2.0;978.66;39.263;35.95845;-83.9243;741.94;NaN;;;55.396774;;0 / 15;22517;2022-10-25 20:45:35:497
-5.4598;-0.3317;8.3088;-5.1761;1.7945;8.1338;-2.3368;-3.0749;1.3785;1.4218;-1.3392;-0.4994;2.0;-37.8;13.67;4.69;72.51;-10.54;32.47;2.0;978.64;38.45;35.95845;-83.9243;741.94;NaN;;;55.396774;;0 / 15;23017;2022-10-25 20:45:35:997
-0.7875;2.5439;6.2785;-2.0522;2.113;9.3538;-3.71;-2.1524;1.5939;0.6441;-0.9541;0.7925;2.0;-34.24;-20.7;-3.06;122.35;-12.44;12.37;2.0;978.61;40.13;35.95845;-83.9243;741.94;NaN;;;55.396774;;0 / 15;23517;2022-10-25 20:45:36:497
-2.0626;1.6436;8.359;-2.5689;2.6949;9.0724;0.1115;-0.7987;1.0362;0.109;-0.4685;-0.119;1.0;-25.14;-29.21;-3.88;138.78;-15.95;15.81;2.0;978.56;39.842;35.95845;-83.9243;741.94;NaN;;;55.396774;;0 / 15;24017;2022-10-25 20:45:36:997
-4.0819;1.89;7.8096;-4.9449;1.774;8.2808;1.1853;0.3852;-0.3946;-0.4671;-0.0157;0.1813;0.0;0.99;-32.78;5.03;185.2;-10.23;25.06;2.0;978.56;42.797;35.95845;-83.9243;741.94;NaN;;;55.396774;;0 / 15;24518;2022-10-25 20:45:37:498
-4.7342;0.8354;6.2701;-4.2679;2.0683;8.5835;-0.3431;-2.0868;2.7851;2.4323;-0.315;-1.3427;2.0;7.56;-18.32;10.84;213.79;-3.25;28.24;2.0;978.54;46.597;35.95845;-83.9243;741.94;NaN;;;55.396774;;0 / 15;25017;2022-10-25 20:45:37:997
-2.0064;1.2221;6.7621;-4.3863;1.6208;8.62;1.1706;-0.858;-1.4363;-0.1626;0.4139;0.203;2.0;-2.79;-10.37;-11.59;135.71;-9.51;26.97;2.0;978.55;42.987;35.95845;-83.9243;741.94;NaN;;;55.396774;;0 / 15;25517;2022-10-25 20:45:38:497
-5.3773;-1.5814;11.0381;-5.1553;1.1622;8.2609;2.0029;-0.2685;2.0165;1.1104;0.1077;-0.8237;2.0;-6.51;-10.82;-18.15;124.63;-1.28;32.39;2.0;978.5;46.684;35.95845;-83.9243;741.94;NaN;;;55.396774;;0 / 15;26017;2022-10-25 20:45:38:997
-8.3411;-0.4501;10.7842;-4.288;0.6221;8.7975;-3.0889;-1.2557;2.6884;-0.2924;0.1052;0.9867;2.0;-6.98;-20.12;-25.91;136.56;-3.64;25.98;2.0;978.51;44.774;35.95845;-83.9243;741.94;NaN;;;55.396774;;0 / 15;26519;2022-10-25 20:45:39:499
-2.7808;-3.2979;12.3033;-3.3771;-0.8714;9.1655;2.5988;-0.5486;5.6244;0.8059;0.0783;-1.2811;5.0;-20.47;-8.4;-32.14;108.57;5.1;20.23;2.0;978.5;41.594;35.95845;-83.9243;741.94;NaN;;;55.396774;;0 / 15;27018;2022-10-25 20:45:39:998
-4.1788;-0.7911;9.4149;-3.0215;0.5913;9.3108;-1.9417;-0.7968;2.16;-0.1052;0.4618;0.0997;6.0;-21.73;-13.58;-30.94;114.06;-1.75;16.07;2.0;978.47;41.911;35.95845;-83.9243;741.94;NaN;;;55.396774;;0 / 15;27518;2022-10-25 20:45:40:498
-0.3329;1.1815;14.3492;-1.7516;2.1844;9.3984;-0.7512;-0.8553;1.7058;1.0975;-1.094;-1.5299;5.0;-16.61;-7.91;-32.79;98.61;-8.66;14.15;2.0;978.44;39.515;35.95845;-83.9243;741.94;NaN;;;55.396774;;0 / 15;28017;2022-10-25 20:45:40:997
-5.7649;-1.0415;10.7375;-4.915;2.9513;7.9563;2.9865;4.7908;-1.1983;-0.713;1.1847;-2.1856;5.0;-11.19;-8.79;-32.38;82.57;-21.97;13.32;2.0;978.43;46.967;35.95845;-83.9243;741.94;NaN;;;55.396774;;0 / 15;28519;2022-10-25 20:45:41:499
-4.1477;1.8326;8.924;-3.6395;0.4367;9.0958;-0.4266;1.5726;-1.053;-0.037;-0.5558;-0.124;4.0;10.35;-6.98;-31.93;154.69;-2.55;21.81;2.0;978.43;35.444;35.95845;-83.9243;741.94;NaN;;;55.396774;;0 / 15;29018;2022-10-25 20:45:41:998
-1.4127;-1.0247;9.2447;-1.0288;0.5353;9.7378;0.9377;-0.9649;1.6751;1.1295;0.4286;-0.8096;5.0;-9.36;-9.49;-33.77;119.87;-3.13;6.03;2.0;978.41;33.303;35.95845;-83.9243;741.94;NaN;;;55.396774;;0 / 15;29518;2022-10-25 20:45:42:498
2.4921;-1.5227;9.6577;-2.8561;-0.6165;9.3612;1.5019;0.4948;0.5215;-0.5182;0.137;0.0723;6.0;-13.65;-21.9;-34.74;135.24;3.6;16.97;2.0;978.42;36.551;35.95845;-83.9243;741.94;NaN;;;55.396774;;0 / 15;30019;2022-10-25 20:45:42:999
-2.9746;-3.1819;10.1198;-2.8054;-0.3549;9.3901;0.5967;-2.8387;1.4099;0.9991;-0.2695;-1.4333;7.0;-3.66;-31.14;-31.46;158.53;4.21;17.19;2.0;978.44;38.124;35.95845;-83.9243;741.94;NaN;;;55.396774;;0 / 15;30518;2022-10-25 20:45:43:498
-3.4642;-0.0191;8.1676;-2.9553;-0.9411;9.3033;0.3667;-1.958;3.3566;0.4984;0.0715;-0.5618;4.0;20.08;-43.5;-13.01;198.42;7.88;17.91;2.0;978.41;35.197;35.95845;-83.9243;741.94;NaN;;;55.396774;;0 / 15;31018;2022-10-25 20:45:43:998
-5.7446;-3.4642;5.6668;-3.8275;-0.2372;9.0257;-0.8436;-2.5657;0.9646;1.732;-0.1769;-1.0308;2.0;25.29;-34.48;-7.54;210.04;1.39;22.98;2.0;978.44;43.648;35.95845;-83.9243;741.94;NaN;;;55.396774;;0 / 15;31517;2022-10-25 20:45:44:497
-5.5543;-0.4765;7.6074;-5.9694;-1.3871;7.6559;1.2773;-0.4909;-1.4643;-0.5671;-0.2644;0.3686;2.0;32.61;-18.51;-1.01;230.24;5.99;38.08;2.0;978.39;46.114;35.95845;-83.9243;741.94;NaN;;;55.396774;;0 / 15;32017;2022-10-25 20:45:44:997
-8.2537;-3.0691;5.1461;-6.9432;0.0829;6.925;-2.2261;-2.9238;-0.529;0.7201;-1.0308;-0.4399;1.0;32.51;-13.01;1.88;242.6;-0.48;45.08;2.0;978.34;52.072;35.95845;-83.9243;741.94;NaN;;;55.396774;;0 / 15;32517;2022-10-25 20:45:45:497
-9.1394;1.276;12.4253;-8.7233;1.9712;4.0234;3.8006;0.4699;-0.4413;-1.448;0.1632;-0.2592;1.0;24.71;-14.59;7.69;238.65;-11.6;65.24;2.0;978.32;50.965;35.95845;-83.9243;741.94;NaN;;;55.396774;;0 / 15;33017;2022-10-25 20:45:45:997
-7.3271;3.839;6.8794;-3.4644;3.5148;8.4743;-11.3664;-4.151;-0.6787;-0.2628;-2.2139;5.3916;1.0;21.21;-12.02;9.3;247.74;-20.77;39.15;2.0;978.27;45.083;35.95845;-83.9243;741.94;NaN;;;55.396774;;0 / 15;33517;2022-10-25 20:45:46:497
-2.3378;3.7337;9.0473;-4.7841;2.5029;8.1865;2.7171;1.2973;1.2149;0.3412;0.5262;-0.0894;1.0;18.79;-12.62;-2.96;238.65;-15.3;25.37;2.0;978.26;44.729;35.95845;-83.9243;741.94;NaN;;;55.396774;;0 / 15;34017;2022-10-25 20:45:46:997
-7.8036;0.5913;5.1281;-4.0554;0.7449;8.8977;0.0755;-0.2439;-0.7993;0.4652;-0.548;-1.0752;5.0;17.79;-1.74;-5.42;264.47;-2.94;25.22;2.0;978.24;44.897;35.95845;-83.9243;741.94;NaN;;;55.396774;;0 / 15;34517;2022-10-25 20:45:47:497
-2.6862;-0.8441;9.4831;-5.4591;-0.9362;8.0927;2.8219;-0.1833;-0.6979;0.2225;-0.3005;0.3441;6.0;13.84;8.66;-10.11;320.98;5.48;34.0;2.0;978.22;46.749;35.95845;-83.9243;741.94;NaN;;;55.396774;;0 / 15;35017;2022-10-25 20:45:47:997
-4.7557;-2.0459;9.9523;-3.701;1.4671;8.9622;-0.2276;-1.5633;2.4241;2.1391;-0.7681;-1.2658;8.0;15.21;8.01;-18.11;330.7;2.34;30.08;2.0;978.21;48.127;35.95845;-83.9243;741.94;NaN;;;55.396774;;0 / 15;35518;2022-10-25 20:45:48:498
-1.9546;3.2189;7.6552;-2.7057;1.7168;9.2684;0.4426;0.5441;-2.8067;-0.3038;0.1504;0.0212;3.0;23.61;-9.28;-23.81;257.39;-10.08;16.27;2.0;978.18;48.598;35.95845;-83.9243;741.94;NaN;;;55.396774;;0 / 15;36018;2022-10-25 20:45:48:998
-2.2481;-1.986;11.4556;-1.2036;-0.1321;9.7316;-0.4005;-1.8114;1.5959;0.3119;-0.2638;-0.5738;5.0;28.84;-15.58;-29.74;238.07;-1.44;8.42;2.0;978.19;42.219;35.95845;-83.9243;741.94;NaN;;;55.396774;;0 / 15;36518;2022-10-25 20:45:49:498
0.5973;1.6101;8.621;-1.8988;1.8349;9.4445;1.472;-0.3909;-0.2843;0.5208;0.0147;-1.0801;8.0;26.27;-11.36;-35.29;252.51;-5.81;5.08;2.0;978.18;34.634;35.95845;-83.9243;741.94;NaN;;;55.396774;;0 / 15;37019;2022-10-25 20:45:49:999
-3.542;1.1396;9.4831;-4.2165;1.7178;8.6856;2.1466;-0.6636;-0.5129;0.5952;-0.0935;-1.3877;6.0;36.86;-11.68;-19.65;256.64;-10.09;25.89;2.0;978.17;39.957;35.95845;-83.9243;741.94;NaN;;;55.396774;;0 / 15;37519;2022-10-25 20:45:50:499
-0.8465;0.1543;7.8598;-1.7279;2.0411;9.435;-0.5473;-2.4954;1.0458;0.3044;-0.9441;-1.6259;4.0;35.87;-2.81;-18.15;275.16;-13.18;12.26;2.0;978.15;35.386;35.958305;-83.92432;778.71;NaN;;;282.58063;;0 / 15;38019;2022-10-25 20:45:50:999
-7.7617;0.3628;8.5301;-5.8728;1.6813;7.6717;-4.6395;1.6837;0.4413;-1.1669;0.4143;1.5602;3.0;24.43;-0.09;-27.92;342.11;-9.87;37.43;2.0;978.19;35.665;35.958305;-83.92432;778.71;NaN;;;282.58063;;0 / 15;38518;2022-10-25 20:45:51:498
-3.2847;0.4047;12.0903;-5.4405;-0.441;8.1472;0.9453;2.1597;0.651;0.3822;-0.7426;-1.9529;2.0;28.05;-10.86;-32.53;201.0;2.58;33.73;2.0;978.16;37.208;35.958305;-83.92432;778.71;NaN;;;282.58063;;0 / 15;39018;2022-10-25 20:45:51:998
-7.0074;-2.1547;6.1289;-5.6185;-0.1361;8.0364;1.1506;-1.0276;-1.1407;-0.5482;1.0168;-0.4834;2.0;30.28;-10.31;-34.59;260.06;-9.95;24.95;2.0;978.14;42.987;35.958305;-83.92432;778.71;NaN;;;282.58063;;0 / 15;39518;2022-10-25 20:45:52:498
-5.3509;-0.5243;7.9161;-7.7784;-1.1985;5.8507;1.9516;1.3258;1.4943;-0.8682;-0.82;-0.8924;3.0;36.64;-5.02;-26.14;208.26;7.1;47.73;2.0;978.15;41.574;35.958305;-83.92432;778.71;NaN;;;282.58063;;0 / 15;40018;2022-10-25 20:45:52:998
-10.7518;-4.4758;3.5647;-7.5289;0.6104;6.2541;1.2694;-2.0835;-2.7811;0.7701;1.3702;-0.1187;3.0;34.31;2.38;-21.15;295.35;-4.99;41.96;2.0;978.09;53.418;35.958305;-83.92432;778.71;NaN;;;282.58063;;0 / 15;40518;2022-10-25 20:45:53:498
-10.1856;1.2461;6.2043;-9.4175;-1.5567;2.2491;-2.7908;2.7651;3.9948;0.1099;-0.0988;0.3124;2.0;31.44;9.75;-5.98;344.33;9.13;76.57;2.0;978.09;47.541;35.958305;-83.92432;778.71;NaN;;;282.58063;;0 / 15;41018;2022-10-25 20:45:53:998
-6.0021;1.0283;3.542;-4.5032;4.519;7.4478;-1.8659;-5.7705;-3.3006;0.8401;-2.3142;0.8956;2.0;19.43;6.51;-10.14;342.18;-23.25;49.53;2.0;978.05;51.239;35.958305;-83.92432;778.71;NaN;;;282.58063;;0 / 15;41518;2022-10-25 20:45:54:498
-2.8155;3.7959;8.9192;-3.6099;2.3837;8.801;0.7475;1.2911;-1.1143;-0.6792;-0.4153;-0.1232;2.0;-23.36;-13.61;-35.79;102.28;-14.07;22.3;2.0;978.08;45.139;35.958305;-83.92432;778.71;NaN;;;282.58063;;0 / 15;42018;2022-10-25 20:45:54:998
-3.0212;1.9896;6.7729;-3.3048;1.6693;9.0809;0.5506;0.2921;-1.3319;0.1823;1.1738;-0.4603;4.0;-16.43;-19.54;-38.31;119.86;-8.61;16.49;2.0;978.03;45.528;35.958305;-83.92432;778.71;NaN;;;282.58063;;0 / 15;42517;2022-10-25 20:45:55:497
-5.8857;0.8608;7.8491;-7.8718;0.2395;5.8435;2.84;1.4494;0.3982;-0.5769;0.4644;0.4594;5.0;25.16;0.83;-32.27;82.61;-0.29;51.13;2.0;978.0;49.125;35.958305;-83.92432;778.71;NaN;;;282.58063;;0 / 15;43017;2022-10-25 20:45:55:997
-8.1616;-4.9343;4.5308;-7.7001;0.1173;6.0717;-7.0429;-6.3942;0.2736;1.7561;-1.9359;0.0582;6.0;34.37;15.71;-26.23;357.79;-0.69;51.74;2.0;978.01;59.57;35.958305;-83.92432;778.71;NaN;;;282.58063;;0 / 15;43518;2022-10-25 20:45:56:498
-6.853;4.9989;8.7829;-5.4213;3.247;7.4991;-0.1074;0.1542;0.5796;1.2302;-0.2201;-0.3309;6.0;24.98;4.78;-34.44;358.36;-10.0;35.85;2.0;978.0;59.8;35.958305;-83.92432;778.71;NaN;;;282.58063;;0 / 15;44019;2022-10-25 20:45:56:999
-4.957;2.563;6.5755;-6.3129;3.1025;6.8331;-2.4454;0.5036;-1.9754;1.0655;-2.2559;0.0853;4.0;24.88;-5.74;-33.88;31.87;-18.44;42.73;2.0;977.96;40.283;35.958305;-83.92432;778.71;NaN;;;282.58063;;0 / 15;44517;2022-10-25 20:45:57:497
-6.7382;-2.0016;13.3687;-4.0128;1.5322;8.8159;1.2023;1.6119;0.598;-1.0115;-0.3046;-1.0991;5.0;1.13;-8.12;-49.33;92.57;-8.99;24.47;2.0;977.98;40.156;35.958305;-83.92432;778.71;NaN;;;282.58063;;0 / 15;45017;2022-10-25 20:45:57:997
-1.7297;0.6739;9.1693;-2.6464;1.9038;9.2489;1.3444;-1.0103;0.0288;1.3116;-0.2241;-1.5786;7.0;-5.31;-18.11;-45.34;131.6;-3.98;15.64;2.0;977.94;33.295;35.958305;-83.92432;778.71;NaN;;;282.58063;;0 / 15;45517;2022-10-25 20:45:58:497
-2.9291;2.8801;8.0082;-3.4308;2.8089;8.747;-0.5836;0.3162;-1.3425;0.0089;-0.2727;-0.6231;7.0;11.83;-28.78;-29.27;188.89;-16.02;16.97;2.0;977.93;36.327;35.958305;-83.92432;778.71;NaN;;;282.58063;;0 / 15;46017;2022-10-25 20:45:58:997
-4.8553;-1.0128;9.9141;-4.7673;1.7497;8.3894;-0.7648;0.1961;5.2578;1.2031;-0.0994;-0.8243;5.0;31.44;-22.29;-20.16;219.82;-3.75;30.6;2.0;977.93;46.834;35.958305;-83.92432;778.71;NaN;;;282.58063;;0 / 15;46517;2022-10-25 20:45:59:497
-2.2481;-1.331;7.1704;-2.6156;4.1165;8.5078;-1.3466;-4.5531;-0.1492;-0.1594;1.4964;1.6302;1.0;31.41;-18.15;-27.96;266.58;-24.82;17.09;2.0;977.9;40.008;35.958305;-83.92432;778.71;NaN;;;282.58063;;0 / 15;47018;2022-10-25 20:45:59:998
-2.0483;3.9323;9.3562;-3.3685;2.4879;8.8676;0.0388;1.1444;3.1887;1.1462;-0.3399;-0.1507;1.0;21.15;-24.56;-31.65;209.35;-14.7;20.8;2.0;977.89;41.449;35.958305;-83.92432;778.71;NaN;;;282.58063;;0 / 15;47518;2022-10-25 20:46:00:498
-7.5763;2.3354;8.129;-1.6797;2.3918;9.361;1.0584;-0.0991;-1.7255;-0.4174;0.3922;-0.7967;1.0;17.49;-26.25;-32.12;213.41;-14.12;10.17;2.0;977.88;42.65;35.958305;-83.92432;778.71;NaN;;;282.58063;;0 / 15;48018;2022-10-25 20:46:00:998
-1.6819;2.059;7.6349;-4.5278;1.5998;8.5505;2.2415;0.1778;-0.0761;0.6543;0.1025;-0.1698;1.0;15.68;-21.21;-34.99;171.06;-6.78;28.39;2.0;977.86;44.655;35.958305;-83.92432;778.71;NaN;;;282.58063;;0 / 15;48517;2022-10-25 20:46:01:497
-2.193;0.6224;5.971;-1.0339;1.8594;9.5731;-3.0037;-2.9587;-1.8314;0.4949;-1.5629;-0.2209;2.0;5.59;-19.31;-32.81;162.45;-15.08;15.53;2.0;977.82;42.648;35.958305;-83.92432;778.71;NaN;;;282.58063;;0 / 15;49017;2022-10-25 20:46:01:997
-0.8895;0.6858;10.4001;-1.7173;0.8568;9.617;1.3224;0.2814;-3.3674;-0.6416;0.4276;1.0278;2.0;-12.81;-13.13;-29.06;120.77;-5.01;10.12;2.0;977.82;48.892;35.958305;-83.92432;778.71;NaN;;;282.58063;;0 / 15;49517;2022-10-25 20:46:02:497
0.189;1.8422;6.5551;0.0849;2.5425;9.471;-1.604;-2.0435;1.2206;0.5929;-0.2569;-0.594;2.0;-14.61;-8.01;-25.18;99.39;-12.29;0.84;2.0;977.79;42.755;35.958305;-83.92432;778.71;NaN;;;282.58063;;0 / 15;50017;2022-10-25 20:46:02:997
-2.3079;1.1324;7.4492;-2.1541;1.6739;9.4196;-1.4381;-1.3201;2.2163;0.1466;-0.1679;0.5237;2.0;-19.48;-13.42;-17.36;115.63;-9.83;12.88;2.0;977.78;39.247;35.958305;-83.92432;778.71;NaN;;;282.58063;;0 / 15;50518;2022-10-25 20:46:03:498
0.2177;-1.7907;13.6965;-0.5976;0.6116;9.7693;0.8;1.4706;0.4608;-0.1326;-0.4032;0.274;4.0;-18.77;-7.8;-19.07;108.86;-3.58;3.5;2.0;977.77;44.442;35.958305;-83.92432;778.71;NaN;;;282.58063;;0 / 15;51017;2022-10-25 20:46:03:997
-1.0546;-1.2138;12.7116;-0.8675;0.7539;9.7391;-0.9098;-0.9376;1.962;0.0094;0.0924;-0.1051;5.0;-16.86;-11.27;-22.72;118.1;-2.43;4.84;2.0;977.76;41.575;35.958305;-83.92432;778.71;NaN;;;282.58063;;0 / 15;51518;2022-10-25 20:46:04:498
0.1376;2.193;9.1621;-1.333;0.9598;9.6681;1.3458;1.3692;-0.3457;-0.1253;-0.0044;-1.2647;8.0;-5.91;-25.91;-25.48;159.7;-7.87;5.33;2.0;977.74;41.348;35.958305;-83.92432;778.71;NaN;;;282.58063;;0 / 15;52018;2022-10-25 20:46:04:998
1.9499;0.5997;8.1784;0.2937;1.4765;9.6904;0.9705;-1.9825;-1.6147;0.2845;-0.6059;-1.4768;10.0;22.71;-37.44;-29.14;213.67;-6.12;1.15;2.0;977.73;43.42;35.958305;-83.92432;778.71;NaN;;;282.58063;;0 / 15;52518;2022-10-25 20:46:05:498
-2.904;1.7297;8.2609;-1.8446;2.0859;9.403;-0.3042;-1.1826;2.5323;0.3455;0.1747;-0.2311;11.0;51.26;-27.09;-27.92;247.55;-12.28;11.1;2.0;977.72;40.575;35.958305;-83.92432;778.71;NaN;;;282.58063;;0 / 15;53017;2022-10-25 20:46:05:997
-1.5969;1.4282;11.3037;-2.2726;2.21;9.2802;1.3341;0.4077;0.3327;0.4037;0.1403;-0.9731;9.0;46.86;-24.88;-22.74;247.31;-13.02;13.76;2.0;977.71;39.19;35.958305;-83.92432;778.71;NaN;;;282.58063;;0 / 15;53518;2022-10-25 20:46:06:498
-2.8394;-0.1723;13.1195;-2.8245;2.909;8.9292;0.4996;-0.0648;0.2006;-0.6877;0.3364;-0.1632;8.0;36.32;-11.42;-21.67;267.8;-17.26;17.55;2.0;977.71;39.661;35.958305;-83.92432;778.71;NaN;;;282.58063;;0 / 15;54019;2022-10-25 20:46:06:999
-7.0807;1.9092;13.153;-5.0647;1.7582;8.2115;0.9023;1.1826;3.5397;0.1941;1.2251;-0.4357;4.0;19.37;-1.41;-20.83;311.64;-13.06;30.03;2.0;977.71;38.376;35.958305;-83.92432;778.71;NaN;;;282.58063;;0 / 15;54518;2022-10-25 20:46:07:498
-5.6692;4.4267;4.2532;-4.981;4.7081;7.0138;-1.8796;-0.8398;-0.0751;1.1344;-0.2011;-0.1797;2.0;14.44;-11.59;-12.56;249.27;-27.46;28.63;2.0;977.68;42.667;35.958305;-83.92432;778.71;NaN;;;282.58063;;0 / 15;55018;2022-10-25 20:46:07:998
-5.6046;6.4041;8.3112;-5.6713;4.0625;6.8922;-0.5349;2.2015;1.5271;0.5605;-0.1721;-0.6777;2.0;20.66;-18.41;0.0;236.2;-24.47;39.45;2.0;977.69;44.969;35.958305;-83.92432;778.71;NaN;;;282.58063;;0 / 15;55518;2022-10-25 20:46:08:498
-4.404;6.7621;5.5878;-5.1023;6.3326;5.4805;0.9574;-2.4028;1.2006;1.1951;0.1974;0.0137;0.0;22.01;-12.73;3.34;264.15;-40.66;41.17;2.0;977.65;45.587;35.958305;-83.92432;778.71;NaN;;;282.58063;;0 / 15;56018;2022-10-25 20:46:08:998
-5.8403;6.0165;4.1094;-5.645;5.8553;5.4791;0.2482;-0.4399;0.4307;0.6438;-0.0693;-0.3557;0.0;9.02;-12.75;-2.77;217.7;-36.66;45.85;2.0;977.63;40.906;35.958305;-83.92432;778.71;NaN;;;282.58063;;0 / 15;56518;2022-10-25 20:46:09:498
-4.5176;5.6249;6.0176;-4.7892;5.9582;6.1427;0.5721;-1.7311;-1.6666;0.1909;0.0153;-0.4739;0.0;7.24;-15.34;-3.06;203.69;-37.04;39.78;2.0;977.62;50.619;35.958305;-83.92432;778.71;NaN;;;282.58063;;0 / 15;57018;2022-10-25 20:46:09:998
-4.55;4.5799;4.6445;-5.6782;5.596;5.7108;1.54;-1.2677;-1.7479;0.2598;0.1996;-0.0208;0.0;12.56;-10.42;-2.62;253.56;-33.78;40.85;2.0;977.6;47.293;35.958305;-83.92432;778.71;NaN;;;282.58063;;0 / 15;57518;2022-10-25 20:46:10:498
-3.3685;3.256;5.0994;-4.4368;5.5363;6.7701;-0.9345;-2.2567;-1.4448;-0.2878;-1.1246;0.3147;0.0;15.56;-5.29;-3.07;281.13;-30.55;39.57;2.0;977.58;48.5;35.958305;-83.92432;778.71;NaN;;;282.58063;;0 / 15;58018;2022-10-25 20:46:10:998
-2.0267;4.6505;5.8259;-3.7118;5.8085;6.9753;-2.1791;-2.2924;0.1742;0.5677;0.3734;0.8794;1.0;17.55;2.42;-7.61;311.68;-36.32;28.02;2.0;977.54;49.156;35.958305;-83.92432;778.71;NaN;;;282.58063;;0 / 15;58517;2022-10-25 20:46:11:497
-2.6779;4.2987;5.7482;-4.0986;5.3755;7.1046;-1.2757;-1.3441;2.1646;0.6592;-1.1159;-0.2572;0.0;19.78;2.42;-4.33;302.72;-33.24;29.98;2.0;977.55;41.045;35.958305;-83.92432;778.71;NaN;;;282.58063;;0 / 15;59018;2022-10-25 20:46:11:998
-3.9383;4.9247;9.8219;-3.9657;5.372;7.1823;0.4305;2.0326;2.1852;-0.2711;0.8304;0.231;1.0;12.88;4.52;-8.19;326.75;-33.22;28.91;2.0;977.54;38.322;35.958305;-83.92432;778.71;NaN;;;282.58063;;0 / 15;59518;2022-10-25 20:46:12:498
-2.6719;7.0902;4.8948;-3.902;6.1952;6.5241;1.1191;0.2184;-0.2965;0.1735;-0.0436;-0.3777;1.0;5.93;4.71;-11.92;4.69;-39.18;30.88;2.0;977.5;41.598;35.958305;-83.92432;778.71;NaN;;;282.58063;;0 / 15;60018;2022-10-25 20:46:12:998
-2.2445;4.7593;5.7278;-3.7114;5.9116;6.8883;1.2722;-1.3284;-0.7758;0.2073;-0.4717;-0.6435;1.0;-4.05;5.01;-13.76;44.68;-37.07;28.32;2.0;977.53;37.78;35.958305;-83.92432;778.71;NaN;;;282.58063;;0 / 15;60519;2022-10-25 20:46:13:499
-4.5488;3.7253;5.3868;-4.6608;4.8133;7.1609;1.2233;0.7678;2.7441;-0.4818;-0.3395;-1.1763;2.0;-17.87;2.89;-14.08;82.58;-28.81;36.11;2.0;977.52;35.625;35.958305;-83.92432;778.71;NaN;;;282.58063;;0 / 15;61017;2022-10-25 20:46:13:997
-2.7927;7.0026;4.8087;-3.8984;5.9359;6.763;0.5888;0.2389;-1.356;0.9683;-0.6325;-0.9511;2.0;-33.62;-22.33;-6.28;127.21;-37.25;29.96;2.0;977.51;40.793;35.958305;-83.92432;778.71;NaN;;;282.58063;;0 / 15;61518;2022-10-25 20:46:14:498
-3.2967;2.5307;7.4803;-4.5485;3.437;7.9792;1.3839;-1.8866;1.4846;0.276;-0.553;-0.6141;3.0;-15.28;-41.79;6.6;168.64;-20.71;32.51;2.0;977.49;40.876;35.958305;-83.92432;778.71;NaN;;;282.58063;;0 / 15;62017;2022-10-25 20:46:14:997
-3.7792;5.6213;7.0747;-4.9036;4.8934;6.9411;1.363;0.2938;0.611;0.7584;0.4678;-0.1851;3.0;14.85;-43.67;8.74;204.96;-29.93;35.24;2.0;977.46;32.824;35.958305;-83.92432;778.71;NaN;;;282.58063;;0 / 15;62518;2022-10-25 20:46:15:498
-5.5878;4.8948;4.27;-5.1607;5.0277;6.6528;-0.453;-0.9654;0.4364;0.12;-0.3248;-0.5028;2.0;26.55;-38.06;7.2;223.38;-30.55;38.34;2.0;977.45;36.056;35.958305;-83.92432;778.71;NaN;;;282.58063;;0 / 15;63018;2022-10-25 20:46:15:998
-4.2317;1.5849;8.7194;-4.6562;3.3285;7.9632;-3.0944;-2.246;5.1968;0.3225;-1.1084;-0.7247;1.0;43.16;-31.71;-3.88;238.63;-20.47;33.52;2.0;977.47;39.09;35.958305;-83.92432;778.71;NaN;;;282.58063;;0 / 15;63519;2022-10-25 20:46:16:499
-5.3402;3.6691;8.566;-6.0767;3.3789;6.9158;0.1737;-0.5116;1.4793;-1.0203;2.2515;0.1316;0.0;46.86;-24.71;-10.69;257.65;-25.76;33.5;2.0;977.43;40.708;35.958305;-83.92432;778.71;NaN;;;282.58063;;0 / 15;64017;2022-10-25 20:46:16:997
-8.1927;5.1401;11.4281;-6.6564;3.1032;6.4987;0.6483;0.3872;-1.7845;-0.2327;-0.2449;-0.2882;0.0;46.11;-23.19;2.51;250.61;-18.45;45.69;2.0;977.43;38.014;35.958305;-83.92432;778.71;NaN;;;282.58063;;0 / 15;64517;2022-10-25 20:46:17:497
-4.9546;4.5476;9.9703;-4.738;4.3869;7.3809;-1.1704;0.1449;-0.4875;-0.2382;-1.4266;-0.5208;0.0;42.08;-21.6;-5.17;256.82;-26.57;32.7;2.0;977.42;44.263;35.958305;-83.92432;778.71;NaN;;;282.58063;;0 / 15;65017;2022-10-25 20:46:17:997
-5.7637;4.7378;6.3407;-5.9613;3.8205;6.7851;1.4518;-0.5067;-2.9877;-0.4415;0.5031;0.3162;0.0;34.46;-19.39;-12.41;253.43;-22.93;41.3;2.0;977.39;41.116;35.958305;-83.92432;778.71;NaN;;;282.58063;;0 / 15;65517;2022-10-25 20:46:18:497
-2.9638;3.6281;4.8793;-4.4959;4.436;7.5019;-1.3665;-1.4436;-1.4235;0.1846;-0.9535;0.5493;0.0;31.91;-18.88;-12.15;257.17;-26.89;30.93;2.0;977.38;41.236;35.958305;-83.92432;778.71;NaN;;;282.58063;;0 / 15;66017;2022-10-25 20:46:18:997
-2.461;3.2979;5.2573;-4.7292;4.9444;7.0255;1.2063;-1.7839;-2.1407;-0.8809;0.7972;1.1466;0.0;27.94;-19.31;-15.9;262.69;-30.28;33.95;2.0;977.36;38.395;35.958305;-83.92432;778.71;NaN;;;282.58063;;0 / 15;66517;2022-10-25 20:46:19:497
-5.5208;1.5837;7.1333;-3.6559;3.5681;8.371;0.2699;-0.2672;3.9984;1.174;-1.15;-1.4677;0.0;30.36;-20.25;-14.38;240.1;-17.19;28.98;2.0;977.36;46.718;35.958305;-83.92432;778.71;NaN;;;282.58063;;0 / 15;67018;2022-10-25 20:46:19:998
-6.117;1.9992;9.6206;-4.5162;3.6579;7.899;-1.4477;0.2975;2.1586;-0.8195;1.2876;0.3596;0.0;28.71;-13.69;-22.8;269.28;-21.9;29.76;2.0;977.33;48.197;35.958305;-83.92432;778.71;NaN;;;282.58063;;0 / 15;67517;2022-10-25 20:46:20:497
-3.3697;4.8912;9.6171;-5.447;4.8004;6.5921;2.0755;2.4217;2.5591;0.3266;0.282;-0.289;3.0;33.39;-14.14;-22.48;291.11;-25.74;41.12;2.0;977.31;41.077;35.958305;-83.92432;778.71;NaN;;;282.58063;;0 / 15;68019;2022-10-25 20:46:20:999
-3.0224;3.7672;3.9335;-4.7847;6.1018;6.0037;-1.5796;-2.7718;1.052;-0.4623;-0.1071;0.2829;3.0;35.68;-32.48;-22.5;268.47;-38.48;38.55;2.0;977.25;52.719;35.958305;-83.92432;778.71;NaN;;;282.58063;;0 / 15;68518;2022-10-25 20:46:21:498
-4.5165;3.8438;8.4452;-4.688;2.8445;8.1303;2.7423;1.3771;0.4608;0.276;-0.3408;-1.6809;2.0;43.09;-34.73;-23.57;232.49;-19.51;31.2;2.0;977.29;44.668;35.958305;-83.92432;778.71;NaN;;;282.58063;;0 / 15;69017;2022-10-25 20:46:21:997
-2.2385;2.3509;9.1693;-4.4881;3.4326;8.0153;3.0554;-1.4229;1.237;1.0676;-0.6662;-1.4482;5.0;55.95;-22.18;-35.79;266.22;-18.52;30.54;2.0;977.25;42.08;35.958305;-83.92432;778.71;NaN;;;282.58063;;0 / 15;69518;2022-10-25 20:46:22:498
-5.2346;4.2855;5.7075;-4.8643;4.2999;7.3498;-0.3098;-0.6536;0.4381;0.2099;-0.0506;-0.108;3.0;62.46;-20.94;-38.46;292.6;-27.65;34.62;2.0;977.23;42.131;35.958305;-83.92432;778.71;NaN;;;282.58063;;0 / 15;70018;2022-10-25 20:46:22:998
-7.6983;5.613;12.8061;-5.4433;4.3394;6.9073;1.012;1.8896;0.2724;0.2059;-0.408;-0.8029;3.0;52.86;-30.47;-38.42;272.59;-26.26;38.24;2.0;977.28;45.317;35.958305;-83.92432;778.71;NaN;;;282.58063;;0 / 15;70518;2022-10-25 20:46:23:498
-6.2797;6.6185;6.3945;-4.4662;7.0275;5.1804;1.3319;-0.9535;-2.7219;-1.0743;0.3493;-0.2527;3.0;45.19;-41.32;-22.99;284.54;-45.78;40.77;2.0;977.25;42.783;35.958305;-83.92432;778.71;NaN;;;282.58063;;0 / 15;71017;2022-10-25 20:46:23:997
-3.2369;4.0854;9.0556;-3.949;4.3154;7.871;1.2836;0.4069;-0.346;0.2239;-0.7556;-0.8938;3.0;37.84;-28.28;-17.38;247.41;-26.11;26.64;2.0;977.23;41.154;35.958305;-83.92432;778.71;NaN;;;282.58063;;0 / 15;71518;2022-10-25 20:46:24:498
-1.8577;3.9215;9.4603;-1.8688;3.1312;9.1035;-0.4487;-0.5558;-0.7802;0.2895;-0.4827;-0.7186;1.0;23.87;-8.31;-29.68;280.83;-18.62;11.6;2.0;977.24;40.976;35.958305;-83.92432;778.71;NaN;;;282.58063;;0 / 15;72018;2022-10-25 20:46:24:998
-5.4371;4.0184;7.7904;-4.3317;3.7551;7.9565;0.0625;0.1119;-0.9053;-0.2612;1.0541;0.6832;1.0;6.13;-4.22;-36.98;38.19;-21.35;22.4;2.0;977.19;43.879;35.958305;-83.92432;778.71;NaN;;;282.58063;;0 / 15;72518;2022-10-25 20:46:25:498
-7.2888;3.5025;6.3347;-6.3732;3.5675;6.5441;-1.8618;-2.4118;-1.4361;1.7531;-0.0073;-0.7453;1.0;10.91;-8.4;-27.94;65.96;-20.52;33.57;2.0;977.17;46.664;35.958305;-83.92432;778.71;NaN;;;282.58063;;0 / 15;73018;2022-10-25 20:46:25:998
-7.6241;1.4545;8.9623;-6.5144;0.8956;7.2753;1.5121;1.9833;-2.1048;-0.6238;0.1251;0.0115;2.0;13.93;-11.62;-13.8;186.14;-5.24;41.84;2.0;977.17;46.515;35.958305;-83.92432;778.71;NaN;;;282.58063;;0 / 15;73518;2022-10-25 20:46:26:498
-4.4483;-0.067;2.1296;-5.404;1.9832;7.9394;-1.5605;-0.8939;5.0656;1.6243;-1.0934;-0.4119;3.0;12.36;-9.32;-9.26;205.15;-3.12;38.27;2.0;977.13;42.349;35.958305;-83.92432;778.71;NaN;;;282.58063;;0 / 15;74017;2022-10-25 20:46:26:997
-7.4312;1.5514;3.1926;-7.9124;0.3295;5.7841;1.5917;0.0774;-0.0963;0.2026;0.0154;0.8427;3.0;18.41;6.47;1.93;297.78;-1.93;53.83;2.0;977.15;48.585;35.958305;-83.92432;778.71;NaN;;;282.58063;;0 / 15;74517;2022-10-25 20:46:27:497
-10.9436;0.5794;6.5432;-7.7257;0.1553;6.0382;1.8018;2.7605;-0.0547;2.4515;0.0658;-0.1106;4.0;12.54;13.73;-3.28;342.14;-7.81;54.95;2.0;977.14;45.497;35.958305;-83.92432;778.71;NaN;;;282.58063;;0 / 15;75017;2022-10-25 20:46:27:997
-4.6516;-0.6272;12.4098;-2.8009;0.3566;9.3914;-4.9605;-0.6974;3.6888;-0.7476;-3.7735;-1.5737;4.0;9.98;13.61;-34.16;31.61;-5.12;33.52;2.0;977.15;48.822;35.958305;-83.92432;778.71;NaN;;;282.58063;;0 / 15;75517;2022-10-25 20:46:28:497
-2.5295;2.8346;9.2892;-3.4047;1.7192;9.0345;0.5208;0.8476;-0.2441;-0.1644;-0.0019;0.2273;4.0;2.89;5.31;-41.76;45.61;-9.92;20.82;2.0;977.09;61.103;35.958305;-83.92432;778.71;NaN;;;282.58063;;0 / 15;76019;2022-10-25 20:46:28:999
0.1914;1.7381;8.2179;-2.2669;1.8119;9.3674;1.9461;-1.4041;-1.0896;-0.058;-0.2803;-0.6309;3.0;16.16;-0.49;-43.89;328.82;-10.65;13.6;2.0;977.08;53.623;35.958305;-83.92432;778.71;NaN;;;282.58063;;0 / 15;76518;2022-10-25 20:46:29:498
-2.7102;-0.6332;7.0038;-2.3168;0.1026;9.5285;0.5602;-2.7437;2.151;1.1249;0.0302;-0.6137;3.0;11.85;9.23;-42.6;350.99;-0.6;13.67;2.0;977.06;49.636;35.958305;-83.92432;778.71;NaN;;;282.58063;;0 / 15;77018;2022-10-25 20:46:29:998
-1.3968;3.1519;8.9874;-2.6472;1.6586;9.2958;0.6477;1.0067;-0.8406;-0.1309;0.1473;0.2446;4.0;5.7;7.16;-42.82;22.97;-9.74;15.9;2.0;977.07;56.683;35.958305;-83.92432;778.71;NaN;;;282.58063;;0 / 15;77518;2022-10-25 20:46:30:498
-1.2329;1.2951;9.3909;-2.531;2.1032;9.238;0.658;-2.0513;-1.9097;0.4778;-0.1206;-0.5705;6.0;4.93;2.72;-43.09;28.37;-12.38;15.32;2.0;977.03;48.9;35.958305;-83.92432;778.71;NaN;;;282.58063;;0 / 15;78017;2022-10-25 20:46:30:997
-3.591;1.7094;7.2601;-4.4484;2.1499;8.4711;0.2165;-1.4718;-1.4145;0.99;-0.3498;-0.5362;7.0;3.81;-8.79;-41.16;91.53;-12.66;27.71;2.0;977.05;39.684;35.958305;-83.92432;778.71;NaN;;;282.58063;;0 / 15;78518;2022-10-25 20:46:31:498
-3.4032;5.4562;11.4437;-3.0097;3.2595;8.7457;2.622;0.9337;-1.0861;0.3364;-0.5204;-1.2817;5.0;-8.44;-15.54;-36.06;93.64;-25.04;19.3;2.0;977.05;39.072;35.95836;-83.92461;790.97;NaN;;;77.91936;;0 / 15;79019;2022-10-25 20:46:31:999
-1.7788;0.5818;11.0728;-4.3836;1.6581;8.6142;1.9178;-0.2255;1.2358;0.7442;-1.2913;-1.7451;4.0;-7.44;-34.11;-21.28;152.96;-9.73;26.97;2.0;977.01;45.606;35.95836;-83.92461;790.97;NaN;;;77.91936;;0 / 15;79519;2022-10-25 20:46:32:499
-4.9881;3.5492;7.1465;-5.5944;2.8334;7.5396;0.7229;-0.6152;1.3638;0.2996;0.2969;-0.2719;4.0;11.18;-38.81;-14.89;181.76;-16.44;33.21;2.0;977.02;44.553;35.95836;-83.92461;790.97;NaN;;;77.91936;;0 / 15;80018;2022-10-25 20:46:32:998
-7.174;3.5994;8.5708;-6.9473;4.3385;5.3929;-4.1669;0.3832;-1.0743;-0.3796;-2.0454;-0.3724;4.0;17.38;-38.66;-0.73;198.52;-26.26;52.18;2.0;976.99;58.484;35.95836;-83.92461;790.97;NaN;;;77.91936;;0 / 15;80518;2022-10-25 20:46:33:498
-6.6592;6.8279;3.3494;-7.6597;5.0384;3.4804;-1.4924;1.0252;1.1487;-2.0947;0.5576;-1.421;1.0;17.04;-32.27;16.24;222.83;-30.88;58.67;2.0;976.99;38.482;35.95836;-83.92461;790.97;NaN;;;77.91936;;0 / 15;81018;2022-10-25 20:46:33:998
-8.1087;1.9475;6.7765;-7.7321;3.51;4.9057;4.031;-2.4239;0.6896;-0.5606;0.0786;-0.59;0.0;8.29;-18.83;2.23;201.45;-24.6;58.99;2.0;977.0;39.813;35.95836;-83.92461;790.97;NaN;;;77.91936;;0 / 15;81518;2022-10-25 20:46:34:498
-7.3905;0.303;7.2912;-7.72;0.673;6.0099;0.3635;-0.1893;1.313;0.1531;-0.0777;-0.9496;1.0;-1.26;-22.8;-7.61;161.84;-13.95;53.22;2.0;976.98;47.588;35.95836;-83.92461;790.97;NaN;;;77.91936;;0 / 15;82018;2022-10-25 20:46:34:998
-7.4635;0.4286;6.9308;-4.2802;4.6021;7.528;-2.5354;-1.628;0.644;3.006;-0.7797;0.441;1.0;12.88;-20.92;-5.66;212.51;-27.99;29.62;2.0;976.94;46.162;35.95836;-83.92461;790.97;NaN;;;77.91936;;0 / 15;82518;2022-10-25 20:46:35:498
-4.7847;0.1854;5.6883;-7.5053;2.3189;5.8706;-0.5299;-2.1886;1.2034;-0.881;0.7812;1.1368;2.0;13.59;-19.31;-9.62;182.98;-13.68;51.97;2.0;976.91;48.005;35.95836;-83.92461;790.97;NaN;;;77.91936;;0 / 15;83018;2022-10-25 20:46:35:998
-5.6524;-1.4725;13.8966;-6.7792;0.3479;7.0776;-1.7509;2.845;1.6301;-0.5539;0.945;-0.4964;2.0;6.08;-6.51;-17.66;128.2;-2.03;43.77;2.0;976.91;43.979;35.95836;-83.92461;790.97;NaN;;;77.91936;;0 / 15;83518;2022-10-25 20:46:36:498
-5.0755;4.78;9.9787;-3.9936;3.2346;8.3522;-1.8221;-1.4285;0.1574;1.7082;-0.864;0.3002;3.0;-1.86;-7.69;-25.35;91.81;-19.26;25.56;2.0;976.9;47.911;35.958317;-83.92459;795.69;NaN;;0.0;257.0479;;0 / 15;84018;2022-10-25 20:46:36:998
8.1206;-5.7314;12.1944;-2.3669;1.103;9.4526;5.3842;-3.2689;-0.2455;-1.7702;-0.5281;-1.3902;2.0;13.52;-13.88;-18.26;218.53;-6.46;14.06;2.0;976.85;41.156;35.958317;-83.92459;795.69;NaN;;0.0;257.0479;;0 / 15;84518;2022-10-25 20:46:37:498
-4.1489;-5.3402;17.9354;-1.6418;0.021;9.6682;1.6287;3.169;-0.0885;-0.4114;0.0667;-0.4817;3.0;23.68;-7.03;-23.4;264.68;-10.94;8.15;2.0;976.84;41.934;35.958317;-83.92459;795.69;NaN;;0.0;257.0479;;5 / 15;85019;2022-10-25 20:46:37:999
-4.3083;0.3688;8.1182;-5.2953;0.3906;8.2448;2.626;-0.0783;0.8247;0.3428;-0.1735;-0.7716;6.0;38.16;-14.61;-22.48;236.22;-2.28;32.71;2.0;976.82;40.627;35.958317;-83.92459;795.69;NaN;;0.0;257.0479;;5 / 15;85518;2022-10-25 20:46:38:498
-7.4252;3.1029;7.9125;-7.2766;1.46;6.4102;3.4258;0.1755;0.8526;-0.5822;-0.0247;-0.8963;5.0;47.7;-11.59;-11.19;257.78;-9.4;51.68;2.0;976.81;41.102;35.958324;-83.924614;785.88;NaN;;0.0;148.76341;;0 / 16;86018;2022-10-25 20:46:38:998
-5.4897;2.1236;11.8292;-5.1848;0.9191;8.273;1.0537;0.8554;2.5846;1.5015;0.3799;-1.2875;3.0;38.83;-1.35;-16.65;275.46;-5.38;32.08;2.0;976.8;44.303;35.958324;-83.924614;785.88;NaN;;0.0;148.76341;;0 / 16;86517;2022-10-25 20:46:39:497
-4.2808;1.896;7.2984;-4.113;3.588;8.1474;-0.962;-2.7534;-1.2386;-0.4539;-0.0409;-0.162;12.0;29.16;3.68;-20.16;312.59;-24.05;25.58;2.0;976.78;45.894;35.958324;-83.924614;785.88;NaN;;0.0;148.76341;;5 / 16;87018;2022-10-25 20:46:39:998
-5.7601;0.88;14.9644;-4.3658;2.7081;8.3532;2.9359;0.909;-0.3741;-0.3747;0.2616;-1.6241;11.0;17.96;15.06;-3.11;318.67;-19.62;23.31;2.0;976.77;43.82;35.958324;-83.924614;785.88;NaN;;0.0;148.76341;;5 / 16;87517;2022-10-25 20:46:40:497
-7.0352;3.3972;6.0811;-6.3131;2.4093;7.107;-0.7469;-0.1544;-0.5497;0.0658;-0.0783;-0.7502;8.0;-9.19;22.58;3.49;13.15;-14.22;41.61;2.0;976.77;44.493;35.95832;-83.924614;789.53;NaN;;0.0;103.938515;;5 / 16;88017;2022-10-25 20:46:40:997
-8.0536;-1.6639;6.1373;-7.2818;0.4792;6.551;-1.7516;-1.6309;0.4592;0.051;-1.2228;-0.5584;7.0;-30.34;2.68;-6.15;85.1;-2.8;48.02;2.0;976.77;42.599;35.95832;-83.924614;789.53;NaN;;0.0;103.938515;;5 / 16;88517;2022-10-25 20:46:41:497
-7.223;0.9781;7.5233;-6.867;0.5294;6.981;-0.2583;1.0805;-0.4214;-0.7847;-0.7498;-0.0267;9.0;-32.89;-9.23;-16.61;106.41;-5.62;47.86;2.0;976.75;48.426;35.95832;-83.9246;776.1;NaN;;0.0;88.7994;;5 / 16;89017;2022-10-25 20:46:41:997
-2.9351;2.3749;10.5162;-1.4289;2.021;9.4892;-0.7952;-1.4333;-0.9102;0.6754;-0.509;-0.5286;8.0;-32.27;-21.26;-7.95;121.22;-11.89;8.56;2.0;976.74;43.436;35.95832;-83.9246;776.1;NaN;;0.0;88.7994;;5 / 16;89517;2022-10-25 20:46:42:497
-3.4893;6.5551;4.6277;-2.2691;6.8703;6.6197;-0.0027;-2.2141;-0.7937;0.668;0.7672;0.7647;3.0;-31.29;-21.06;-3.69;123.87;-37.6;19.15;2.0;976.72;47.682;35.95833;-83.92461;776.39;NaN;;0.0;81.96893;;5 / 16;90017;2022-10-25 20:46:42:997
-0.3628;5.5448;7.739;-1.2835;6.6717;7.0718;0.1693;-0.9344;1.4415;-0.1277;-0.2043;0.1033;1.0;-34.93;-6.21;-18.24;84.84;-42.87;10.29;2.0;976.72;44.894;35.95833;-83.92461;776.39;NaN;;0.0;81.96893;;5 / 16;90517;2022-10-25 20:46:43:497
-0.4131;7.0364;9.9344;-0.9692;6.1545;7.5732;-0.3099;1.3775;0.6518;-0.2327;-0.444;0.0292;2.0;-41.66;-5.57;-14.79;85.42;-40.16;9.35;2.0;976.69;43.344;35.95833;-83.92461;776.39;NaN;;0.0;81.96893;;5 / 16;91017;2022-10-25 20:46:43:997
-1.6914;5.7266;6.428;-2.4795;5.7909;7.5159;0.4232;-0.3553;-0.1664;-0.1512;0.3988;-0.067;2.0;-36.32;-14.68;-10.97;108.51;-36.19;18.26;2.0;976.68;44.759;35.95833;-83.92461;776.39;NaN;;0.0;81.96893;;5 / 16;91517;2022-10-25 20:46:44:497
-0.8967;2.9722;7.989;-1.5666;4.0293;8.8023;-0.8891;-1.7236;-0.1547;-0.1811;-0.9209;-0.324;6.0;-28.84;-18.34;-8.59;116.25;-24.26;10.09;2.0;976.69;45.895;35.958336;-83.92459;773.24;NaN;;0.0;69.175156;;5 / 16;92017;2022-10-25 20:46:44:997
-4.8051;0.0251;9.6374;-4.3272;0.3732;8.7924;0.529;-0.825;3.5447;0.4378;0.6331;0.9775;8.0;-13.56;-15.75;-8.19;134.74;-2.18;26.2;2.0;976.67;43.08;35.958336;-83.92459;773.24;NaN;;0.0;69.175156;;5 / 16;92517;2022-10-25 20:46:45:497
-5.0599;0.1292;10.3591;-4.5362;1.8857;8.4875;1.724;0.6567;0.0873;-0.9953;0.2139;-0.8693;24.0;-13.78;-4.03;-11.16;107.81;-11.09;28.12;2.0;976.66;50.122;35.958336;-83.92459;773.24;NaN;;0.0;69.175156;;5 / 16;93018;2022-10-25 20:46:45:998
-3.4403;1.0881;8.3351;-3.9763;1.0323;8.9047;1.5383;0.5853;-0.9169;-0.3723;-0.585;-0.7991;24.0;-19.01;-1.5;-10.52;91.97;-6.04;24.06;2.0;976.65;55.285;35.958336;-83.92459;773.24;NaN;;0.0;69.175156;;5 / 16;93518;2022-10-25 20:46:46:498
-6.4618;-1.8111;7.9352;-7.1806;0.5622;6.6553;0.4103;-1.5445;3.1019;0.4426;-0.574;0.8817;26.0;-12.77;-4.97;-9.94;106.99;1.85;51.02;2.0;976.62;53.571;35.958336;-83.92459;773.24;NaN;;0.0;69.175156;;5 / 16;94017;2022-10-25 20:46:46:997
-3.3398;2.6001;7.7868;-5.7187;2.4166;7.5913;1.9998;-0.1521;-1.6375;0.4914;-0.241;-0.8103;40.0;-5.59;2.36;-24.84;73.25;-14.27;36.99;2.0;976.6;52.146;35.958336;-83.92459;773.24;NaN;;0.0;69.175156;;5 / 16;94517;2022-10-25 20:46:47:497
-5.2621;2.4586;1.963;-6.2386;5.252;5.4467;0.7482;-3.5707;-0.8832;1.4582;0.6053;0.0647;55.0;0.98;-9.41;-34.41;84.02;-23.34;40.52;2.0;976.58;44.536;35.958336;-83.92459;773.24;NaN;;0.0;69.175156;;5 / 16;95017;2022-10-25 20:46:47:997
-5.0336;3.9407;6.1696;-6.9425;3.6494;5.8867;-0.2773;0.2744;0.256;0.4755;-0.5105;-0.3621;58.0;17.14;-33.17;-30.64;145.41;-21.85;49.7;2.0;976.61;42.223;35.958336;-83.92459;773.24;NaN;;0.0;69.175156;;5 / 16;95519;2022-10-25 20:46:48:499
-5.3761;4.951;2.4335;-5.0888;6.5045;5.2883;-2.5354;-2.8601;2.2624;2.3346;-1.4631;0.0068;48.0;24.34;-43.54;-25.72;175.56;-41.55;43.9;2.0;976.56;42.968;35.95833;-83.92458;764.7;NaN;;0.0;49.387177;;5 / 16;96017;2022-10-25 20:46:48:997
-2.1105;5.5448;7.4958;-3.9229;5.4078;7.179;0.976;0.5215;0.3804;-0.5081;-1.8461;-1.552;28.0;11.89;-53.76;1.22;194.57;-33.47;28.65;2.0;976.57;44.982;35.95833;-83.92458;764.7;NaN;;0.0;49.387177;;5 / 16;96518;2022-10-25 20:46:49:498
-2.6743;-1.6208;14.7141;-1.0849;3.1613;9.2195;0.54;-0.256;-1.8376;-2.4249;-1.6307;-2.1774;22.0;13.59;-46.59;-16.91;198.77;-33.73;13.82;2.0;976.62;44.699;35.95833;-83.924545;749.81;NaN;;0.0;41.020306;;5 / 16;97018;2022-10-25 20:46:49:998
-1.6005;5.1712;8.7039;-1.24;3.1516;9.2033;-0.9616;1.1456;-0.8788;-0.0617;0.5043;0.0089;26.0;23.66;-41.32;-25.95;214.54;-18.75;7.67;2.0;976.62;43.092;35.95833;-83.924545;749.81;NaN;;0.0;41.020306;;5 / 16;97518;2022-10-25 20:46:50:498
-2.3139;0.9218;1.3836;-5.1779;3.0335;7.7561;2.5509;-1.5231;-1.9725;-0.0784;-0.5217;-1.3936;27.0;37.54;-36.99;-12.43;224.29;-18.02;33.73;2.0;976.6;45.977;35.958332;-83.92456;743.58;NaN;;0.0;28.876102;;6 / 16;98017;2022-10-25 20:46:50:997
-5.1485;0.6344;6.2665;-4.521;0.6714;8.6764;-0.6695;-2.7388;1.3004;1.0;-0.3473;-0.3783;14.0;54.9;-15.52;-10.22;252.86;-3.93;27.52;2.0;976.58;48.703;35.958332;-83.92456;743.58;NaN;;0.0;28.876102;;6 / 16;98517;2022-10-25 20:46:51:497
-9.3634;1.0247;10.2658;-6.1562;0.6276;7.6078;0.2942;-1.021;-1.2659;-0.5698;1.2492;0.1198;14.0;41.79;-7.01;-8.21;259.95;-3.67;38.98;2.0;976.54;46.935;35.958332;-83.924576;752.71;NaN;;0.0;29.325191;;8 / 16;99017;2022-10-25 20:46:51:997
-6.5743;0.291;6.4125;-6.0557;2.5541;7.2784;-1.2055;-2.5817;1.0965;1.2413;-0.5695;0.337;13.0;32.36;-11.87;-0.37;255.73;-15.1;39.76;2.0;976.52;52.401;35.958332;-83.924576;752.71;NaN;;0.0;29.325191;;8 / 16;99517;2022-10-25 20:46:52:497
-6.5336;1.8793;6.871;-7.2255;1.222;6.5168;2.1996;0.0448;0.3738;-0.4084;0.7774;0.5371;12.0;33.34;-16.59;-3.28;237.38;-6.87;43.93;2.0;976.54;50.883;35.958324;-83.924576;749.8;NaN;;0.0;26.32948;;8 / 16;100018;2022-10-25 20:46:52:998
-6.5492;0.0443;6.1122;-6.8184;0.9448;6.9848;-2.1556;-0.3117;1.0142;1.0858;-0.8133;-0.1009;26.0;35.44;-27.21;-6.96;219.98;-5.53;44.31;2.0;976.5;53.732;35.958324;-83.924576;749.8;NaN;;0.0;26.32948;;8 / 16;100517;2022-10-25 20:46:53:497
-6.2677;0.5901;5.7135;-6.9787;0.6407;6.8598;-1.278;1.3703;1.4053;0.3731;-0.3933;1.052;32.0;46.63;-26.25;-2.79;226.83;2.14;48.08;2.0;976.52;47.867;35.958324;-83.924576;749.8;NaN;;0.0;26.32948;;8 / 16;101017;2022-10-25 20:46:53:997
-3.4463;1.0451;9.446;-4.4783;2.5981;8.3286;0.9963;0.6576;-1.4383;-0.1074;-1.0336;-0.0552;41.0;58.46;-35.83;-2.66;241.7;-15.36;28.27;2.0;976.47;56.853;35.958324;-83.924576;749.8;NaN;;0.0;26.32948;;8 / 16;101518;2022-10-25 20:46:54:498
-4.0304;2.2971;8.3375;-3.8657;2.6998;8.5987;0.8565;-0.3466;0.8724;0.2828;1.4959;-0.2326;37.0;61.39;-35.31;-15.56;244.57;-14.5;13.52;2.0;976.46;49.322;35.95832;-83.92456;748.64;NaN;;0.0;23.056292;;8 / 16;102017;2022-10-25 20:46:54:997
-6.2725;3.0236;5.6668;-6.7081;3.3793;6.305;0.4737;-0.6134;-0.8031;0.3273;-0.3767;-0.0649;39.0;59.78;-24.71;21.94;256.61;-20.16;46.77;2.0;976.41;49.631;35.95832;-83.92456;748.64;NaN;;0.0;23.056292;;8 / 16;102518;2022-10-25 20:46:55:498
-6.5551;-0.0299;13.73;-3.4731;0.5349;9.1554;-1.7277;1.7878;-0.8914;-2.354;-1.6475;-1.2369;52.0;58.2;-22.28;10.26;253.98;-15.21;30.25;2.0;976.42;47.733;35.95831;-83.924545;762.44;NaN;;0.0;21.87955;;8 / 16;103018;2022-10-25 20:46:55:998
-1.8111;1.8649;8.5863;-3.0573;2.7303;8.9089;1.9742;-0.9541;0.4443;0.6795;0.3448;-1.3858;69.0;49.99;-5.16;-19.24;276.55;-16.17;18.94;2.0;976.42;55.03;35.95831;-83.924545;762.44;NaN;;0.0;21.87955;;8 / 16;103518;2022-10-25 20:46:56:498
-1.9199;2.8478;8.8738;-1.3934;3.0613;9.2118;-2.536;-0.8583;-1.228;-0.1765;-1.8529;-1.5012;56.0;44.66;2.4;-21.56;284.68;-18.19;8.6;2.0;976.38;52.103;35.958286;-83.92452;775.28;NaN;;0.0;20.606266;;8 / 16;104018;2022-10-25 20:46:56:998
2.1835;1.7118;12.2483;0.6347;2.4046;9.4861;1.632;0.0568;1.1206;-0.7543;-0.8723;-1.3202;80.0;21.02;11.44;-38.57;310.14;-14.19;-3.83;2.0;976.4;49.208;35.958286;-83.92452;775.28;NaN;;0.0;20.606266;;8 / 16;104517;2022-10-25 20:46:57:497
-0.7457;3.5456;8.8247;1.0144;3.3003;9.1788;0.8779;0.0368;0.082;-0.4074;-0.839;0.5078;129.0;-0.43;13.97;-44.51;350.07;-19.67;-6.31;2.0;976.37;51.882;35.95827;-83.924515;781.77;NaN;;0.0;21.150608;;9 / 16;105017;2022-10-25 20:46:57:997
-0.2441;4.5045;7.9998;-0.3207;4.2671;8.8238;0.1312;-0.5031;-1.427;0.0393;0.2395;0.1986;128.0;-3.92;5.23;-47.59;12.78;-25.79;2.08;2.0;976.36;53.606;35.95827;-83.924515;781.77;NaN;;0.0;21.150608;;9 / 16;105517;2022-10-25 20:46:58:497
-0.2034;3.4116;7.4049;-0.0806;5.0474;8.4076;0.1753;-1.4335;-0.4003;0.3489;0.0943;0.3005;100.0;1.58;-1.72;-48.82;357.39;-28.73;1.18;2.0;976.32;56.205;35.95827;-83.924515;781.77;NaN;;0.0;21.150608;;10 / 16;106017;2022-10-25 20:46:58:997
-1.6651;3.7804;7.485;-1.8939;5.4477;7.9314;-0.0903;2.0812;2.922;0.0043;1.1951;0.2693;86.0;5.91;-7.13;-46.76;14.02;-33.75;13.43;2.0;976.37;51.282;35.95827;-83.924515;781.77;NaN;;0.0;21.150608;;10 / 16;106518;2022-10-25 20:46:59:498