sep=;
ACCELEROMETER X (m/s²);ACCELEROMETER Y (m/s²);ACCELEROMETER Z (m/s²);GRAVITY X (m/s²);GRAVITY Y (m/s²);GRAVITY Z (m/s²);LINEAR ACCELERATION X (m/s²);LINEAR ACCELERATION Y (m/s²);LINEAR ACCELERATION Z (m/s²);GYROSCOPE X (rad/s);GYROSCOPE Y (rad/s);GYROSCOPE Z (rad/s);LIGHT (lux);MAGNETIC FIELD X (μT);MAGNETIC FIELD Y (μT);MAGNETIC FIELD Z (μT);ORIENTATION Z (azimuth °);ORIENTATION X (pitch °);ORIENTATION Y (roll °);PROXIMITY (i);ATMOSPHERIC PRESSURE (hPa);SOUND LEVEL (dB);LOCATION Latitude : ;LOCATION Longitude : ;LOCATION Altitude ( m);LOCATION Altitude-google ( m);LOCATION Altitude-atmospheric pressure ( m);LOCATION Speed ( Kmh);LOCATION Accuracy ( m);LOCATION ORIENTATION (°);Satellites in range;Time since start in ms ;YYYY-MO-DD HH-MI-SS_SSS
-2.2756;2.4837;8.0513;-1.5962;1.8759;9.4923;1.7172;0.9626;-0.0632;-0.3851;1.448;-0.9531;414.0;-7.76;-29.7;-35.32;149.04;-11.54;9.47;5.0;987.67;42.875;35.958244;-83.92455;782.74;NaN;;0.0;19.67557;;14 / 15;11;2022-10-22 18:43:40:682
-1.8553;2.4048;9.0269;-1.8988;2.4671;9.2994;1.4526;0.3273;0.536;0.5295;1.3099;0.3318;271.0;-5.87;-29.38;-35.31;157.64;-11.38;4.79;5.0;987.69;44.422;35.958244;-83.92455;782.74;NaN;;0.0;19.67557;;14 / 15;511;2022-10-22 18:43:41:182
-1.8338;2.892;9.0449;-1.8965;2.4643;9.3006;-0.3964;0.0485;-1.1635;0.8723;0.3205;-0.0935;370.0;-8.4;-32.79;-30.75;147.3;-15.46;10.53;5.0;987.67;45.742;35.958252;-83.92455;780.09;NaN;;0.0;18.87229;;14 / 15;1011;2022-10-22 18:43:41:682
-1.6412;2.3486;8.7051;-1.5467;3.0546;9.1895;1.3285;0.7033;-0.7688;0.4033;-0.037;0.3639;407.0;-10.84;-34.59;-27.6;145.06;-20.99;11.91;5.0;987.69;47.238;35.958252;-83.92455;780.09;NaN;;0.0;18.87229;;14 / 15;1511;2022-10-22 18:43:42:182
-4.2532;2.9148;6.7801;-2.2217;3.6636;8.8212;0.2394;1.4269;-2.1786;-0.2979;0.2146;-0.4445;353.0;-18.09;-33.58;-26.85;135.92;-22.45;7.6;5.0;987.74;48.061;35.958252;-83.92455;780.09;NaN;;0.0;18.87229;;14 / 15;2011;2022-10-22 18:43:42:682
-2.7126;1.0092;10.8811;-1.0521;2.3909;9.4524;-0.7233;0.0031;1.741;-0.6242;-0.0299;0.8177;280.0;-27.67;-41.4;-23.91;131.71;-26.92;6.25;5.0;987.7;44.641;35.958252;-83.92455;780.09;NaN;;0.0;18.87229;;14 / 15;2512;2022-10-22 18:43:43:183
-2.9183;1.9992;9.58;-0.7625;0.8392;9.7409;2.7376;1.9144;0.7651;-0.8143;0.8919;2.3073;78.0;-37.76;-34.65;-28.71;126.43;-9.64;7.08;5.0;987.73;58.833;35.958252;-83.92455;780.09;NaN;;0.0;18.87229;;14 / 15;3011;2022-10-22 18:43:43:682
-1.392;0.5614;10.7327;-0.523;0.2317;9.79;-1.1119;-0.125;-0.81;-0.1052;-0.5424;0.1025;38.0;-18.81;41.91;-35.89;26.01;-1.35;3.06;5.0;987.73;47.224;35.958252;-83.92455;780.09;NaN;;0.0;18.87229;;14 / 15;3511;2022-10-22 18:43:44:182
0.583;-0.5291;7.7605;-0.2278;-0.3301;9.7984;0.5195;-0.4611;-1.0334;-0.1726;0.0654;0.0596;38.0;-3.15;51.77;-32.79;4.01;0.45;1.09;5.0;987.76;44.527;35.958244;-83.924545;766.35;NaN;;0.0;17.169493;;14 / 15;4011;2022-10-22 18:43:44:682
0.7002;0.4322;11.2116;0.6651;0.0925;9.7836;0.7471;0.323;1.9078;-0.3141;0.1063;0.9193;39.0;0.6;50.03;-31.93;356.4;-0.54;-3.89;5.0;987.72;47.436;35.958244;-83.924545;766.35;NaN;;0.0;17.169493;;14 / 15;4511;2022-10-22 18:43:45:182
1.9128;-0.5961;8.0644;1.6647;0.3315;9.6586;-0.8699;-0.1848;2.0637;0.1228;0.2016;-0.036;38.0;10.39;45.66;-32.72;344.53;0.48;-7.71;5.0;987.77;44.901;35.958244;-83.924545;766.35;NaN;;0.0;17.169493;;14 / 15;5011;2022-10-22 18:43:45:682
2.6647;-1.7345;10.9349;2.4862;-0.2617;9.4826;0.1502;0.1477;2.8252;0.093;-0.705;-0.5316;38.0;10.18;36.88;-34.84;335.68;1.67;-10.63;5.0;987.78;46.249;35.958244;-83.924545;766.35;NaN;;0.0;17.169493;;14 / 15;5511;2022-10-22 18:43:46:182
1.4952;3.3326;10.1629;1.1446;1.916;9.5493;0.3884;0.596;0.0444;0.3618;0.8514;0.0463;36.0;4.63;28.97;-31.46;345.75;-4.18;-5.42;5.0;987.78;46.442;35.958244;-83.924545;766.35;NaN;;0.0;17.169493;;14 / 15;6012;2022-10-22 18:43:46:683
1.5849;3.5312;10.0469;1.2546;2.4169;9.421;-0.5177;0.3274;0.409;0.1551;-0.1446;0.2339;23.0;1.16;8.7;-28.39;343.92;-14.08;-7.1;5.0;987.82;44.672;35.958244;-83.924545;766.35;NaN;;0.0;17.169493;;14 / 15;6512;2022-10-22 18:43:47:183
4.2003;3.6643;9.859;1.8166;1.8275;9.4621;2.0816;1.4348;0.8297;-0.2581;1.2328;-0.2774;20.0;-1.65;3.3;-23.55;353.15;-12.63;-7.1;5.0;987.86;43.913;35.958244;-83.924545;766.35;NaN;;0.0;17.169493;;14 / 15;7013;2022-10-22 18:43:47:684
2.7138;-0.5375;10.4862;2.8629;0.1524;9.3782;-0.0389;0.4682;1.7621;0.0557;0.0398;0.0208;19.0;0.04;4.09;-26.94;304.69;-3.25;-16.98;5.0;987.85;46.304;35.958244;-83.924545;766.35;NaN;;0.0;17.169493;;14 / 15;7511;2022-10-22 18:43:48:182
1.7764;-0.996;7.1477;2.3501;-0.0656;9.5207;1.1481;-0.7122;2.1382;0.4539;0.3631;0.2088;33.0;0.51;8.29;-35.66;303.41;-0.51;-18.86;5.0;987.9;46.761;35.958244;-83.924545;766.35;NaN;;0.0;17.169493;;14 / 15;8011;2022-10-22 18:43:48:682
1.392;1.8302;5.9985;1.5885;1.4563;9.5669;0.2822;-0.1314;-1.982;0.088;-0.1306;0.3451;41.0;2.79;15.98;-50.7;327.3;-5.63;-11.76;5.0;987.83;45.455;35.958244;-83.924545;766.35;NaN;;0.0;17.169493;;14 / 15;8513;2022-10-22 18:43:49:184
0.833;1.9152;10.3352;-0.9871;2.0583;9.5373;-0.5729;-0.1179;1.025;-0.6498;0.6318;0.6917;107.0;-2.38;12.64;-53.91;342.16;-12.18;-10.33;5.0;987.96;43.045;35.958244;-83.924545;766.35;NaN;;0.0;17.169493;;13 / 15;9011;2022-10-22 18:43:49:682
0.3772;2.9219;8.2238;-1.4574;2.1413;9.4584;-1.5665;-1.1354;-1.6192;-0.1135;-1.0607;0.6916;258.0;17.64;11.63;-51.26;336.74;-12.61;8.76;5.0;987.9;47.685;35.958244;-83.924545;766.35;NaN;;0.0;17.169493;;13 / 15;9511;2022-10-22 18:43:50:182
0.2862;0.772;9.7929;1.4335;0.1445;9.7002;-1.0342;0.8338;-0.2859;-0.0219;-0.3538;1.425;331.0;17.93;11.36;-50.85;309.58;-8.03;-4.05;5.0;987.89;38.036;35.958244;-83.924545;766.35;NaN;;0.0;17.169493;;12 / 15;10011;2022-10-22 18:43:50:682
2.5618;0.364;8.1736;1.9518;0.2144;9.6081;0.1702;0.2632;-1.3431;0.0372;-0.0325;0.8293;247.0;14.42;3.54;-45.15;282.2;-1.25;-11.48;5.0;987.93;40.862;35.958244;-83.924545;766.35;NaN;;0.0;17.169493;;12 / 15;10512;2022-10-22 18:43:51:183
1.7405;0.0072;8.7685;1.8709;-0.0976;9.626;0.417;0.4589;-0.9;0.1007;0.1083;0.761;122.0;12.11;-7.54;-38.61;251.13;2.9;-10.51;5.0;987.93;49.646;35.958244;-83.924545;766.35;NaN;;0.0;17.169493;;12 / 15;11011;2022-10-22 18:43:51:682
1.2461;-0.2632;8.9611;0.4994;-0.1906;9.7921;-0.0491;0.125;-0.242;0.1503;-0.1245;1.5204;93.0;8.7;-18.32;-29.7;207.25;1.14;-1.1;5.0;987.93;39.261;35.958244;-83.924545;766.35;NaN;;0.0;17.169493;;12 / 15;11513;2022-10-22 18:43:52:184
-1.963;3.1005;11.6701;0.4225;0.4604;9.7867;-1.8103;1.5876;1.9678;0.4168;-0.1341;0.7988;73.0;4.43;-24.13;-23.46;193.05;3.13;-4.62;5.0;987.94;38.406;35.958244;-83.924545;766.35;NaN;;0.0;17.169493;;12 / 15;12011;2022-10-22 18:43:52:682
0.0754;4.8769;9.6733;0.712;3.8031;9.0111;-1.3012;1.0502;1.8326;0.7155;0.3451;1.13;31.0;-3.24;-27.96;-13.67;176.1;-17.69;-5.99;5.0;987.97;39.319;35.958244;-83.924545;766.35;NaN;;0.0;17.169493;;12 / 15;12511;2022-10-22 18:43:53:182
0.3963;3.14;8.56;0.7687;3.4669;9.1411;-1.1235;0.7325;-0.1297;-0.2874;-0.2558;-0.1905;8.0;-9.49;-28.42;-15.04;162.26;-21.58;-4.16;5.0;987.95;37.981;35.958244;-83.924545;766.35;NaN;;0.0;17.169493;;12 / 15;13011;2022-10-22 18:43:53:682
0.8043;3.2309;9.0568;1.3841;3.437;9.0798;-0.3153;-1.0542;-1.1057;0.6897;-0.2278;0.2187;6.0;-11.23;-28.72;-19.89;156.98;-20.34;-7.16;5.0;987.98;38.577;35.958244;-83.924545;766.35;NaN;;0.0;17.169493;;12 / 15;13511;2022-10-22 18:43:54:182
-1.5036;5.5795;12.8181;0.853;3.3863;9.1638;-0.5835;0.5758;-1.046;-0.4821;-0.7575;-0.2384;5.0;-9.75;-29.55;-17.79;154.31;-23.06;-0.4;5.0;987.98;42.294;35.958244;-83.924545;766.35;NaN;;0.0;17.169493;;12 / 15;14011;2022-10-22 18:43:54:682
2.0794;1.6902;9.5513;1.3216;2.4877;9.3934;-0.4803;-0.6639;0.2962;-0.169;0.882;-0.171;5.0;-9.3;-30.11;-15.39;162.63;-17.59;-5.76;5.0;988.0;43.584;35.958244;-83.924545;766.35;NaN;;0.0;17.169493;;12 / 15;14511;2022-10-22 18:43:55:182
0.492;4.7222;14.1251;1.7016;2.9598;9.1932;-0.6117;0.1618;-0.8021;-0.1835;0.0199;-0.2061;7.0;-14.89;-32.46;-11.62;152.65;-17.41;-5.78;5.0;988.05;43.733;35.958244;-83.924545;766.35;NaN;;0.0;17.169493;;8 / 15;15011;2022-10-22 18:43:55:682
1.9487;2.8334;9.2351;1.715;2.7976;9.2414;1.3096;0.7593;1.9645;-0.2437;0.1933;-0.5378;6.0;-11.96;-38.57;1.01;162.07;-16.58;-10.51;5.0;988.05;49.81;35.958244;-83.924545;766.35;NaN;;0.0;17.169493;;8 / 15;15511;2022-10-22 18:43:56:182
2.6408;0.5614;8.4823;2.3062;1.2349;9.4513;-0.3763;-0.4043;2.4622;0.7036;0.2511;0.2074;10.0;-6.71;-41.08;-2.29;170.65;-9.32;-9.37;5.0;988.07;43.485;35.958244;-83.924545;766.35;NaN;;0.0;17.169493;;5 / 15;16011;2022-10-22 18:43:56:682
0.868;2.3821;10.8799;2.3777;1.9816;9.3054;0.9507;0.965;1.9721;0.3685;0.7232;0.1392;13.0;-3.22;-38.14;-4.33;176.98;-11.66;-14.33;5.0;988.09;43.598;35.958244;-83.924545;766.35;NaN;;0.0;17.169493;;5 / 15;16511;2022-10-22 18:43:57:182
2.7688;3.536;9.5812;1.9372;3.0239;9.1254;1.4285;-0.886;0.3235;0.2609;0.0903;0.5091;8.0;-7.05;-25.74;-5.14;166.37;-14.25;-12.74;5.0;988.11;41.3;35.958244;-83.924545;766.35;NaN;;0.0;17.169493;;3 / 15;17011;2022-10-22 18:43:57:682
3.4439;-0.3006;6.9715;2.2292;1.2136;9.4725;0.6571;1.0746;-1.3884;-0.6173;0.0567;0.6491;8.0;-26.98;4.74;-22.14;60.49;-12.96;-15.93;5.0;988.07;46.756;35.958244;-83.924545;766.35;NaN;;0.0;17.169493;;3 / 15;17511;2022-10-22 18:43:58:182
1.8147;0.5303;7.9902;1.6505;-0.3114;9.6617;-0.0357;1.1341;-1.0861;0.1865;-0.5135;1.0149;27.0;-27.96;13.07;-24.02;64.16;2.99;-9.28;5.0;988.09;48.979;35.958244;-83.924545;766.35;NaN;;0.0;17.169493;;4 / 15;18011;2022-10-22 18:43:58:682
1.8075;0.8091;8.79;1.4902;0.9494;9.6462;-0.4473;0.9714;0.6558;0.6428;-0.3402;1.7847;39.0;-18.53;14.36;-31.71;43.8;-2.3;-7.38;5.0;988.09;44.914;35.958244;-83.924545;766.35;NaN;;0.0;17.169493;;4 / 15;18511;2022-10-22 18:43:59:182
0.4406;1.8529;9.3826;1.8895;1.1589;9.5529;-1.3946;1.2037;0.3041;-0.1548;0.0548;0.5832;27.0;-9.71;17.63;-38.16;7.14;-4.57;-10.89;5.0;988.13;38.049;35.958244;-83.924545;766.35;NaN;;0.0;17.169493;;4 / 15;19012;2022-10-22 18:43:59:683
1.4653;1.1647;9.2749;2.2934;0.8522;9.4965;-0.4622;0.534;0.7167;-0.1064;0.0306;0.7922;29.0;-9.53;27.73;-44.85;357.88;-1.82;-13.89;5.0;988.14;33.1;35.958244;-83.924545;766.35;NaN;;0.0;17.169493;;4 / 15;19512;2022-10-22 18:44:00:183
2.1882;1.343;8.4236;2.5371;1.7311;9.3133;-0.9585;0.1492;-0.0269;0.6741;0.0288;0.2173;28.0;-10.93;25.2;-46.11;358.14;-4.13;-14.57;5.0;988.12;35.811;35.958244;-83.924545;766.35;NaN;;0.0;17.169493;;4 / 15;20011;2022-10-22 18:44:00:682
1.3549;3.2979;9.1131;2.4092;1.7541;9.3429;-1.3571;0.7536;0.0652;0.8253;-0.196;0.7365;20.0;-8.42;7.65;-47.47;346.3;-10.3;-14.46;5.0;988.07;37.571;35.958244;-83.924545;766.35;NaN;;0.0;17.169493;;4 / 15;20511;2022-10-22 18:44:01:182
1.3896;2.6994;9.4807;2.2671;2.5112;9.2046;0.083;0.8643;-0.4297;-0.3385;0.1697;0.6241;26.0;-2.01;-1.16;-48.43;324.05;-17.27;-13.73;5.0;988.13;38.125;35.958244;-83.924545;766.35;NaN;;0.0;17.169493;;7 / 15;21011;2022-10-22 18:44:01:682
1.8326;2.272;8.6856;1.5933;3.2979;9.097;-0.2617;-1.0248;-1.233;-0.2862;-0.1219;0.3267;32.0;0.23;-7.29;-45.11;316.96;-19.65;-9.93;5.0;988.12;39.647;35.958244;-83.924545;766.35;NaN;;0.0;17.169493;;7 / 15;21511;2022-10-22 18:44:02:182
0.4059;3.8725;11.0345;0.1818;3.4063;9.1943;-0.0762;-1.8993;-0.2631;0.4268;-0.2409;-0.5676;28.0;-0.36;-10.99;-37.26;287.37;-19.13;-8.0;5.0;988.16;41.473;35.958244;-83.924545;766.35;NaN;;0.0;17.169493;;8 / 15;22012;2022-10-22 18:44:02:683
0.6559;4.4136;8.6091;0.4105;4.6916;8.6018;0.2481;-0.4764;-1.3249;-0.2705;-0.2211;0.4138;24.0;-0.53;-20.68;-20.61;180.01;-28.58;-2.73;5.0;988.19;43.438;35.958244;-83.924545;766.35;NaN;;0.0;17.169493;;8 / 15;22511;2022-10-22 18:44:03:182
1.3358;3.4606;8.0321;1.3831;2.8517;9.2804;-1.7121;3.2039;1.3868;0.3254;-0.1553;0.9822;17.0;4.46;-21.81;-21.92;198.72;-20.2;-6.82;5.0;988.22;45.729;35.958244;-83.924545;766.35;NaN;;0.0;17.169493;;8 / 15;23011;2022-10-22 18:44:03:682
1.2987;5.2573;11.8208;1.1175;3.9161;8.9211;0.5996;-1.5963;1.2407;0.3717;0.4911;0.0345;17.0;8.31;-16.12;-30.47;249.06;-20.41;-11.61;5.0;988.23;65.211;35.958244;-83.924545;766.35;NaN;;0.0;17.169493;;8 / 15;23511;2022-10-22 18:44:04:182
-0.6715;1.7812;12.6637;1.4801;2.6022;9.3385;-1.1022;0.9691;2.2433;-0.4064;1.1731;0.0173;20.0;14.61;-16.71;-33.41;261.1;-24.08;-8.07;5.0;988.26;51.45;35.958244;-83.924545;766.35;NaN;;0.0;17.169493;;7 / 15;24011;2022-10-22 18:44:04:682
0.577;2.758;8.0584;1.0354;2.7968;9.3422;0.079;0.2614;1.4713;0.1294;1.3403;-0.231;19.0;17.19;2.27;-41.91;293.79;-15.36;-13.7;5.0;988.25;38.495;35.958244;-83.924545;766.35;NaN;;0.0;17.169493;;7 / 15;24511;2022-10-22 18:44:05:182
1.2257;1.4773;7.9938;1.0087;3.0597;9.2623;0.233;-1.0364;-0.9586;0.3108;0.2504;0.2495;11.0;21.08;2.19;-45.24;296.1;-14.12;-5.56;5.0;988.3;64.482;35.958244;-83.924545;766.35;NaN;;0.0;17.169493;;7 / 15;25011;2022-10-22 18:44:05:682
1.9717;1.5431;6.6449;0.5498;3.7534;9.0432;1.1224;0.5769;0.5764;-0.4518;-0.69;-0.2864;12.0;31.2;4.56;-53.32;311.0;-24.36;0.52;5.0;988.33;62.93;35.958244;-83.924545;766.35;NaN;;0.0;17.169493;;7 / 15;25511;2022-10-22 18:44:06:182
0.0024;4.4734;8.7805;0.8583;3.413;9.1534;0.8145;-1.7305;-2.2684;0.5437;-0.0784;0.7295;20.0;26.53;13.78;-59.44;315.39;-20.07;-5.03;5.0;988.32;37.807;35.958244;-83.924545;766.35;NaN;;0.0;17.169493;;7 / 15;26012;2022-10-22 18:44:06:683
0.766;3.4822;11.5349;0.7284;3.1981;9.2419;0.1231;-0.6506;0.0171;0.2663;-0.3285;-0.1028;29.0;18.58;11.76;-49.39;326.62;-20.4;0.36;5.0;988.37;43.235;35.958244;-83.924545;766.35;NaN;;0.0;17.169493;;7 / 15;26511;2022-10-22 18:44:07:182
0.2656;5.1377;7.4468;1.7859;4.5239;8.5156;-1.0629;0.6386;-1.551;0.5206;0.2986;1.2495;34.0;19.69;-3.86;-37.22;290.05;-22.05;-7.73;5.0;988.34;45.279;35.958244;-83.924545;766.35;NaN;;0.0;17.169493;;5 / 15;27011;2022-10-22 18:44:07:682
2.0506;3.9455;8.9324;0.9121;5.2054;8.2609;0.7917;-0.859;0.3075;-0.0934;0.2197;0.9942;29.0;16.09;-30.34;-23.36;232.34;-32.06;-6.3;5.0;988.35;39.066;35.958244;-83.924545;766.35;NaN;;0.0;17.169493;;5 / 15;27511;2022-10-22 18:44:08:182
1.8517;2.2457;8.5768;1.8671;2.6733;9.2487;-0.6311;-0.6602;-0.3822;-0.0071;-0.1521;-0.2907;26.0;6.02;-35.57;-22.8;201.61;-22.28;-10.13;5.0;988.36;37.12;35.958244;-83.924545;766.35;NaN;;0.0;17.169493;;4 / 14;28011;2022-10-22 18:44:08:682
4.7593;1.6041;10.3364;2.3654;1.9528;9.3146;-1.0106;0.5564;-0.0295;-0.8368;-0.0149;-0.2676;28.0;-0.81;-26.27;-32.81;200.57;-11.49;-14.25;5.0;988.38;40.286;35.958244;-83.924545;766.35;NaN;;0.0;17.169493;;4 / 14;28512;2022-10-22 18:44:09:183
4.2915;0.2046;8.8295;3.4567;0.862;9.1367;0.0734;-0.476;-0.1345;-0.1587;0.1617;0.3216;30.0;-6.23;-16.28;-37.69;206.19;-4.75;-18.39;5.0;988.4;52.286;35.958244;-83.924545;766.35;NaN;;0.0;17.169493;;4 / 15;29011;2022-10-22 18:44:09:682
3.6679;-0.2297;6.2797;3.2111;-0.9153;9.2207;0.0132;0.9643;3.816;-0.5263;-0.1247;0.0709;22.0;-12.97;-11.94;-40.54;187.39;1.45;-19.85;5.0;988.37;47.502;35.958244;-83.924545;766.35;NaN;;0.0;17.169493;;4 / 15;29512;2022-10-22 18:44:10:183
-0.0048;2.6348;12.7834;0.9522;0.2958;9.7558;-0.7919;-0.2565;1.875;2.774;-0.3044;1.5458;9.0;-16.12;-12.66;-39.49;155.0;2.72;-13.71;5.0;988.39;41.125;35.958244;-83.924545;766.35;NaN;;0.0;17.169493;;4 / 15;30012;2022-10-22 18:44:10:683
3.6739;2.959;8.4847;3.3859;2.9572;8.7156;-2.8734;1.5176;-0.1138;0.4609;0.3583;1.3043;5.0;-27.84;-17.12;-30.24;109.27;-17.04;-22.73;5.0;988.39;29.628;35.958244;-83.924545;766.35;NaN;;0.0;17.169493;;4 / 15;30511;2022-10-22 18:44:11:182
2.0207;3.9251;9.6984;1.901;3.2995;9.0372;-1.1476;0.4588;-0.0486;-0.1602;-0.0546;-0.4998;4.0;-28.5;-7.67;-34.01;76.6;-18.33;-13.13;5.0;988.41;41.027;35.958244;-83.924545;766.35;NaN;;0.0;17.169493;;4 / 15;31011;2022-10-22 18:44:11:682
1.0654;1.3729;8.1099;1.2847;3.8228;8.939;-1.2438;-0.9732;-1.2416;0.4021;0.7713;0.2369;3.0;-21.47;-15.83;-38.34;85.44;-23.26;-7.51;5.0;988.41;30.61;35.958244;-83.924545;766.35;NaN;;0.0;17.169493;;4 / 15;31511;2022-10-22 18:44:12:182
-1.4797;1.5933;6.2821;-0.3059;3.3655;9.206;0.0075;-0.1429;-0.3556;0.0965;-0.7739;-0.4629;3.0;-17.04;-21.37;-34.52;104.91;-22.13;4.98;5.0;988.42;43.729;35.958244;-83.924545;766.35;NaN;;0.0;17.169493;;4 / 14;32012;2022-10-22 18:44:12:683
-1.1228;4.6253;10.7064;-0.0501;4.1183;8.8999;0.4723;-1.1647;0.7846;0.8224;0.4539;-0.4171;3.0;-18.88;-25.65;-25.76;123.57;-23.09;7.74;5.0;988.45;54.351;35.958244;-83.924545;766.35;NaN;;0.0;17.169493;;4 / 14;32511;2022-10-22 18:44:13:182
-1.6543;6.2809;9.1179;1.0104;4.2259;8.7915;-0.9283;-1.3891;-1.8187;-0.1065;-0.2231;0.4887;3.0;-20.68;-26.34;-18.43;124.91;-27.55;1.72;5.0;988.48;41.719;35.958244;-83.924545;766.35;NaN;;0.0;17.169493;;5 / 15;33011;2022-10-22 18:44:13:682
1.3418;3.3649;8.2693;1.0412;4.221;8.7903;0.2065;0.5115;1.0229;0.4285;1.3905;-0.1252;3.0;-19.24;-22.86;-17.47;126.61;-25.49;-6.75;5.0;988.52;47.727;35.958244;-83.924545;766.35;NaN;;0.0;17.169493;;5 / 15;33512;2022-10-22 18:44:14:183
2.0818;5.7374;7.4886;2.5412;6.535;6.8562;-1.9372;-0.2201;0.9871;2.7684;-1.3465;1.1757;4.0;-19.71;-21.45;-18.69;117.58;-26.37;-2.65;5.0;988.53;48.777;35.958244;-83.924545;766.35;NaN;;0.0;17.169493;;6 / 15;34012;2022-10-22 18:44:14:683
1.9331;5.4646;7.0615;0.7146;5.7142;7.9377;0.291;0.7029;0.1815;0.2039;-0.0073;-0.4051;4.0;-23.76;-24.84;-16.65;112.34;-35.64;-5.14;5.0;988.59;42.833;35.958244;-83.924545;766.35;NaN;;0.0;17.169493;;6 / 15;34511;2022-10-22 18:44:15:182
-2.7365;5.3605;10.6262;0.216;5.9678;7.7788;1.0607;-0.4865;-0.8331;-2.4026;2.4643;1.3685;7.0;-16.87;-22.26;-26.38;91.52;-38.5;-3.54;5.0;988.58;45.454;35.958244;-83.924545;766.35;NaN;;0.0;17.169493;;7 / 15;35015;2022-10-22 18:44:15:686
-0.0371;2.7975;10.9591;1.8328;0.9611;9.5858;-1.4819;1.8233;3.0627;-0.7019;-1.2026;-0.209;17.0;0.11;2.4;-43.76;352.69;-9.94;-1.6;5.0;988.61;49.48;35.958244;-83.924545;766.35;NaN;;0.0;17.169493;;7 / 15;35511;2022-10-22 18:44:16:182
3.9132;0.9625;8.4033;4.205;2.1597;8.5921;0.4065;-0.4128;-0.7772;-0.5199;1.0016;1.0888;33.0;-13.82;11.25;-55.63;344.91;-11.52;-20.0;5.0;988.64;41.426;35.958244;-83.924545;766.35;NaN;;0.0;17.169493;;7 / 15;36011;2022-10-22 18:44:16:682
2.9997;0.2333;8.948;3.5148;-0.4051;9.1462;-0.8564;0.2041;0.8706;0.0683;0.113;0.4328;37.0;-36.07;10.09;-61.43;37.61;1.02;-25.09;5.0;988.6;38.46;35.958244;-83.924545;766.35;NaN;;0.0;17.169493;;7 / 15;36512;2022-10-22 18:44:17:183
1.191;2.388;10.1677;2.9208;1.0336;9.3044;-2.0978;1.5884;0.6069;0.0151;0.7051;0.7333;26.0;-44.31;16.73;-61.26;42.08;-4.26;-20.25;5.0;988.6;35.273;35.958244;-83.924545;766.35;NaN;;0.0;17.169493;;7 / 15;37011;2022-10-22 18:44:17:682
1.768;0.128;9.5154;2.7058;0.6998;9.4;0.0622;0.5197;0.7735;-0.0888;0.3474;0.366;36.0;-34.35;23.12;-62.61;32.83;-3.31;-14.29;5.0;988.63;33.855;35.958244;-83.924545;766.35;NaN;;0.0;17.169493;;7 / 15;37511;2022-10-22 18:44:18:182
0.9637;2.685;11.2379;2.1598;2.3841;9.264;-0.0372;-0.7251;-0.251;1.1083;0.209;2.0063;34.0;-27.45;25.56;-57.52;25.51;-4.74;-11.57;5.0;988.6;29.985;35.958244;-83.924545;766.35;NaN;;0.0;17.169493;;7 / 15;38011;2022-10-22 18:44:18:682
1.3107;2.4885;8.6653;1.7772;2.6085;9.2848;-0.0417;-0.0256;-0.6716;-0.3278;-0.1463;0.0373;27.0;-6.73;16.73;-61.88;354.42;-15.59;-9.41;5.0;988.6;36.767;35.958244;-83.924545;766.35;NaN;;0.0;17.169493;;7 / 15;38511;2022-10-22 18:44:19:182
1.7237;0.862;8.9767;1.7958;1.3141;9.5508;-0.4488;-0.3682;-1.0372;-0.3908;0.1485;-0.2643;29.0;-5.36;17.04;-60.26;344.05;-10.56;-12.31;5.0;988.61;37.817;35.958244;-83.924545;766.35;NaN;;0.0;17.169493;;5 / 13;39011;2022-10-22 18:44:19:682
3.4427;1.0905;9.7654;2.5173;0.2177;9.4756;0.783;0.2106;-0.4686;-0.1746;0.5549;-0.5048;22.0;-13.65;23.53;-54.21;359.24;-1.27;-14.88;5.0;988.64;31.214;35.958244;-83.924545;766.35;NaN;;0.0;17.169493;;5 / 13;39511;2022-10-22 18:44:20:182
0.5602;2.1212;12.6637;2.5454;0.869;9.4306;-0.1659;0.3614;-1.4303;0.2937;-0.0897;-0.2204;18.0;-21.69;21.79;-51.43;23.42;-2.34;-12.45;5.0;988.66;43.142;35.958244;-83.924545;766.35;NaN;;0.0;17.169493;;3 / 14;40011;2022-10-22 18:44:20:682
2.7855;2.6898;10.7339;2.8216;2.4602;9.064;0.8227;-0.0655;-0.44;0.6932;0.6083;1.3717;15.0;-23.64;11.27;-48.6;19.06;-14.53;-17.29;5.0;988.67;51.435;35.958244;-83.924545;766.35;NaN;;0.0;17.169493;;3 / 14;40511;2022-10-22 18:44:21:182
0.4813;4.2003;10.7578;2.0656;2.7159;9.1939;-0.9537;-0.3946;-0.6863;0.4597;-0.1455;0.9497;7.0;-11.51;8.51;-48.13;8.45;-17.92;-9.95;5.0;988.67;40.331;35.958244;-83.924545;766.35;NaN;;0.0;17.169493;;3 / 15;41011;2022-10-22 18:44:21:682
3.5958;2.1081;8.068;3.3427;3.8434;8.3801;-2.7002;-0.6558;-1.2702;-0.1572;-0.7317;0.6666;4.0;2.31;1.16;-43.69;324.14;-25.26;-15.35;5.0;988.7;48.418;35.958244;-83.924545;766.35;NaN;;0.0;17.169493;;3 / 15;41512;2022-10-22 18:44:22:183
2.575;2.8813;11.706;2.0906;2.5533;9.2347;-0.2061;0.0481;-0.0715;0.4355;0.5542;0.0434;4.0;6.17;-3.21;-39.82;311.36;-19.84;-8.31;5.0;988.73;55.138;35.958244;-83.924545;766.35;NaN;;0.0;17.169493;;3 / 15;42011;2022-10-22 18:44:22:682
2.412;5.3354;8.6797;-0.9006;4.9348;8.4266;-0.1727;-1.1539;0.3267;1.1285;0.9477;-1.068;4.0;15.45;0.86;-37.67;307.99;-21.15;-4.78;5.0;988.81;47.707;35.958244;-83.924545;766.35;NaN;;0.0;17.169493;;3 / 15;42511;2022-10-22 18:44:23:182
-1.1635;1.2497;7.5066;-0.7461;2.103;9.5494;-0.8352;0.7424;-0.2445;-0.6625;-0.19;-0.2766;5.0;25.18;4.76;-35.36;301.73;-12.63;6.11;5.0;988.81;46.361;35.958244;-83.924545;766.35;NaN;;0.0;17.169493;;3 / 15;43011;2022-10-22 18:44:23:682
2.2313;0.9314;8.5959;1.2103;1.3537;9.6371;0.6905;0.6489;-1.0193;-0.1429;-0.2436;-0.1948;5.0;15.38;20.98;-39.66;322.82;-6.79;-6.2;5.0;988.79;41.801;35.958244;-83.924545;766.35;NaN;;0.0;17.169493;;3 / 15;43511;2022-10-22 18:44:24:182
2.138;4.1429;6.5707;1.2343;2.6442;9.3624;0.67;0.0713;0.7208;-0.1523;0.3454;0.7389;6.0;11.38;23.31;-39.96;322.54;-4.43;-13.02;5.0;988.81;47.815;35.958244;-83.924545;766.35;NaN;;0.0;17.169493;;3 / 15;44011;2022-10-22 18:44:24:682
4.034;0.5794;7.4683;1.9827;2.4294;9.2918;1.7555;-1.3924;-3.0155;-0.7621;-0.3016;0.3938;15.0;19.78;10.43;-36.62;309.97;-20.09;-8.16;5.0;988.82;53.959;35.958244;-83.924545;766.35;NaN;;0.0;17.169493;;3 / 15;44511;2022-10-22 18:44:25:182
1.9403;2.2337;8.0548;2.2782;1.9068;9.3458;-0.2796;0.7592;-0.866;0.3431;-0.0121;0.8208;30.0;29.7;7.82;-26.81;286.8;-9.01;-14.55;5.0;988.83;51.221;35.958244;-83.924545;766.35;NaN;;0.0;17.169493;;3 / 15;45011;2022-10-22 18:44:25:682
3.4128;1.774;8.6569;2.3844;2.7841;9.0958;-0.007;-0.6699;-1.4037;-0.5692;0.1716;0.4084;33.0;39.71;-13.39;-14.21;254.77;-16.49;-14.69;5.0;988.83;47.217;35.958244;-83.924545;766.35;NaN;;0.0;17.169493;;3 / 15;45511;2022-10-22 18:44:26:182
1.5179;1.002;9.708;2.4309;0.7532;9.4707;0.0433;-0.0261;0.172;0.2431;0.0724;0.0223;16.0;34.03;-30.24;-8.66;229.7;-7.59;-15.84;5.0;988.84;36.591;35.958244;-83.924545;766.35;NaN;;0.0;17.169493;;4 / 15;46011;2022-10-22 18:44:26:682
1.2832;0.1196;9.5034;2.1489;1.2346;9.4883;0.1253;-0.5821;-1.7118;0.352;0.0359;0.3579;16.0;29.79;-33.51;-8.51;223.04;-7.23;-12.76;5.0;988.85;36.32;35.958244;-83.924545;766.35;NaN;;0.0;17.169493;;4 / 15;46511;2022-10-22 18:44:27:182
1.9259;1.2855;7.3211;1.318;1.397;9.6167;0.39;0.316;-1.4533;-0.1058;-0.1548;0.3002;24.0;23.98;-36.43;-2.53;213.68;-7.81;-13.83;5.0;988.85;35.478;35.958244;-83.924545;766.35;NaN;;0.0;17.169493;;4 / 15;47013;2022-10-22 18:44:27:684
2.4395;0.9482;8.4799;1.3737;2.4579;9.3937;1.5281;0.8787;2.7981;0.0044;1.1394;0.2928;25.0;10.69;-35.55;9.3;193.05;-15.08;-12.8;5.0;988.85;42.33;35.958244;-83.924545;766.35;NaN;;0.0;17.169493;;4 / 15;47511;2022-10-22 18:44:28:182
1.4342;4.2963;12.0374;1.8496;2.7071;9.2424;0.8809;1.2563;2.3753;0.2859;0.9321;-0.3349;12.0;-1.89;-29.55;16.05;167.27;-18.84;-20.42;5.0;988.89;41.99;35.958244;-83.924545;766.35;NaN;;0.0;17.169493;;4 / 15;48011;2022-10-22 18:44:28:682
0.1472;1.6316;10.8344;2.1319;0.5365;9.5571;-1.2982;2.2234;0.3359;-0.9102;-0.4616;-0.3765;4.0;-12.96;-19.35;13.63;142.98;-7.31;-10.38;5.0;988.89;37.227;35.958244;-83.924545;766.35;NaN;;0.0;17.169493;;4 / 15;48512;2022-10-22 18:44:29:183
1.2748;1.2879;8.9169;2.7792;0.4726;9.3927;-0.5155;0.3986;-0.232;0.7176;0.4227;0.9916;6.0;-7.05;-16.86;10.69;151.1;-2.32;-14.79;5.0;988.89;36.657;35.958244;-83.924545;766.35;NaN;;0.0;17.169493;;3 / 15;49011;2022-10-22 18:44:29:682
2.9471;-0.3891;9.1681;2.281;0.8099;9.5032;0.6755;0.552;-0.3128;0.4323;-0.3186;-0.4653;15.0;-11.25;-13.65;11.23;137.79;-4.74;-13.5;5.0;988.88;38.315;35.958244;-83.924545;766.35;NaN;;0.0;17.169493;;3 / 15;49512;2022-10-22 18:44:30:183
2.144;2.5822;9.6458;2.7775;1.9489;9.201;0.2361;0.0029;-0.367;0.8589;0.1099;0.882;16.0;-15.39;-13.42;12.9;127.18;-5.6;-16.71;5.0;988.87;38.189;35.95836;-83.9246;739.11;NaN;;1.76;626.3309;272.8;3 / 15;50011;2022-10-22 18:44:30:682
4.1022;2.9542;7.9902;2.6171;3.1814;8.8994;1.2092;-0.2445;-0.7484;-0.1022;0.1119;0.0777;10.0;-20.96;-0.13;9.75;92.86;-22.27;-17.95;5.0;988.92;38.784;35.95836;-83.9246;739.11;NaN;;1.76;626.3309;272.8;3 / 15;50511;2022-10-22 18:44:31:182
1.4749;2.6994;9.3239;2.4433;2.2744;9.2211;-1.0623;-0.6274;0.123;0.3475;0.025;-0.134;5.0;-19.37;8.74;2.42;63.06;-11.72;-16.78;5.0;988.87;34.459;35.958363;-83.92458;739.21;NaN;;1.91;697.1815;272.8;3 / 14;51011;2022-10-22 18:44:31:682
2.7413;0.5363;7.9484;2.3815;1.7741;9.3462;0.1233;-0.6873;-1.1528;-0.1896;-0.0412;-0.1442;6.0;-15.24;10.13;-5.1;49.45;-10.42;-14.3;5.0;988.91;35.773;35.958363;-83.92458;739.21;NaN;;1.91;697.1815;272.8;3 / 14;51513;2022-10-22 18:44:32:184
2.3617;2.5307;10.7865;3.1548;1.7209;9.1245;0.1519;-0.4264;-2.2218;-0.2522;-0.2598;-0.1923;6.0;-9.21;10.5;-8.55;24.89;-10.65;-16.98;5.0;988.92;42.322;35.958363;-83.92458;739.21;NaN;;1.91;697.1815;272.8;2 / 14;52011;2022-10-22 18:44:32:682
3.1998;1.215;10.3651;1.142;1.8798;9.5568;-0.5493;0.7765;0.2435;-0.5663;0.7127;0.2275;5.0;-2.42;1.48;-11.47;12.31;-11.05;-6.81;5.0;988.97;45.748;35.958363;-83.92458;739.21;NaN;;1.91;697.1815;272.8;2 / 14;52511;2022-10-22 18:44:33:182
0.8632;1.0714;8.7422;0.3581;0.7814;9.7689;-2.9062;-0.8674;5.4438;0.5643;-0.5473;-0.1903;4.0;2.79;-6.17;-10.05;237.17;-17.62;-8.4;5.0;989.01;45.06;35.958363;-83.92458;739.21;NaN;;1.91;697.1815;272.8;0 / 14;53011;2022-10-22 18:44:33:682
-1.4545;7.0026;18.8979;1.1549;3.3666;9.138;0.7153;-0.987;-2.935;2.4232;0.5538;2.1721;3.0;0.81;-11.19;-7.84;191.62;-7.25;-7.55;5.0;989.04;62.133;35.958363;-83.92458;739.21;NaN;;1.91;697.1815;272.8;0 / 14;53511;2022-10-22 18:44:34:182
-2.4933;6.3311;11.1506;0.5902;3.9446;8.9589;-3.5117;1.6369;2.3567;0.5955;-1.1133;0.1733;2.0;-1.97;-8.57;-8.08;155.38;-24.68;1.64;5.0;989.01;53.099;35.958363;-83.92458;739.21;NaN;;1.91;697.1815;272.8;0 / 15;54011;2022-10-22 18:44:34:682
0.5674;4.2616;9.4819;1.3013;4.2507;8.7412;-0.0613;-1.026;-0.1733;-0.1291;0.5856;0.5495;2.0;-5.85;-4.67;-16.11;48.02;-26.89;-8.89;5.0;989.05;41.837;35.958363;-83.92458;739.21;NaN;;1.91;697.1815;272.8;0 / 15;54512;2022-10-22 18:44:35:183
-0.4202;5.8116;10.2191;1.6169;4.0251;8.7952;-1.1912;1.7999;2.6485;0.2532;0.3672;0.5081;4.0;-6.28;-2.59;-19.87;34.73;-22.9;-6.69;5.0;989.06;51.401;35.958363;-83.92458;739.21;NaN;;1.91;697.1815;272.8;0 / 15;55011;2022-10-22 18:44:35:682
0.2046;1.5251;10.1701;-1.0792;0.9286;9.7028;1.8618;0.2595;-0.691;-0.5269;-0.7914;-0.0047;6.0;-8.12;4.03;-25.24;31.55;-14.65;-3.78;5.0;989.07;39.487;35.958363;-83.92458;739.21;NaN;;1.91;697.1815;272.8;0 / 15;55512;2022-10-22 18:44:36:183
1.7333;-0.8501;7.0424;1.655;-1.9098;9.4754;-0.1453;0.3626;0.965;-0.4555;0.4107;0.1274;23.0;-11.17;23.55;-25.57;20.63;4.56;-6.05;5.0;989.09;46.545;35.95825;-83.92454;786.19;NaN;;0.0;512.48773;;0 / 15;56011;2022-10-22 18:44:36:682
5.4538;-1.3274;6.9942;3.7698;-1.2178;8.9709;0.2063;0.7221;-2.0399;-0.1253;0.5947;0.5613;22.0;-27.0;39.34;-19.31;26.56;8.84;-23.68;5.0;989.09;40.896;35.95825;-83.92454;786.19;NaN;;0.0;512.48773;;0 / 15;56511;2022-10-22 18:44:37:182
1.8649;-1.2987;9.064;2.8717;-1.8846;9.1854;0.0336;0.9883;-0.6584;-0.6399;1.6736;0.7862;30.0;-15.24;53.12;-18.47;15.86;12.46;-18.12;5.0;989.09;42.067;35.95825;-83.92454;786.19;NaN;;0.0;512.48773;;2 / 14;57011;2022-10-22 18:44:37:682
2.2983;1.707;10.6047;3.5603;0.2307;9.1346;-0.5387;1.5661;0.4659;-0.0873;1.4957;0.8894;29.0;2.7;48.02;-33.94;342.73;-1.35;-21.29;5.0;989.07;40.608;35.95825;-83.92454;786.19;NaN;;0.0;512.48773;;2 / 14;57511;2022-10-22 18:44:38:182
2.4993;2.8346;8.5636;3.1657;1.914;9.0822;-0.4404;-0.6918;1.455;1.7888;-0.8895;0.688;31.0;17.61;35.94;-34.67;330.84;0.32;-3.3;5.0;989.14;35.718;35.958252;-83.92453;785.76;NaN;;0.0;397.2117;;2 / 15;58011;2022-10-22 18:44:38:682
1.4988;1.6591;9.6769;3.3602;1.5757;9.0773;-0.5746;1.0205;0.213;-0.8385;1.131;0.7147;34.0;14.51;-7.8;-36.98;263.31;-9.25;-20.31;5.0;989.14;39.208;35.958252;-83.92453;785.76;NaN;;0.0;397.2117;;2 / 15;58514;2022-10-22 18:44:39:185
3.1412;0.2154;7.6528;2.7549;1.4865;9.2936;0.1082;0.712;0.3094;-0.3546;0.0054;0.3252;32.0;8.49;-21.3;-32.96;224.74;-8.7;-14.65;5.0;989.12;40.476;35.958252;-83.92453;785.76;NaN;;0.0;397.2117;;2 / 15;59011;2022-10-22 18:44:39:682
3.5504;0.0945;7.9316;2.9805;1.4195;9.2343;-1.3661;-0.1271;-0.8726;0.2497;-0.5022;0.4272;32.0;-5.06;-24.47;-25.84;184.08;-8.0;-13.98;5.0;989.06;35.069;35.958252;-83.92453;785.76;NaN;;0.0;397.2117;;2 / 15;59512;2022-10-22 18:44:40:183
2.5499;0.7947;6.306;2.8355;0.8911;9.3454;0.1299;0.8601;-2.5828;-0.8956;-0.4405;-0.3529;28.0;-11.64;-22.35;-20.92;167.75;-4.58;-19.39;5.0;989.15;40.596;35.958252;-83.92453;785.76;NaN;;0.0;397.2117;;2 / 15;60012;2022-10-22 18:44:40:683
4.544;1.2604;10.5293;2.7143;1.8904;9.232;-0.5771;0.2408;0.1435;0.546;-0.6515;0.5158;22.0;-13.61;-14.94;-15.17;138.96;-8.21;-11.43;5.0;989.16;46.782;35.958252;-83.92453;785.76;NaN;;0.0;397.2117;;2 / 15;60513;2022-10-22 18:44:41:184
1.3825;3.585;12.4564;3.467;1.9056;8.9732;-0.6866;0.0814;1.8658;1.3728;0.2724;0.0582;8.0;-12.43;-13.93;-16.63;139.35;-14.63;-17.86;5.0;989.16;47.082;35.958252;-83.92453;785.76;NaN;;0.0;397.2117;;2 / 15;61011;2022-10-22 18:44:41:682
5.0432;3.7409;9.3108;3.8499;3.0326;8.4942;0.0935;-0.4707;-0.3231;-0.338;1.2342;-0.0243;6.0;-9.67;-18.37;-19.65;173.17;-19.57;-23.65;5.0;989.17;44.572;35.958252;-83.92453;785.76;NaN;;0.0;397.2117;;2 / 15;61511;2022-10-22 18:44:42:182
0.5818;4.8171;9.8973;2.7296;2.9351;8.9501;-1.3213;1.1837;1.94;0.0127;0.2429;-0.2198;5.0;-3.97;-19.28;-27.6;194.8;-15.79;-13.82;5.0;989.23;62.377;35.95837;-83.9243;738.28;NaN;;4.9;616.4892;84.9;2 / 15;62011;2022-10-22 18:44:42:682
1.6472;3.8988;9.8734;2.4898;4.0169;8.5928;1.8201;-0.9857;-0.7407;-0.4587;-0.1282;-0.6449;6.0;0.26;-18.92;-37.5;254.91;-24.18;-16.16;5.0;989.23;44.945;35.95837;-83.9243;738.28;NaN;;4.9;616.4892;84.9;2 / 15;62511;2022-10-22 18:44:43:182
3.5157;3.0141;8.4296;3.4471;2.188;8.9163;-1.4832;0.2267;-2.9377;-0.6594;-0.6444;1.1065;7.0;1.65;-13.16;-40.33;269.87;-19.13;-18.18;5.0;989.26;43.194;35.95837;-83.9243;738.28;NaN;;4.9;616.4892;84.9;2 / 13;63011;2022-10-22 18:44:43:682
0.2934;1.3322;10.7722;2.5016;1.6539;9.3369;-0.522;-0.3466;1.6081;0.692;-0.5279;0.4567;9.0;5.55;-1.89;-40.78;285.16;-9.71;-15.0;5.0;989.32;37.819;35.95837;-83.9243;738.28;NaN;;4.9;616.4892;84.9;2 / 13;63513;2022-10-22 18:44:44:184
1.8326;2.3725;9.9954;0.4745;3.396;9.1876;0.7069;0.2785;1.5604;0.6651;2.1877;0.6253;21.0;11.64;-4.18;-40.87;294.51;-15.32;-10.19;5.0;989.33;45.348;35.95837;-83.9243;738.28;NaN;;4.9;616.4892;84.9;0 / 14;64012;2022-10-22 18:44:44:683
0.0084;3.1759;8.1159;1.6015;3.0381;9.1856;-2.3351;2.1598;-0.6277;-0.1978;0.4174;1.173;39.0;13.76;-12.69;-39.68;267.51;-18.05;-9.89;5.0;989.31;44.182;35.95837;-83.9243;738.28;NaN;;4.9;616.4892;84.9;0 / 14;64511;2022-10-22 18:44:45:182
1.6196;1.4055;9.5871;0.0932;2.9285;9.3587;0.636;-0.7551;-0.0394;0.0982;0.1537;0.9028;34.0;3.73;-23.1;-44.79;212.96;-14.33;-1.51;5.0;989.31;35.805;35.95837;-83.9243;738.28;NaN;;4.9;616.4892;84.9;0 / 15;65012;2022-10-22 18:44:45:683
1.6041;3.2237;8.1855;1.2992;2.4366;9.4099;-0.4249;-1.15;3.1893;0.3037;-0.6761;-1.8545;29.0;-2.76;-26.74;-44.21;173.32;-15.09;-1.68;5.0;989.31;29.683;35.95837;-83.9243;738.28;NaN;;4.9;616.4892;84.9;0 / 15;65511;2022-10-22 18:44:46:182
-0.0371;2.7066;8.3782;0.9799;2.6958;9.3778;-0.7503;-0.0732;-0.7229;0.2909;0.3626;1.2447;35.0;-9.45;-23.59;-46.35;171.05;-13.14;-8.62;5.0;989.35;28.339;35.95837;-83.9243;738.28;NaN;;4.9;616.4892;84.9;0 / 15;66011;2022-10-22 18:44:46:682
0.7732;1.9391;8.7912;-0.5069;2.4934;9.4708;1.8853;1.2268;1.3266;-0.5663;1.5077;-0.161;39.0;-10.18;-19.01;-44.61;119.6;-18.65;-5.11;5.0;989.32;38.629;35.95837;-83.9243;738.28;NaN;;4.9;616.4892;84.9;0 / 15;66515;2022-10-22 18:44:47:186
-0.1292;2.7832;8.8463;0.3677;2.9103;9.3576;0.7877;-1.4439;1.0118;0.5287;1.2141;0.9913;20.0;-8.19;-16.63;-43.35;143.38;-11.53;-2.73;5.0;989.41;47.773;35.95837;-83.9243;738.28;NaN;;4.9;616.4892;84.9;0 / 15;67012;2022-10-22 18:44:47:683
2.5283;1.6005;7.1309;0.9777;1.5236;9.6381;0.9524;1.6897;-2.1291;0.154;-0.1852;0.0306;5.0;-13.13;-20.06;-38.25;152.33;-11.63;-10.18;5.0;989.38;43.427;35.95837;-83.9243;738.28;NaN;;4.9;616.4892;84.9;0 / 15;67512;2022-10-22 18:44:48:183
1.5562;3.0739;8.1039;1.6821;2.7522;9.261;-1.2763;0.6309;-0.4308;0.421;-0.4706;0.9539;7.0;-13.71;-20.4;-44.18;134.6;-12.06;-4.76;5.0;989.39;46.149;35.958256;-83.92453;783.54;NaN;;0.0;726.94037;;0 / 15;68011;2022-10-22 18:44:48:682
2.327;3.1747;8.2693;1.12;3.9064;8.925;0.5567;-0.4266;-0.5528;0.0958;0.5057;0.7287;8.0;-24.58;-26.57;-47.96;107.67;-22.06;-7.36;5.0;989.38;34.99;35.958256;-83.92453;783.54;NaN;;0.0;726.94037;;0 / 15;68511;2022-10-22 18:44:49:182
0.3987;2.5786;8.7087;1.5407;3.5852;8.9968;-1.4565;0.7531;2.0947;-0.2704;-0.8021;-0.2678;2.0;-19.65;-19.46;-52.29;77.29;-22.65;-6.25;5.0;989.41;33.72;35.958344;-83.92426;737.73;NaN;;2.84;802.29755;93.6;2 / 15;69011;2022-10-22 18:44:49:682
1.5526;4.107;8.1051;1.8625;3.9146;8.7964;-0.7827;0.6948;0.7837;-0.3082;-0.1958;-0.1021;3.0;-16.54;-18.9;-52.07;53.78;-23.53;-11.96;5.0;989.38;34.914;35.958344;-83.92426;737.73;NaN;;2.84;802.29755;93.6;2 / 15;69511;2022-10-22 18:44:50:182
1.768;1.6053;10.6825;2.2572;2.1551;9.2968;0.4669;-0.5015;-1.4647;-0.5185;-0.5632;-0.4232;3.0;-15.88;-22.28;-52.26;114.15;-19.13;-9.79;5.0;989.4;33.974;35.958344;-83.92426;737.73;NaN;;2.84;802.29755;93.6;2 / 15;70012;2022-10-22 18:44:50:683
2.5161;0.7229;10.0887;1.9779;1.3781;9.5057;-0.1569;-0.683;-0.4655;-0.3672;-0.2973;0.0945;6.0;-20.98;-20.61;-51.06;142.33;-8.08;-11.75;5.0;989.41;44.59;35.958344;-83.92426;737.73;NaN;;2.84;802.29755;93.6;2 / 15;70511;2022-10-22 18:44:51:182
1.0044;0.7014;9.0078;2.4766;0.5942;9.4701;-0.4015;0.5054;-1.8728;-0.3767;-0.1979;-0.2404;9.0;-25.8;-21.43;-47.42;138.49;-3.65;-12.01;5.0;989.39;43.499;35.958344;-83.92426;737.73;NaN;;2.84;802.29755;93.6;0 / 15;71011;2022-10-22 18:44:51:682
5.4215;0.6129;9.4113;3.0686;1.2287;9.2328;0.1887;-0.0727;0.5065;1.0164;-0.4342;0.006;9.0;-27.99;-16.33;-43.29;131.36;-2.57;-15.29;5.0;989.46;41.323;35.958344;-83.92426;737.73;NaN;;2.84;802.29755;93.6;0 / 15;71511;2022-10-22 18:44:52:182
2.2397;-0.693;12.7319;3.2968;0.4319;9.2258;0.0813;-0.6162;1.3909;-0.2693;0.2546;-0.1275;9.0;-23.91;-12.28;-41.94;128.49;-4.36;-17.17;5.0;989.44;54.232;35.958344;-83.92426;737.73;NaN;;2.84;802.29755;93.6;0 / 15;72011;2022-10-22 18:44:52:682
3.5671;-0.7289;9.7666;2.7089;0.313;9.4199;0.7162;-0.6984;-1.2677;0.0129;0.0419;0.3825;8.0;-15.69;-1.16;-43.8;81.41;-1.79;-16.24;5.0;989.49;37.718;35.958344;-83.92426;737.73;NaN;;2.84;802.29755;93.6;0 / 15;72511;2022-10-22 18:44:53:182
0.6117;1.6627;9.428;1.6278;2.5165;9.3374;-1.2764;-1.3104;-0.5013;-0.2491;-0.5975;-0.2103;4.0;-9.58;-0.77;-44.42;21.82;-13.7;-7.88;5.0;989.49;45.388;35.958344;-83.92426;737.73;NaN;;2.84;802.29755;93.6;0 / 15;73011;2022-10-22 18:44:53:682
3.845;1.6747;10.3651;2.4802;1.4909;9.37;-0.8158;-0.1245;-0.8037;-0.7636;-0.162;0.0557;3.0;-1.78;-3.75;-47.4;308.86;-10.45;-9.32;5.0;989.58;53.417;35.958344;-83.92426;737.73;NaN;;2.84;802.29755;93.6;0 / 15;73512;2022-10-22 18:44:54:183
2.7963;0.4023;7.1022;2.0001;0.372;9.5933;0.932;0.0308;-0.6406;-0.064;-0.0033;0.1763;4.0;-4.24;0.71;-45.22;301.87;-2.86;-11.7;5.0;989.52;38.463;35.958344;-83.92426;737.73;NaN;;2.84;802.29755;93.6;0 / 15;74011;2022-10-22 18:44:54:682
4.1489;0.0383;7.9232;1.9737;0.0794;9.6056;0.3547;0.2462;-1.4905;0.2797;0.3634;-0.0098;5.0;-10.16;4.54;-41.01;2.76;0.81;-13.42;5.0;989.55;46.357;35.958344;-83.92426;737.73;NaN;;2.84;802.29755;93.6;0 / 15;74513;2022-10-22 18:44:55:184
1.9247;-0.3162;6.6772;1.0721;0.398;9.7397;-0.8878;1.3907;1.9334;0.8693;-0.2103;1.1242;9.0;-17.83;7.93;-32.83;40.37;-4.4;-14.51;5.0;989.59;44.031;35.958344;-83.92426;737.73;NaN;;2.84;802.29755;93.6;0 / 15;75011;2022-10-22 18:44:55:682
1.5251;-0.0562;8.8391;2.2485;-0.0339;9.5453;-0.4581;1.2093;-0.8742;-0.0586;0.2586;0.529;25.0;-18.97;17.36;-31.52;33.47;0.2;-13.25;5.0;989.57;40.948;35.958344;-83.92426;737.73;NaN;;2.84;802.29755;93.6;0 / 15;75511;2022-10-22 18:44:56:182
2.3055;0.3987;8.0656;2.4094;0.4933;9.4933;-0.392;1.4529;0.1235;0.127;0.5291;0.7061;30.0;-18.41;17.87;-33.41;29.57;1.16;-13.51;5.0;989.56;36.029;35.958344;-83.92426;737.73;NaN;;2.84;802.29755;93.6;0 / 15;76011;2022-10-22 18:44:56:682
1.7189;0.3401;10.0301;2.5552;0.6541;9.4453;0.4303;-0.6338;0.02;0.2139;0.3761;0.037;18.0;-15.3;16.58;-38.25;13.04;-3.82;-15.14;5.0;989.59;36.899;35.958344;-83.92426;737.73;NaN;;2.84;802.29755;93.6;0 / 15;76511;2022-10-22 18:44:57:182
0.7732;2.8346;9.9296;1.5948;1.6935;9.5268;0.1535;0.6113;0.7954;0.2052;-0.1975;1.2297;33.0;-12.84;16.84;-40.41;9.38;-6.43;-13.14;5.0;989.59;34.618;35.958344;-83.92426;737.73;NaN;;2.84;802.29755;93.6;0 / 15;77012;2022-10-22 18:44:57:683
2.8549;-0.1328;8.3937;2.7472;0.318;9.4086;-0.1836;0.1994;0.0026;-0.128;-0.1575;0.2634;31.0;3.04;11.33;-43.29;314.3;-3.16;-14.35;5.0;989.57;30.728;35.958344;-83.92426;737.73;NaN;;2.84;802.29755;93.6;0 / 15;77511;2022-10-22 18:44:58:182
0.7564;3.4439;9.8554;2.1136;1.9331;9.379;-1.4703;0.7501;1.0824;1.2935;0.3567;1.8135;14.0;3.54;1.35;-42.19;304.89;-3.97;-13.11;5.0;989.62;31.03;35.958344;-83.92426;737.73;NaN;;2.84;802.29755;93.6;0 / 15;78011;2022-10-22 18:44:58:682
2.1141;2.6276;9.495;2.0081;3.1679;9.061;0.8059;-1.0817;0.227;0.1601;-0.2149;0.3828;22.0;2.21;-18.58;-35.48;229.83;-19.24;-9.78;5.0;989.62;37.743;35.958344;-83.92426;737.73;NaN;;2.84;802.29755;93.6;0 / 15;78511;2022-10-22 18:44:59:182
2.0506;1.5622;8.3148;2.4197;2.8139;9.0773;-0.9591;-0.5038;-0.727;-0.2611;-0.0986;-0.1231;22.0;-2.76;-15.97;-33.66;225.68;-16.99;-14.47;5.0;989.59;39.551;35.958344;-83.92426;737.73;NaN;;2.84;802.29755;93.6;0 / 15;79012;2022-10-22 18:44:59:683
2.272;2.4431;7.1178;2.7146;1.7711;9.2555;1.8421;0.7223;1.3211;-0.2913;-0.4066;-0.0695;20.0;-9.13;-11.19;-29.7;200.73;-10.94;-20.07;5.0;989.57;36.519;35.958344;-83.92426;737.73;NaN;;2.84;802.29755;93.6;0 / 15;79511;2022-10-22 18:45:00:182
1.506;1.5156;8.8834;2.2471;2.1735;9.295;0.3634;-0.2485;-0.3286;0.1476;0.5739;-0.1229;17.0;-12.9;-5.38;-22.41;101.72;-9.02;-19.67;5.0;989.65;47.291;35.958344;-83.92426;737.73;NaN;;2.84;802.29755;93.6;0 / 15;80012;2022-10-22 18:45:00:683
2.3928;3.2919;5.7482;2.055;3.584;8.8939;0.2239;0.1844;-2.5725;-0.7093;-0.192;-0.1952;9.0;-9.94;0.81;-18.13;24.62;-21.6;-18.31;5.0;989.62;62.384;35.958344;-83.92426;737.73;NaN;;2.84;802.29755;93.6;0 / 15;80512;2022-10-22 18:45:01:183
2.2887;3.0799;7.296;1.2189;4.1689;8.7923;0.3758;-0.469;1.9106;0.6625;0.3707;0.1787;4.0;-5.17;5.66;-17.19;3.63;-15.16;-14.25;5.0;989.69;53.218;35.958344;-83.92426;737.73;NaN;;2.84;802.29755;93.6;0 / 15;81012;2022-10-22 18:45:01:683
1.5885;3.6559;7.1477;-0.5476;4.5671;8.6609;0.793;0.5123;0.9769;0.1875;-1.0334;0.0091;4.0;5.36;7.73;-18.97;346.72;-27.76;3.62;5.0;989.66;50.468;35.958344;-83.92426;737.73;NaN;;2.84;802.29755;93.6;0 / 15;81511;2022-10-22 18:45:02:182
3.7074;3.4881;6.3646;1.7527;4.7003;8.4265;-0.9479;0.249;2.0446;2.1771;0.2485;0.522;4.0;9.94;8.96;-18.83;319.31;-22.24;-8.76;5.0;989.71;47.1;35.958344;-83.92426;737.73;NaN;;2.84;802.29755;93.6;0 / 15;82011;2022-10-22 18:45:02:682
3.4857;3.3805;8.0082;1.2694;3.9102;8.9033;-1.024;2.7149;0.6968;-0.3471;-0.0547;-0.1975;4.0;14.55;5.44;-21.54;304.68;-23.5;-8.11;5.0;989.71;63.89;35.958344;-83.92426;737.73;NaN;;2.84;802.29755;93.6;0 / 15;82512;2022-10-22 18:45:03:183
1.6914;2.8693;7.7976;1.0714;4.2285;8.7831;1.456;0.0475;-0.7782;-0.8505;0.9483;0.7567;4.0;19.59;8.76;-22.05;303.42;-17.85;-5.98;5.0;989.81;47.688;35.958344;-83.92426;737.73;NaN;;2.84;802.29755;93.6;0 / 15;83011;2022-10-22 18:45:03:682
0.3508;0.9793;9.4017;-1.1712;1.6438;9.5967;1.0505;-1.0175;-0.7981;0.5782;-0.7642;-0.8513;6.0;28.89;11.53;-21.34;301.38;-8.23;8.91;5.0;989.76;41.907;35.958344;-83.92426;737.73;NaN;;2.84;802.29755;93.6;0 / 15;83514;2022-10-22 18:45:04:185
-0.0814;2.1045;7.418;0.0862;2.3853;9.5117;-0.6093;-0.372;-1.3027;0.2551;-0.1766;0.9715;13.0;32.61;20.63;-17.7;306.46;-14.3;-1.12;5.0;989.75;54.238;35.958344;-83.92426;737.73;NaN;;2.84;802.29755;93.6;0 / 15;84012;2022-10-22 18:45:04:683
2.6707;1.8206;11.4939;-0.6555;1.9926;9.5797;1.7671;0.1538;-2.1242;-0.5381;0.027;-0.1713;24.0;37.88;15.62;-20.47;300.02;-14.8;3.63;5.0;989.87;46.235;35.958344;-83.92426;737.73;NaN;;2.84;802.29755;93.6;0 / 15;84511;2022-10-22 18:45:05:182
-2.2696;1.9187;9.6589;0.6075;1.1323;9.7221;-2.4997;1.3136;0.6301;0.5617;0.6221;1.978;37.0;33.24;7.48;-25.8;284.46;-5.12;-4.77;5.0;989.84;47.175;35.958344;-83.92426;737.73;NaN;;2.84;802.29755;93.6;0 / 15;85011;2022-10-22 18:45:05:682
1.7429;-0.1902;12.0664;1.0392;0.732;9.7239;1.0416;-2.0243;-0.1545;0.4109;-0.4235;-0.1251;27.0;17.21;-15.11;-28.84;236.7;-4.68;-4.75;5.0;989.89;39.316;35.958344;-83.92426;737.73;NaN;;2.84;802.29755;93.6;0 / 15;85512;2022-10-22 18:45:06:183
0.7493;2.9195;9.0748;1.6269;1.7083;9.5187;-0.3309;0.1579;-1.2806;0.6224;0.4383;1.2364;20.0;0.99;-14.44;-30.17;213.12;-9.13;-9.56;5.0;989.84;48.985;35.958344;-83.92426;737.73;NaN;;2.84;802.29755;93.6;0 / 15;86011;2022-10-22 18:45:06:682
1.7082;3.4786;9.6924;0.3513;2.0852;9.576;-0.3337;0.2816;1.086;-0.1564;-0.9302;0.1311;44.0;-5.62;-17.14;-29.89;152.28;-13.19;-1.75;5.0;989.84;43.951;35.958344;-83.92426;737.73;NaN;;2.84;802.29755;93.6;0 / 15;86512;2022-10-22 18:45:07:183
1.2006;1.0654;9.4508;1.8878;1.1451;9.5549;-1.2675;-0.0429;-0.6274;0.1589;-0.149;0.2764;47.0;-2.29;-16.78;-31.8;197.16;-8.3;-10.34;5.0;989.84;36.568;35.958344;-83.92426;737.73;NaN;;2.84;802.29755;93.6;0 / 14;87012;2022-10-22 18:45:07:683
1.0152;3.0933;9.8363;1.3713;2.3975;9.4097;0.0701;0.4947;-0.3004;0.3055;1.17;0.9968;20.0;4.22;-17.23;-37.76;231.78;-14.15;-8.29;5.0;989.82;34.74;35.958344;-83.92426;737.73;NaN;;2.84;802.29755;93.6;0 / 14;87511;2022-10-22 18:45:08:182
2.4718;1.847;10.054;1.1185;2.9916;9.272;0.6981;-0.484;-0.2393;-0.0197;-0.1773;0.4413;12.0;5.1;-24.97;-32.78;206.07;-18.58;-2.6;5.0;989.84;31.069;35.958344;-83.92426;737.73;NaN;;2.84;802.29755;93.6;0 / 15;88011;2022-10-22 18:45:08:682
0.7528;1.7524;8.5624;1.1162;2.5587;9.4009;-0.3376;-0.9809;-0.7322;0.1899;0.2563;0.1387;11.0;-1.12;-33.77;-27.79;185.16;-15.12;-6.77;5.0;989.81;35.329;35.958344;-83.92426;737.73;NaN;;2.84;802.29755;93.6;0 / 15;88514;2022-10-22 18:45:09:185
1.7895;2.9315;9.7355;1.6472;2.8567;9.2356;0.2169;-1.1193;0.4305;0.0283;0.4609;-0.085;6.0;-6.38;-39.99;-23.57;176.88;-15.87;-10.02;5.0;989.85;52.763;35.958344;-83.92426;737.73;NaN;;2.84;802.29755;93.6;0 / 15;89011;2022-10-22 18:45:09:682
1.2365;2.6288;10.9902;0.6569;1.3783;9.6871;-0.4855;-0.3058;1.1712;0.6081;-0.2869;0.9915;4.0;-18.08;-46.31;-17.47;158.06;-9.86;-3.21;5.0;989.92;43.762;35.958344;-83.92426;737.73;NaN;;2.84;802.29755;93.6;0 / 15;89511;2022-10-22 18:45:10:182
-0.947;5.4108;13.1327;1.0983;2.6878;9.367;-0.6914;1.5714;4.433;0.7412;-0.281;-0.5548;5.0;-22.33;-44.23;-20.4;152.95;-10.01;-4.95;5.0;989.93;41.489;35.958344;-83.92426;737.73;NaN;;2.84;802.29755;93.6;0 / 15;90012;2022-10-22 18:45:10:683
3.044;1.9415;8.6737;1.4242;3.6858;8.9754;-0.8943;1.2339;1.1973;0.8627;0.6112;-0.0168;3.0;-25.86;-39.49;-6.99;143.91;-18.57;-10.85;5.0;989.9;38.787;35.958344;-83.92426;737.73;NaN;;2.84;802.29755;93.6;0 / 15;90511;2022-10-22 18:45:11:182
2.0171;2.0794;6.9069;0.3821;3.1056;9.2941;-0.9181;0.602;1.3519;-0.074;-0.6174;-0.3769;2.0;-15.04;-30.71;-6.07;150.28;-20.38;-7.09;5.0;989.98;41.455;35.958344;-83.92426;737.73;NaN;;2.84;802.29755;93.6;0 / 15;91011;2022-10-22 18:45:11:682
2.8872;1.6603;6.9811;1.5746;2.2388;9.417;-0.2651;0.8669;1.9932;0.4672;-0.4842;0.1519;3.0;-10.58;-25.28;-8.53;157.05;-13.59;-10.3;5.0;989.92;42.426;35.958344;-83.92426;737.73;NaN;;2.84;802.29755;93.6;0 / 15;91511;2022-10-22 18:45:12:182
2.7676;2.4885;8.6043;0.8281;3.9973;8.9166;0.5305;-0.036;0.5926;0.3019;-0.4503;-0.099;3.0;-8.42;-24.75;-7.57;163.37;-18.11;-11.66;5.0;990.03;40.218;35.958344;-83.92426;737.73;NaN;;2.84;802.29755;93.6;0 / 15;92012;2022-10-22 18:45:12:683
0.984;3.1292;8.6498;1.3539;3.1798;9.1775;-0.7799;-0.7902;-0.1374;0.2501;-0.518;0.2004;3.0;-7.33;-32.96;-3.43;168.02;-19.33;-10.86;5.0;990.01;53.178;35.958344;-83.92426;737.73;NaN;;2.84;802.29755;93.6;0 / 15;92511;2022-10-22 18:45:13:182
0.7241;1.7489;9.2375;-0.0093;2.3504;9.5208;1.0248;-0.6866;-2.839;-0.5797;0.4746;-0.7169;4.0;-10.37;-38.66;-0.06;165.08;-15.99;-9.1;5.0;990.02;58.809;35.958344;-83.92426;737.73;NaN;;2.84;802.29755;93.6;0 / 15;93011;2022-10-22 18:45:13:682
0.7648;4.2712;10.1557;0.663;3.0857;9.2849;-0.008;0.0674;-1.0918;0.0533;-0.3305;0.3945;7.0;-4.41;-37.63;6.39;173.35;-18.34;-4.08;5.0;990.06;52.201;35.958344;-83.92426;737.73;NaN;;2.84;802.29755;93.6;0 / 15;93512;2022-10-22 18:45:14:183
1.4581;3.1926;10.5844;0.9448;3.1876;9.2259;1.4833;-0.7624;-1.3783;-0.1354;0.0461;0.1651;19.0;-7.42;-28.82;8.68;167.45;-16.52;1.45;5.0;990.09;41.205;35.958344;-83.92426;737.73;NaN;;2.84;802.29755;93.6;0 / 15;94011;2022-10-22 18:45:14:682
-2.618;8.383;13.0334;0.5371;3.1482;9.272;-0.54;1.6629;-0.6961;0.3422;0.8175;1.6566;26.0;5.01;-11.76;-3.49;206.2;-18.73;-3.32;5.0;990.11;62.236;35.958344;-83.92426;737.73;NaN;;2.84;802.29755;93.6;0 / 15;94512;2022-10-22 18:45:15:183
1.8637;1.2736;10.1318;1.0948;3.7357;9.0009;0.5679;-1.5763;-0.0162;-0.3369;0.2895;0.1081;24.0;12.0;-10.42;-11.62;248.4;-22.15;-4.76;5.0;990.1;38.658;35.958344;-83.92426;737.73;NaN;;2.84;802.29755;93.6;0 / 15;95012;2022-10-22 18:45:15:683
1.3753;2.2768;9.0808;1.6783;2.3521;9.3713;0.4329;0.5071;-1.4597;-0.024;0.254;0.7981;14.0;4.13;-11.66;-22.52;232.17;-14.44;-9.94;5.0;990.09;52.522;35.958344;-83.92426;737.73;NaN;;2.84;802.29755;93.6;0 / 15;95512;2022-10-22 18:45:16:183
2.9566;2.5331;8.5433;1.9096;3.1897;9.0747;1.18;-0.8563;-0.8529;-0.0853;0.3832;0.1526;21.0;-0.97;-5.74;-31.11;320.19;-20.26;-9.59;5.0;990.05;44.467;35.958344;-83.92426;737.73;NaN;;2.84;802.29755;93.6;0 / 15;96011;2022-10-22 18:45:16:682
2.4455;3.5647;8.8487;1.9811;2.3358;9.3161;-0.4035;0.2802;-1.1875;-0.2335;0.3567;0.2047;25.0;-10.63;17.23;-60.77;354.62;-14.71;-13.02;5.0;990.09;41.237;35.958344;-83.92426;737.73;NaN;;2.84;802.29755;93.6;0 / 15;96511;2022-10-22 18:45:17:182
2.3976;3.3218;7.9352;1.9641;3.4146;8.9807;-0.3566;0.6207;-0.3663;0.1943;0.483;1.2328;9.0;-37.87;31.26;-61.61;21.1;-18.09;-15.74;5.0;990.08;43.467;35.958344;-83.92426;737.73;NaN;;2.84;802.29755;93.6;0 / 15;97011;2022-10-22 18:45:17:682
1.8434;2.9901;7.9807;2.2498;3.4266;8.9088;-0.7209;0.2145;0.1195;-0.2939;0.338;0.0611;5.0;-14.17;27.9;-61.65;358.74;-20.22;-13.68;5.0;990.08;38.482;35.958344;-83.92426;737.73;NaN;;2.84;802.29755;93.6;0 / 15;97512;2022-10-22 18:45:18:183
1.27;3.9969;8.0788;1.4236;4.0453;8.8193;0.5605;0.8414;-0.5552;0.0501;0.6118;0.7733;4.0;-14.19;20.44;-57.07;1.19;-22.62;-12.96;5.0;990.08;35.302;35.958344;-83.92426;737.73;NaN;;2.84;802.29755;93.6;0 / 15;98011;2022-10-22 18:45:18:682
1.5921;4.4243;10.273;1.2114;4.5145;8.621;1.1005;-0.4075;-0.3647;-0.3439;0.3176;-0.3315;4.0;-0.81;8.89;-57.09;352.28;-26.02;-5.51;5.0;990.09;48.568;35.958344;-83.92426;737.73;NaN;;2.84;802.29755;93.6;0 / 15;98511;2022-10-22 18:45:19:182
-1.2664;2.3892;9.6912;-0.4233;3.0922;9.2968;-0.1782;-0.5388;-1.6515;-1.115;0.3826;0.1103;4.0;4.58;6.94;-55.78;347.83;-25.06;-3.55;5.0;990.09;45.358;35.958344;-83.92426;737.73;NaN;;2.84;802.29755;93.6;0 / 15;99011;2022-10-22 18:45:19:682
-1.7883;3.0655;8.7446;-2.1808;3.2491;8.9921;0.8706;-0.4655;0.0736;0.4692;-0.5253;-0.3464;4.0;17.16;8.55;-51.34;350.27;-19.35;13.63;5.0;990.11;44.844;35.958344;-83.92426;737.73;NaN;;2.84;802.29755;93.6;0 / 15;99513;2022-10-22 18:45:20:184
-0.9374;-1.6424;8.2645;-2.2146;-1.447;9.4431;-0.2002;0.7655;-0.8063;-3.3416;0.6095;-2.4318;4.0;23.59;-1.11;-48.9;316.41;-19.67;9.23;5.0;990.1;40.746;35.958344;-83.92426;737.73;NaN;;2.84;802.29755;93.6;0 / 15;100012;2022-10-22 18:45:20:683
1.8924;-4.4076;6.3431;1.0304;-4.7668;8.508;-0.6724;1.8324;-0.5267;0.1429;-0.0738;-0.0079;4.0;4.18;35.4;-44.44;316.0;29.08;-6.91;5.0;990.16;47.194;35.958344;-83.92426;737.73;NaN;;2.84;802.29755;93.6;0 / 15;100511;2022-10-22 18:45:21:182
-3.0129;-6.0571;10.2682;-0.8111;-4.6709;8.5846;-2.8225;-0.1227;1.1631;-0.567;-1.0536;0.874;8.0;4.54;39.43;-35.91;353.68;25.71;4.52;5.0;990.2;42.401;35.958344;-83.92426;737.73;NaN;;2.84;802.29755;93.6;0 / 15;101012;2022-10-22 18:45:21:683
-0.4561;-0.1412;10.8583;-0.9367;-0.9643;9.7141;0.7367;0.3858;-0.1413;0.9489;0.6816;1.4121;10.0;19.69;23.91;-27.86;312.8;12.09;2.38;5.0;990.28;44.273;35.958344;-83.92426;737.73;NaN;;2.84;802.29755;93.6;0 / 15;101512;2022-10-22 18:45:22:183
0.2898;-0.5423;9.1442;-2.3157;-1.172;9.457;0.4675;0.2318;0.3432;0.2495;-0.236;0.0325;15.0;23.57;11.12;-25.29;290.55;6.7;7.73;5.0;990.25;44.007;35.958344;-83.92426;737.73;NaN;;2.84;802.29755;93.6;0 / 14;102011;2022-10-22 18:45:22:682
-1.1671;0.5782;7.5712;-1.5234;-0.3391;9.6817;-0.0509;0.6525;-0.4743;-0.0199;-0.0214;1.0068;30.0;38.18;1.37;-19.39;269.19;3.44;9.16;5.0;990.23;45.189;35.958344;-83.92426;737.73;NaN;;2.84;802.29755;93.6;0 / 14;102511;2022-10-22 18:45:23:182
-0.0263;0.3353;9.1514;-0.2146;1.8919;9.62;0.3923;-0.3796;-1.42;-0.3449;0.5072;1.455;38.0;37.05;-12.56;-21.97;257.24;-11.44;-0.13;5.0;990.23;38.65;35.958344;-83.92426;737.73;NaN;;2.84;802.29755;93.6;0 / 15;103011;2022-10-22 18:45:23:682
1.1731;1.8888;7.6361;0.3366;1.535;9.6799;-0.0515;0.9155;-1.4244;-0.2036;0.4647;0.846;25.0;26.53;-28.29;-28.35;229.1;-8.84;0.06;5.0;990.26;44.622;35.958344;-83.92426;737.73;NaN;;2.84;802.29755;93.6;0 / 15;103512;2022-10-22 18:45:24:183
1.8876;1.902;8.2669;0.9695;2.8061;9.3465;0.8861;-0.178;-1.3981;-0.2378;0.018;0.1094;33.0;13.35;-41.57;-29.74;221.65;-18.95;-7.71;5.0;990.24;35.864;35.958344;-83.92426;737.73;NaN;;2.84;802.29755;93.6;0 / 15;104011;2022-10-22 18:45:24:682
1.2939;2.6001;8.4523;1.342;3.6328;9.0096;-0.7772;0.8905;-0.7252;-0.2991;0.4787;0.9134;58.0;1.76;-49.82;-28.46;189.55;-21.74;-8.47;5.0;990.26;38.661;35.958344;-83.92426;737.73;NaN;;2.84;802.29755;93.6;0 / 15;104512;2022-10-22 18:45:25:183
0.4454;4.5715;8.1951;1.7478;4.2768;8.6501;-1.6691;0.8566;0.8117;0.6189;-0.2931;0.9901;52.0;-9.99;-48.54;-27.86;180.68;-23.39;-10.93;5.0;990.25;37.982;35.958344;-83.92426;737.73;NaN;;2.84;802.29755;93.6;0 / 15;105011;2022-10-22 18:45:25:682
2.2493;1.3669;8.8355;1.3356;2.2688;9.4466;0.4422;0.5525;-0.442;-0.7988;-0.7306;0.24;5.0;-26.55;-44.32;-24.94;147.31;-13.38;-8.05;5.0;990.23;25.731;35.958344;-83.92426;737.73;NaN;;2.84;802.29755;93.6;0 / 15;105511;2022-10-22 18:45:26:182
1.2832;-1.1216;8.8618;1.5518;-0.6548;9.6609;-0.0501;-0.4615;-0.8515;-0.5227;-0.0848;-0.0815;5.0;-39.45;-29.16;-38.08;130.91;-4.14;-12.85;5.0;990.24;33.556;35.958344;-83.92426;737.73;NaN;;2.84;802.29755;93.6;0 / 15;106011;2022-10-22 18:45:26:682
1.6591;-0.4525;9.7762;1.2716;-0.5612;9.7076;-0.1054;-0.5404;-0.455;0.1242;-0.1674;0.5851;4.0;-50.25;-29.96;-34.87;125.66;3.28;-7.46;5.0;990.25;48.687;35.958344;-83.92426;737.73;NaN;;2.84;802.29755;93.6;0 / 15;106513;2022-10-22 18:45:27:184
2.7185;0.3269;7.7737;1.8826;0.4853;9.612;-0.1107;-0.2408;-2.4172;0.0317;-0.2117;-0.3548;4.0;-52.97;-34.8;-17.79;126.39;1.48;-11.28;5.0;990.24;40.888;35.958344;-83.92426;737.73;NaN;;2.84;802.29755;93.6;0 / 15;107012;2022-10-22 18:45:27:683
-0.5901;0.1113;7.5401;1.2425;0.2634;9.7241;0.4487;-0.1561;-1.6653;0.0567;-0.178;-0.4406;4.0;-34.67;-45.79;-9.73;143.76;-0.32;-6.45;5.0;990.28;42.879;35.958344;-83.92426;737.73;NaN;;2.84;802.29755;93.6;0 / 15;107511;2022-10-22 18:45:28:182
2.0171;0.7469;8.0991;2.7394;-0.0405;9.4162;-0.6797;-0.1908;0.2441;1.1634;0.7558;0.0037;4.0;-20.59;-36.19;-19.31;161.82;3.33;-16.96;5.0;990.33;39.47;35.958344;-83.92426;737.73;NaN;;2.84;802.29755;93.6;0 / 15;108011;2022-10-22 18:45:28:682
4.215;-0.3903;10.2263;1.3017;0.4937;9.7073;0.2253;-0.4704;3.4749;-0.0618;-0.007;0.7346;3.0;-22.56;-21.26;-23.74;134.12;-5.36;-9.07;5.0;990.34;44.565;35.958344;-83.92426;737.73;NaN;;2.84;802.29755;93.6;0 / 15;108512;2022-10-22 18:45:29:183
0.6392;0.583;6.9272;1.1533;1.6579;9.5964;-0.4804;-0.5088;-2.8742;-0.7748;-0.731;0.1965;2.0;-24.77;-13.89;-26.85;113.58;-8.69;-7.37;5.0;990.36;44.406;35.958344;-83.92426;737.73;NaN;;2.84;802.29755;93.6;0 / 15;109011;2022-10-22 18:45:29:682
1.7548;-0.2958;11.2451;1.5995;0.4674;9.664;-0.4279;-0.8773;-0.5611;-0.7088;-0.83;-0.5236;2.0;-24.19;-6.67;-29.92;98.23;-6.93;-4.8;5.0;990.4;43.434;35.958344;-83.92426;737.73;NaN;;2.84;802.29755;93.6;0 / 15;109511;2022-10-22 18:45:30:182
3.7516;-0.2309;10.9531;2.8518;-0.2644;9.3791;-0.2536;0.2228;2.2198;-0.0297;0.3543;-0.2806;2.0;-22.37;-1.84;-32.19;93.12;-2.01;-14.65;5.0;990.39;40.53;35.958344;-83.92426;737.73;NaN;;2.84;802.29755;93.6;0 / 15;110011;2022-10-22 18:45:30:682
3.134;0.8402;8.6294;2.5126;-0.2112;9.477;0.3088;0.7738;0.9063;0.2604;0.0961;0.7582;3.0;-21.51;2.72;-37.46;77.87;0.58;-14.51;5.0;990.44;42.284;35.958344;-83.92426;737.73;NaN;;2.84;802.29755;93.6;0 / 15;110513;2022-10-22 18:45:31:184
1.427;-0.5255;9.7726;1.6263;-0.2284;9.6682;-0.3138;-1.2633;-0.7112;0.427;0.3769;1.0707;5.0;-22.97;8.33;-40.07;67.45;5.86;-19.93;5.0;990.43;41.608;35.958344;-83.92426;737.73;NaN;;2.84;802.29755;93.6;0 / 15;111011;2022-10-22 18:45:31:682
2.7317;0.9565;8.3949;2.2333;0.3483;9.5426;0.1699;0.4135;-1.258;0.0957;0.005;0.8487;10.0;-23.31;7.41;-44.46;54.87;-2.04;-13.17;5.0;990.41;39.061;35.958344;-83.92426;737.73;NaN;;2.84;802.29755;93.6;0 / 15;111511;2022-10-22 18:45:32:182
1.9044;-0.9182;8.3148;2.6492;0.0404;9.442;-0.138;-0.5311;0.5311;0.4389;0.1126;0.0583;15.0;-26.23;11.66;-43.05;52.3;0.43;-14.21;5.0;990.43;44.66;35.958344;-83.92426;737.73;NaN;;2.84;802.29755;93.6;0 / 15;112011;2022-10-22 18:45:32:682
0.8943;0.8127;9.0329;2.7445;0.6722;9.3908;-1.8802;0.3783;1.9955;0.6732;0.2889;0.9481;11.0;-33.54;11.68;-40.18;54.53;-3.93;-16.29;5.0;990.45;34.822;35.958344;-83.92426;737.73;NaN;;2.84;802.29755;93.6;0 / 15;112512;2022-10-22 18:45:33:183
1.9558;0.3006;9.9332;2.9294;0.1677;9.3574;0.6906;0.7517;0.0207;-0.4215;-0.214;0.4726;10.0;-36.07;16.59;-36.54;51.54;-2.54;-16.6;5.0;990.52;39.072;35.958344;-83.92426;737.73;NaN;;2.84;802.29755;93.6;0 / 15;113012;2022-10-22 18:45:33:683
1.9789;0.2874;11.6378;3.3183;-0.3756;9.2205;-0.8865;0.0788;0.1815;0.654;-0.2194;1.0724;18.0;-42.06;27.41;-20.91;53.39;4.27;-18.98;5.0;990.47;40.058;35.958344;-83.92426;737.73;NaN;;2.84;802.29755;93.6;0 / 15;113511;2022-10-22 18:45:34:182
2.8202;-1.0152;9.987;2.7185;-1.1948;9.3463;0.5057;0.0318;0.2472;0.3633;0.1702;0.6752;19.0;-32.91;39.45;-14.46;38.81;9.88;-16.22;5.0;990.42;33.773;35.958344;-83.92426;737.73;NaN;;2.84;802.29755;93.6;0 / 15;114012;2022-10-22 18:45:34:683
2.2469;-0.8477;11.123;2.601;-0.785;9.4228;0.1384;0.6694;0.3262;-0.1377;0.1027;-0.2443;4.0;-16.31;51.53;-16.07;12.5;4.8;-15.55;5.0;990.46;25.727;35.958344;-83.92426;737.73;NaN;;2.84;802.29755;93.6;0 / 15;114512;2022-10-22 18:45:35:183
2.0231;0.2886;8.4428;2.1436;-0.1086;9.5689;0.1409;-0.1517;-1.1143;0.646;0.0535;0.7913;4.0;-16.87;55.88;-15.94;14.35;1.03;-13.55;5.0;990.41;28.191;35.958344;-83.92426;737.73;NaN;;2.84;802.29755;93.6;0 / 15;115011;2022-10-22 18:45:35:682
2.2361;1.5251;8.5062;1.8896;0.7071;9.5969;1.0139;-0.2722;2.4726;0.9055;-0.4229;-0.0158;4.0;-5.12;61.37;-23.29;358.61;-3.67;-15.94;5.0;990.45;40.241;35.958344;-83.92426;737.73;NaN;;2.84;802.29755;93.6;0 / 15;115511;2022-10-22 18:45:36:182
1.4856;-0.4884;8.8259;2.3527;0.6349;9.4991;-1.0906;-0.3202;2.5675;0.3788;0.0598;0.325;3.0;0.17;68.94;-24.94;354.91;-2.6;-14.04;5.0;990.52;47.776;35.958344;-83.92426;737.73;NaN;;2.84;802.29755;93.6;0 / 15;116012;2022-10-22 18:45:36:683
2.053;-0.6332;8.1401;2.2365;0.0228;9.5482;0.5586;0.1233;-1.9919;0.0409;-0.0768;0.1137;3.0;4.22;73.01;-23.81;352.9;-2.81;-12.82;5.0;990.45;42.738;35.958344;-83.92426;737.73;NaN;;2.84;802.29755;93.6;0 / 15;116513;2022-10-22 18:45:37:184
2.0758;-0.2596;8.1832;2.3437;0.5684;9.5055;-0.1175;0.1228;-1.1041;-0.1691;0.2687;0.0116;3.0;8.93;68.31;-21.62;348.11;-0.21;-14.83;5.0;990.52;48.884;35.958344;-83.92426;737.73;NaN;;2.84;802.29755;93.6;0 / 15;117011;2022-10-22 18:45:37:682
2.1212;0.705;7.9675;2.4313;0.6357;9.4792;0.6406;-0.0261;-2.1369;-0.1858;0.2033;0.2487;3.0;22.31;47.01;-29.42;329.48;-3.72;-14.39;5.0;990.53;41.89;35.958344;-83.92426;737.73;NaN;;2.84;802.29755;93.6;0 / 15;117511;2022-10-22 18:45:38:182
2.071;0.577;8.6605;2.6872;1.6871;9.2792;0.9101;0.4105;-0.4999;0.2883;0.3976;1.2848;3.0;28.09;30.66;-33.86;311.19;-3.44;-17.68;5.0;990.53;45.661;35.958344;-83.92426;737.73;NaN;;2.84;802.29755;93.6;0 / 15;118012;2022-10-22 18:45:38:683
2.6767;1.2532;7.0878;1.9283;-0.1644;9.6138;0.4996;0.0393;-1.0765;0.3719;-0.5559;-0.9844;5.0;35.25;5.68;-37.29;277.54;0.96;-11.34;5.0;990.57;42.48;35.958344;-83.92426;737.73;NaN;;2.84;802.29755;93.6;0 / 15;118511;2022-10-22 18:45:39:182
1.0857;-1.9152;9.6912;1.6589;0.1638;9.6639;0.5043;0.2594;1.116;1.1764;-0.8648;0.1809;5.0;27.92;19.58;-36.56;298.79;-4.2;-21.33;5.0;990.6;50.409;35.958344;-83.92426;737.73;NaN;;2.84;802.29755;93.6;0 / 15;119011;2022-10-22 18:45:39:682
1.4498;0.8907;12.4182;1.3936;0.4685;9.6958;0.6797;1.3641;-1.5482;0.0489;-0.6772;0.2423;6.0;16.29;20.78;-23.38;320.9;-2.93;-4.98;5.0;990.66;47.479;35.958344;-83.92426;737.73;NaN;;2.84;802.29755;93.6;0 / 15;119512;2022-10-22 18:45:40:183
0.0658;1.9343;9.8243;0.9305;1.4139;9.6595;-0.6101;-0.0309;-0.0155;0.1561;0.7907;-0.6913;14.0;4.71;17.34;-16.97;339.84;-5.56;-6.15;5.0;990.57;45.837;35.958344;-83.92426;737.73;NaN;;2.84;802.29755;93.6;0 / 15;120011;2022-10-22 18:45:40:682
-0.5602;5.5089;8.7841;-0.452;2.9315;9.3473;0.871;-1.3768;-1.3269;1.4694;-0.5545;-1.6601;29.0;-14.66;16.56;-12.96;38.13;-17.39;2.77;5.0;990.61;30.514;35.958344;-83.92426;737.73;NaN;;2.84;802.29755;93.6;0 / 15;120511;2022-10-22 18:45:41:182
-0.4597;1.3119;9.6518;0.5589;2.4807;9.4712;-0.2906;-1.063;-0.0957;-0.2407;0.646;1.2193;32.0;-30.41;11.61;-7.18;62.84;-18.98;-7.16;5.0;990.6;34.099;35.958344;-83.92426;737.73;NaN;;2.84;802.29755;93.6;0 / 15;121011;2022-10-22 18:45:41:682
-0.4789;2.5499;9.0915;-0.1067;2.1434;9.569;0.3197;-0.4724;0.3514;0.1796;0.4965;0.593;37.0;-20.21;25.74;-7.61;36.58;-12.62;0.64;5.0;990.66;39.08;35.958344;-83.92426;737.73;NaN;;2.84;802.29755;93.6;0 / 15;121511;2022-10-22 18:45:42:182
-0.3018;2.7544;9.2076;-1.0114;3.4275;9.1324;0.4222;-0.5451;0.264;0.7036;0.5023;-0.0699;48.0;-6.32;30.94;-12.58;12.23;-18.76;5.53;5.0;990.65;36.678;35.958344;-83.92426;737.73;NaN;;2.84;802.29755;93.6;0 / 15;122011;2022-10-22 18:45:42:682
-3.6942;5.2238;7.9113;-3.2225;4.654;8.0079;0.2907;-0.0841;0.2703;0.0871;0.2766;-0.0061;47.0;0.64;29.1;-17.64;7.86;-27.59;18.16;5.0;990.67;21.699;35.958344;-83.92426;737.73;NaN;;2.84;802.29755;93.6;0 / 15;122511;2022-10-22 18:45:43:182