ACCELEROMETER X (m/s²);ACCELEROMETER Y (m/s²);ACCELEROMETER Z (m/s²);GRAVITY X (m/s²);GRAVITY Y (m/s²);GRAVITY Z (m/s²);LINEAR ACCELERATION X (m/s²);LINEAR ACCELERATION Y (m/s²);LINEAR ACCELERATION Z (m/s²);GYROSCOPE X (rad/s);GYROSCOPE Y (rad/s);GYROSCOPE Z (rad/s);LIGHT (lux);MAGNETIC FIELD X (μT);MAGNETIC FIELD Y (μT);MAGNETIC FIELD Z (μT);ORIENTATION Z (azimuth °);ORIENTATION X (pitch °);ORIENTATION Y (roll °);PROXIMITY (i);ATMOSPHERIC PRESSURE (hPa);SOUND LEVEL (dB);LOCATION Latitude : ;LOCATION Longitude : ;LOCATION Altitude ( m);LOCATION Altitude-google ( m);LOCATION Altitude-atmospheric pressure ( m);LOCATION Speed ( Kmh);LOCATION Accuracy ( m);LOCATION ORIENTATION (°);Satellites in range;Time since start in ms ;YYYY-MO-DD HH-MI-SS_SSS
0.5758;1.8302;9.1035;-0.4178;1.9517;9.6014;1.0329;-0.471;-0.1917;0.6981;-0.2346;0.6139;227.0;1.01;-29.57;-42.17;172.52;-5.29;6.02;5.0;984.74;45.182;35.958233;-83.92452;787.42;NaN;;0.0;32.11779;;0 / 17;9;2022-10-24 21:15:08:794
2.1176;0.2656;13.4094;1.9715;2.0391;9.3875;-1.0352;0.3663;-0.5844;-0.7873;-0.7983;0.4524;185.0;-12.13;-32.49;-38.03;160.07;-16.53;-7.3;5.0;984.73;44.971;35.958233;-83.92452;787.42;NaN;;0.0;32.11779;;0 / 17;509;2022-10-24 21:15:09:294
-0.0885;0.8282;12.3165;1.2615;1.5905;9.5942;0.4219;-0.4331;2.3276;0.0331;1.3488;0.7225;114.0;-21.26;-34.65;-32.34;154.63;-11.58;-13.7;5.0;984.77;42.817;35.958233;-83.92452;787.42;NaN;;0.0;32.11779;;14 / 17;1009;2022-10-24 21:15:09:794
0.2728;1.0558;10.6478;1.3123;3.1574;9.1912;1.0479;-0.6634;-0.5677;0.3657;0.4131;0.8738;114.0;-23.16;-31.74;-31.72;136.23;-18.78;-8.13;5.0;984.78;45.022;35.958233;-83.92452;787.42;NaN;;0.0;32.11779;;14 / 17;1509;2022-10-24 21:15:10:294
-0.7325;3.5288;8.243;-0.6453;3.3035;9.2109;-0.5364;-0.0866;2.6867;-0.1223;0.6915;-0.1706;101.0;-36.43;-30.34;-36.56;113.4;-19.69;4.01;5.0;984.84;49.228;35.958256;-83.924484;780.91;NaN;;2.95;16.266432;67.1;14 / 17;2010;2022-10-24 21:15:10:795
-3.3374;1.0331;8.3088;-1.2992;2.2239;9.4624;-2.9364;0.3921;2.6246;0.568;1.0548;1.7066;69.0;-40.89;-37.11;-33.81;119.21;-19.87;5.28;5.0;984.82;45.387;35.958256;-83.924484;780.91;NaN;;2.95;16.266432;67.1;14 / 17;2510;2022-10-24 21:15:11:295
-4.6528;2.5642;9.2677;-2.1682;3.8411;8.7587;-1.2792;-1.5878;2.2992;0.3374;-0.0145;-0.066;19.0;-41.77;-11.53;-53.42;84.5;-23.06;13.9;5.0;984.82;43.429;35.958263;-83.924446;778.64;NaN;;1.91;15.205433;44.4;15 / 17;3010;2022-10-24 21:15:11:795
-2.7485;3.9634;8.9061;-3.0801;3.4106;8.6632;0.5616;0.2227;0.9712;-0.381;0.3465;0.7193;20.0;-32.79;-0.51;-58.99;71.94;-21.45;17.45;5.0;984.82;46.061;35.958263;-83.924446;778.64;NaN;;1.91;15.205433;44.4;15 / 17;3509;2022-10-24 21:15:12:294
-6.1397;1.5299;7.4013;-5.6768;2.0719;7.7234;0.4475;0.1206;-1.8964;0.4641;-0.1846;-0.3131;13.0;-8.87;19.31;-59.96;57.12;-12.2;36.32;5.0;984.81;46.619;35.958263;-83.92442;784.6;NaN;;0.0;15.027991;;16 / 17;4009;2022-10-24 21:15:12:794
-6.7765;1.5419;5.4897;-7.3282;2.8182;5.8759;0.9677;-0.8439;-2.1773;-1.5516;1.0016;0.9273;6.0;3.19;15.3;-56.81;56.59;-16.34;46.71;5.0;984.86;49.784;35.958263;-83.92442;784.6;NaN;;0.0;15.027991;;16 / 17;4510;2022-10-24 21:15:13:295
-5.0791;1.9499;5.91;-6.5591;3.021;6.635;2.017;-0.2552;-1.7656;0.2956;-0.2888;-0.2552;4.0;12.38;9.77;-44.59;46.44;-17.94;44.67;5.0;984.88;49.133;35.95826;-83.924416;788.68;NaN;;0.0;15.766838;;16 / 17;5009;2022-10-24 21:15:13:794
-3.8689;0.1555;9.3838;-4.9086;1.7096;8.3158;0.0436;-1.7111;-3.8887;-2.1541;-1.1313;1.2488;5.0;7.86;2.78;-32.94;48.92;-10.04;30.55;5.0;984.88;48.017;35.95826;-83.924416;788.68;NaN;;0.0;15.766838;;16 / 17;5510;2022-10-24 21:15:14:295
-3.1448;1.1527;7.3762;-5.7084;1.3677;7.8558;-3.8954;-1.2942;1.7391;-0.3562;-0.4048;0.2544;6.0;12.39;3.92;-25.72;32.67;-9.62;35.93;5.0;984.97;47.257;35.958256;-83.92441;794.59;NaN;;0.0;15.915552;;16 / 17;6009;2022-10-24 21:15:14:794
-4.6528;1.7357;5.6465;-5.7644;1.186;7.8445;-2.538;-1.0365;1.3363;-0.109;-0.2399;-0.413;8.0;22.14;6.9;-26.04;349.85;-9.24;36.51;5.0;984.95;47.801;35.958256;-83.92441;794.59;NaN;;0.0;15.915552;;16 / 17;6510;2022-10-24 21:15:15:295
-6.4508;1.0798;5.9782;-5.4735;2.3831;7.7802;0.18;-0.9155;-0.5384;0.0235;0.2811;0.6767;11.0;22.46;15.17;-41.42;9.96;-12.13;33.5;5.0;984.98;52.326;35.958256;-83.92441;794.59;NaN;;0.0;15.915552;;16 / 17;7009;2022-10-24 21:15:15:794
-5.4144;2.473;6.8818;-5.167;2.4709;7.9603;0.9178;2.0613;-1.7186;-0.45;-0.4283;0.1329;14.0;20.34;13.24;-49.88;21.97;-14.59;32.99;5.0;985.0;48.885;35.958256;-83.92441;794.59;NaN;;0.0;15.915552;;16 / 17;7509;2022-10-24 21:15:16:294
-9.4962;2.0219;13.0705;-5.0807;1.3422;8.2798;-1.5759;-0.5324;0.0724;-1.9708;-0.1584;-0.0976;32.0;16.76;10.43;-53.06;37.4;-7.87;31.53;5.0;985.04;46.642;35.958256;-83.92441;794.59;NaN;;0.0;15.915552;;16 / 17;8009;2022-10-24 21:15:16:794
-8.6222;1.2185;8.219;-4.027;1.6026;8.7969;-2.83;0.1139;0.8088;0.9662;-0.7067;0.818;58.0;19.18;15.28;-52.41;10.39;-9.41;24.6;5.0;985.04;48.896;35.958256;-83.92441;794.59;NaN;;0.0;15.915552;;16 / 17;8509;2022-10-24 21:15:17:294
-5.8128;2.7066;12.4481;-4.0645;3.8438;8.0546;0.6189;-0.32;-0.0708;-1.3464;1.9165;0.5394;81.0;17.66;3.34;-52.03;356.69;-25.8;17.49;5.0;985.06;37.125;35.958256;-83.92441;794.59;NaN;;0.0;15.915552;;16 / 17;9011;2022-10-24 21:15:17:796
-6.3682;3.3171;11.7957;-2.8186;4.4266;8.2844;-2.1989;-0.7618;1.3981;-0.4101;-0.3334;0.0175;65.0;25.24;-2.94;-39.21;337.78;-30.21;22.33;5.0;985.04;39.951;35.958256;-83.92441;794.59;NaN;;0.0;15.915552;;16 / 17;9509;2022-10-24 21:15:18:294
-4.8099;5.3243;7.4085;-3.0767;5.4213;7.5706;-3.2801;-0.8851;0.0267;-0.5071;0.3113;1.0145;26.0;29.01;-6.15;-26.04;310.04;-33.56;22.12;5.0;985.02;42.625;35.958256;-83.92441;794.59;NaN;;0.0;15.915552;;12 / 17;10010;2022-10-24 21:15:18:795
1.3454;1.5072;11.3839;0.3454;1.8366;9.6269;1.5784;0.9786;-0.5592;-1.4337;-0.5391;1.6705;11.0;30.32;-5.81;-19.95;275.14;-20.52;6.21;5.0;985.06;41.378;35.958256;-83.92441;794.59;NaN;;0.0;15.915552;;12 / 17;10510;2022-10-24 21:15:19:295
-1.7285;0.0419;11.3994;-1.3383;2.2842;9.4425;-0.1976;-0.9439;-1.3747;-0.7943;0.0993;1.9775;14.0;21.84;-5.94;-27.88;274.3;-13.47;8.07;5.0;985.04;38.404;35.958256;-83.92441;794.59;NaN;;0.0;15.915552;;12 / 17;11010;2022-10-24 21:15:19:795
-0.5566;2.5161;7.1321;-1.9837;2.7181;9.2112;0.5883;-0.7342;-1.8053;0.45;-0.0597;-0.0512;7.0;21.45;-15.13;-31.09;251.13;-16.09;12.15;5.0;985.03;35.854;35.958256;-83.92441;794.59;NaN;;0.0;15.915552;;12 / 17;11509;2022-10-24 21:15:20:294
-2.9806;2.6659;7.9807;-4.0159;3.0645;8.4054;-0.0152;0.0323;0.8439;-0.1994;0.3628;0.5769;4.0;24.11;-17.64;-26.79;235.41;-16.62;24.39;5.0;985.04;37.078;35.958256;-83.9244;798.77;NaN;;0.0;24.08876;;9 / 17;12010;2022-10-24 21:15:20:795
-4.0125;2.3809;8.0608;-3.9443;2.8099;8.5274;-0.3572;1.4821;-1.5838;-0.0276;-0.1856;0.1241;2.0;24.24;-16.09;-20.85;237.29;-14.86;26.06;5.0;985.07;39.567;35.958256;-83.9244;798.77;NaN;;0.0;24.08876;;9 / 17;12509;2022-10-24 21:15:21:294
-3.8258;2.9722;8.3722;-3.8296;3.9896;8.0986;-0.3892;-0.6128;0.1199;0.6229;-0.9722;-0.2551;1.0;21.84;-21.24;-9.81;226.44;-18.83;29.3;5.0;985.1;40.753;35.958256;-83.9244;798.77;NaN;;0.0;24.08876;;9 / 17;13010;2022-10-24 21:15:21:795
-3.4092;4.1177;8.4224;-3.3452;4.1694;8.2217;0.1643;0.1519;-0.9903;0.0173;-0.728;-0.0426;2.0;32.7;-20.68;3.98;244.51;-25.16;22.14;5.0;985.12;36.401;35.958256;-83.9244;798.77;NaN;;0.0;24.08876;;9 / 17;13509;2022-10-24 21:15:22:294
-3.8163;2.1799;7.5233;-4.3167;3.3878;8.1277;0.0014;-0.902;-0.5619;-0.5488;0.2455;1.3558;2.0;40.39;-16.48;5.81;254.27;-18.51;29.05;5.0;985.12;41.408;35.958256;-83.9244;798.77;NaN;;0.0;24.08876;;9 / 17;14009;2022-10-24 21:15:22:794
-5.5029;1.5;9.8001;-4.6048;2.5129;8.2857;1.9044;0.4419;-0.9567;0.5735;-0.4268;-0.534;2.0;34.84;-16.84;4.09;248.26;-14.85;29.06;5.0;985.17;38.004;35.958256;-83.9244;798.77;NaN;;0.0;24.08876;;9 / 17;14509;2022-10-24 21:15:23:294
-3.7205;3.4558;7.4886;-4.8109;2.5385;8.1598;-1.4206;0.3399;-0.3172;0.2546;-0.9489;0.3995;2.0;23.66;-8.83;-1.84;255.48;-15.0;30.52;5.0;985.18;40.937;35.958256;-83.9244;798.77;NaN;;0.0;24.08876;;9 / 17;15009;2022-10-24 21:15:23:794
1.6412;5.0635;6.1947;0.1443;5.2824;8.2611;-1.3679;-1.8352;-0.7094;1.2291;-1.1372;-0.0468;2.0;4.58;-16.2;-12.47;203.06;-23.91;4.25;5.0;985.18;41.673;35.958256;-83.9244;798.77;NaN;;0.0;24.08876;;9 / 17;15509;2022-10-24 21:15:24:294
-2.5678;3.5719;10.3627;-0.6527;4.6489;8.61;0.3214;-0.1343;-0.4192;-0.2252;0.7878;0.6402;6.0;-5.85;-36.77;-15.52;164.09;-28.3;4.34;5.0;985.23;47.537;35.958256;-83.9244;798.77;NaN;;0.0;24.08876;;9 / 17;16010;2022-10-24 21:15:24:795
-2.1176;4.1082;7.0484;-1.2936;3.0444;9.2319;0.6089;0.9376;-1.9501;-0.6112;1.9804;0.8187;12.0;-9.45;-29.57;-30.07;153.68;-20.09;-0.32;5.0;985.21;40.693;35.958256;-83.9244;798.77;NaN;;0.0;24.08876;;9 / 17;16510;2022-10-24 21:15:25:295
-3.0404;2.4837;8.3112;-1.4458;2.7087;9.3136;-0.1465;-0.5046;-1.5678;-0.7042;1.5551;1.716;14.0;-14.16;-25.11;-41.14;123.72;-16.03;8.82;5.0;985.22;37.128;35.958256;-83.9244;798.77;NaN;;0.0;24.08876;;9 / 17;17010;2022-10-24 21:15:25:795
-4.6899;1.6831;10.7136;-3.0717;1.5342;9.1859;0.7057;0.2699;0.9512;-0.4739;0.505;0.5285;13.0;-12.21;-6.43;-54.17;87.01;-9.0;18.49;5.0;985.21;36.771;35.958256;-83.9244;798.77;NaN;;0.0;24.08876;;9 / 17;17509;2022-10-24 21:15:26:294
-2.9243;2.6922;7.9866;-1.7227;2.5907;9.3;-0.7513;-0.0518;-0.9635;-0.662;0.7272;0.856;5.0;-3.79;-3.07;-53.16;42.18;-17.02;7.83;5.0;985.19;39.447;35.958256;-83.92441;799.68;NaN;;0.0;27.40128;;11 / 17;18009;2022-10-24 21:15:26:794
-1.8924;2.9076;8.7003;-2.3314;2.7137;9.1307;-0.5635;0.4731;-0.2648;-0.1432;0.0424;1.1479;1.0;4.31;-3.75;-52.57;47.76;-14.6;15.39;5.0;985.22;34.586;35.958256;-83.92441;799.68;NaN;;0.0;27.40128;;11 / 17;18510;2022-10-24 21:15:27:295
-2.1081;1.6651;7.0663;-2.5105;2.4486;9.1582;0.0204;-0.7677;-1.5421;-0.1842;0.2347;0.6964;1.0;12.69;-3.75;-47.51;0.41;-14.24;15.22;5.0;985.22;31.016;35.958256;-83.92441;799.68;NaN;;0.0;27.40128;;9 / 17;19010;2022-10-24 21:15:27:795
-3.7505;2.2528;10.1175;-3.1634;2.2597;9.0032;1.3092;0.4133;0.9837;0.2448;-0.0391;-0.708;3.0;16.8;-8.34;-37.46;292.43;-13.32;19.36;5.0;985.22;35.267;35.958256;-83.92441;799.68;NaN;;0.0;27.40128;;9 / 17;19509;2022-10-24 21:15:28:294
-2.1141;3.2919;8.304;-3.2951;3.3603;8.6036;-1.167;0.1814;-0.8402;-0.0092;0.5605;0.7416;3.0;21.0;-13.56;-29.96;263.71;-20.04;20.96;5.0;985.27;36.935;35.958256;-83.92441;799.68;NaN;;0.0;27.40128;;9 / 17;20010;2022-10-24 21:15:28:795
-9.6888;2.0506;11.0166;-4.5933;4.2563;7.5469;2.3043;-0.3793;-1.0896;-0.3539;-0.1193;-0.0684;2.0;22.86;-13.56;-27.47;294.76;-25.72;31.33;5.0;985.25;39.516;35.958256;-83.92441;799.68;NaN;;0.0;27.40128;;9 / 17;20510;2022-10-24 21:15:29:295
-5.1305;1.7285;12.5366;-4.5427;3.2977;8.0411;2.2568;-0.8774;-2.1458;-0.8169;0.0092;-0.3757;2.0;23.34;-6.32;-30.02;334.03;-22.47;30.96;5.0;985.32;39.591;35.958256;-83.92441;799.68;NaN;;0.0;27.40128;;9 / 17;21010;2022-10-24 21:15:29:795
-4.4734;2.2014;9.0987;-5.8873;2.1671;7.5375;1.316;-0.0884;1.4361;-0.4063;0.8836;-0.3763;2.0;17.4;-1.05;-35.44;24.56;-17.88;33.26;5.0;985.31;39.199;35.958256;-83.92441;799.68;NaN;;0.0;27.40128;;9 / 17;21509;2022-10-24 21:15:30:294
-5.3737;2.8167;9.3407;-6.0096;1.6331;7.5755;-1.8306;0.1609;3.9896;0.2789;-0.1487;-0.3296;2.0;20.68;8.27;-30.51;11.28;-9.59;38.43;5.0;985.36;43.339;35.958256;-83.92441;799.68;NaN;;0.0;27.40128;;7 / 17;22009;2022-10-24 21:15:30:794
-7.3247;2.1511;7.4288;-6.2393;2.4621;7.154;-0.7604;-0.4682;1.1339;-0.099;0.1388;0.8901;2.0;19.76;12.24;-30.32;11.29;-12.13;39.81;5.0;985.38;48.608;35.958256;-83.92441;799.68;NaN;;0.0;27.40128;;7 / 17;22509;2022-10-24 21:15:31:294
-6.2653;2.8693;7.4121;-6.1613;2.5163;7.2026;0.0795;1.3343;-2.5428;0.0712;-0.6657;0.1988;6.0;24.28;17.63;-30.02;2.65;-14.87;40.54;5.0;985.4;39.646;35.958256;-83.92441;799.68;NaN;;0.0;27.40128;;7 / 17;23009;2022-10-24 21:15:31:794
-4.9164;2.9459;4.4554;-6.0686;3.6007;6.8101;0.1645;-0.4003;-1.6449;-0.0098;-0.0493;0.6214;9.0;23.57;27.04;-40.11;11.71;-21.54;41.71;5.0;985.4;41.931;35.958256;-83.92441;799.68;NaN;;0.0;27.40128;;7 / 17;23509;2022-10-24 21:15:32:294
-4.5212;2.5869;9.1765;-5.0246;2.316;8.0969;2.6846;0.7453;-1.4097;-0.2214;-0.2053;-0.1554;13.0;15.09;31.84;-55.22;20.6;-15.93;32.79;5.0;985.43;42.607;35.958256;-83.92441;799.68;NaN;;0.0;27.40128;;5 / 17;24010;2022-10-24 21:15:32:795
-8.243;-0.2357;9.2172;-5.7412;2.4397;7.5669;1.2309;-1.9739;-2.652;-0.5372;0.9612;0.9002;14.0;16.35;15.98;-49.05;25.98;-14.01;33.2;5.0;985.41;37.294;35.958256;-83.92441;799.68;NaN;;0.0;27.40128;;5 / 17;24510;2022-10-24 21:15:33:295
-6.4173;1.3286;5.7075;-5.7101;2.0632;7.7012;1.5613;-0.0416;-1.8978;0.4524;0.0711;0.0205;11.0;34.35;6.75;-35.4;339.22;-9.8;37.41;5.0;985.46;35.897;35.958256;-83.92441;799.68;NaN;;0.0;27.40128;;7 / 17;25010;2022-10-24 21:15:33:795
-4.8757;2.0698;6.6604;-5.8993;1.0336;7.7653;0.4382;1.2639;0.7056;-0.6318;0.2388;0.3203;8.0;32.16;3.71;-34.39;331.02;-6.05;37.22;5.0;985.45;40.248;35.958256;-83.92441;799.68;NaN;;0.0;27.40128;;7 / 17;25511;2022-10-24 21:15:34:296
-5.2238;1.9487;6.798;-5.5915;-0.0626;8.0561;-0.347;1.9612;-2.0046;-1.3501;0.01;0.2904;6.0;29.55;1.39;-35.76;279.67;0.37;34.76;5.0;985.52;41.423;35.958256;-83.92441;799.68;NaN;;0.0;27.40128;;7 / 15;26010;2022-10-24 21:15:34:795
-4.9391;0.3473;3.7528;-4.6249;-0.4878;8.6338;-7.2406;-2.9543;1.8398;0.9192;0.5533;0.7314;3.0;25.67;0.19;-35.42;251.45;2.85;28.18;5.0;985.53;45.355;35.958256;-83.92441;799.68;NaN;;0.0;27.40128;;7 / 15;26510;2022-10-24 21:15:35:295
-3.5791;0.6057;6.7071;-6.4962;-0.1968;7.3438;-2.8759;-0.9907;0.493;-1.0372;-0.2776;1.0944;0.0;23.96;-15.86;-36.06;158.23;1.13;42.63;5.0;985.49;41.922;35.958256;-83.92441;799.68;NaN;;0.0;27.40128;;8 / 17;27010;2022-10-24 21:15:35:795
-6.0081;-0.565;4.3059;-5.7927;0.4099;7.9023;-1.1934;-1.6619;-2.5677;0.2954;-0.319;0.1029;0.0;22.8;-15.34;-38.51;159.92;-0.06;37.46;5.0;985.48;44.928;35.958256;-83.92441;799.68;NaN;;0.0;27.40128;;8 / 17;27509;2022-10-24 21:15:36:294
-6.6174;-0.4753;7.3295;-7.7294;-1.4776;5.8517;1.0937;-0.6109;2.3924;-1.1208;0.8424;0.0919;0.0;27.34;-17.66;-33.71;155.87;8.67;52.87;5.0;985.54;33.224;35.958256;-83.92441;799.68;NaN;;0.0;27.40128;;9 / 17;28011;2022-10-24 21:15:36:796
-7.2721;-0.1687;5.9602;-7.3167;-0.9142;6.4654;0.6145;1.0528;-1.8192;0.4475;-0.6994;-0.1275;1.0;33.21;-14.96;-27.9;171.31;6.63;53.71;5.0;985.53;39.595;35.958256;-83.92441;799.68;NaN;;0.0;27.40128;;9 / 17;28510;2022-10-24 21:15:37:295
-6.6221;-1.1886;5.7685;-7.7375;-0.3194;6.0166;0.7008;-0.4146;-3.0516;-0.4988;-0.9469;0.8145;0.0;31.39;-20.29;-20.78;186.59;1.87;52.13;5.0;985.59;47.844;35.958256;-83.92441;799.68;NaN;;0.0;27.40128;;8 / 17;29010;2022-10-24 21:15:37:795
-10.7674;-5.9746;8.1485;-5.9987;-1.7126;7.5666;-1.001;0.6449;-1.929;-1.1979;-1.5394;0.3702;2.0;23.76;-15.36;-30.04;180.45;10.06;38.41;5.0;985.58;39.774;35.958256;-83.92441;799.68;NaN;;0.0;27.40128;;8 / 17;29509;2022-10-24 21:15:38:294
-8.6091;-3.6787;10.1785;-7.5317;-2.1692;5.894;0.2147;-2.2405;1.5455;0.0478;1.0689;-1.0807;4.0;23.23;-9.02;-32.31;153.23;8.24;46.37;5.0;985.58;39.979;35.958256;-83.92441;799.68;NaN;;0.0;27.40128;;9 / 17;30010;2022-10-24 21:15:38:795
-7.4468;-3.2189;4.2843;-8.1062;-0.9965;5.4283;-1.3191;-1.0305;-0.6793;0.523;1.3404;0.2599;5.0;29.44;-6.71;-26.47;173.42;9.54;50.39;5.0;985.63;40.267;35.958256;-83.92441;799.68;NaN;;0.0;27.40128;;9 / 17;30509;2022-10-24 21:15:39:294
-6.1481;0.189;3.0428;-8.7576;-1.9827;3.9426;-2.5092;1.5637;1.2719;0.9949;-0.4009;-0.2353;6.0;37.26;-7.71;-18.99;168.99;10.29;66.92;5.0;985.64;38.545;35.958256;-83.92441;799.68;NaN;;0.0;27.40128;;7 / 17;31009;2022-10-24 21:15:39:794
-8.6557;-0.3939;3.7134;-8.3999;-2.0881;4.6099;-0.5815;-1.2639;-1.3219;-0.4678;-0.3469;-0.318;6.0;36.68;-1.31;-21.32;176.53;12.29;61.24;5.0;985.68;45.503;35.958256;-83.92441;799.68;NaN;;0.0;27.40128;;7 / 17;31509;2022-10-24 21:15:40:294
-6.9775;0.4561;1.3119;-9.502;1.31;2.041;1.3806;-0.7556;-0.9849;1.5081;2.2933;-0.3651;5.0;34.29;0.62;-26.38;71.37;-7.68;77.88;5.0;985.7;41.306;35.958256;-83.92441;799.68;NaN;;0.0;27.40128;;8 / 17;32010;2022-10-24 21:15:40:795
-7.6433;-1.3944;0.3688;-9.1987;1.9079;2.8132;-0.9282;-1.2777;-2.0661;0.2588;1.8206;1.6104;4.0;33.49;5.12;-29.98;56.19;-11.22;72.99;5.0;985.7;47.406;35.958256;-83.92441;799.68;NaN;;0.0;27.40128;;8 / 17;32509;2022-10-24 21:15:41:294
-9.1597;2.6228;2.0004;-9.7798;0.3114;0.6555;2.1365;2.7712;0.9348;-0.8767;-0.1074;-0.7064;3.0;36.77;2.64;-36.56;77.49;-7.49;88.19;5.0;985.72;35.029;35.958256;-83.92441;799.68;NaN;;0.0;27.40128;;7 / 17;33010;2022-10-24 21:15:41:795
-6.5049;0.2034;-0.9003;-8.9571;3.6294;1.6635;1.7275;-3.4467;-2.5513;-0.2757;0.7339;0.7226;3.0;25.99;-7.95;-40.5;86.24;-16.0;74.94;5.0;985.7;42.648;35.958256;-83.92441;799.68;NaN;;0.0;27.40128;;7 / 17;33510;2022-10-24 21:15:42:295
-8.7841;0.8991;1.9813;-9.4781;-0.6322;2.4365;0.6418;0.7967;-0.228;-1.3377;-0.1635;-0.1397;3.0;18.9;-28.44;-54.41;122.23;3.7;75.58;5.0;985.69;49.892;35.958256;-83.92441;799.68;NaN;;0.0;27.40128;;7 / 17;34009;2022-10-24 21:15:42:794
-8.0931;-1.2748;1.4498;-8.9094;2.3106;3.3843;0.0307;-3.7148;-0.7748;0.3173;-0.0161;1.4001;0.0;20.03;-14.87;-55.27;106.31;-2.83;70.04;5.0;985.72;38.826;35.958256;-83.92441;799.68;NaN;;0.0;27.40128;;7 / 17;34509;2022-10-24 21:15:43:294
-8.8379;2.7784;2.2014;-9.0278;1.8922;3.33;-0.7316;0.0595;1.5138;-0.8537;-0.0749;0.3784;0.0;29.01;-21.36;-42.82;112.39;-11.13;69.75;5.0;985.73;45.761;35.958256;-83.92441;799.68;NaN;;0.0;27.40128;;7 / 17;35009;2022-10-24 21:15:43:794
-10.6023;1.1204;5.3354;-8.588;1.9764;4.3023;1.1222;-0.4768;-0.5694;0.1947;-0.2729;-0.2657;0.0;31.84;-9.79;-40.67;90.84;-11.63;63.39;5.0;985.75;47.624;35.958256;-83.92441;799.68;NaN;;0.0;27.40128;;7 / 17;35509;2022-10-24 21:15:44:294
-9.7451;1.992;6.2617;-8.4821;2.219;4.3932;-1.036;-0.2844;1.1336;-0.834;-0.0106;-0.0441;0.0;28.31;-11.33;-35.44;87.89;-16.0;63.01;5.0;985.76;32.745;35.958256;-83.92441;799.68;NaN;;0.0;27.40128;;6 / 16;36009;2022-10-24 21:15:44:794
-7.8634;1.1755;4.8374;-8.7216;1.6606;4.165;-4.5464;-1.9476;0.3583;-0.4812;0.3958;-0.2239;1.0;26.94;-6.19;-34.57;77.58;-13.61;60.37;5.0;985.77;37.682;35.958256;-83.92441;799.68;NaN;;0.0;27.40128;;6 / 16;36509;2022-10-24 21:15:45:294
-9.9045;2.2289;4.4351;-9.0934;0.9664;3.5421;0.5748;0.6722;-1.4264;-0.5774;0.116;-0.586;1.0;27.09;0.49;-28.42;71.48;-9.44;70.04;5.0;985.77;37.248;35.958256;-83.92441;799.68;NaN;;0.0;27.40128;;6 / 17;37009;2022-10-24 21:15:45:794
-7.8419;0.9242;2.6767;-9.3443;0.341;2.956;0.2994;0.7283;1.1344;0.0995;0.4817;-0.1305;2.0;29.81;10.26;-23.92;50.91;-1.99;72.45;5.0;985.84;38.433;35.958256;-83.92441;799.68;NaN;;0.0;27.40128;;6 / 17;37509;2022-10-24 21:15:46:294
-9.6829;-2.1906;3.4403;-8.8678;1.057;4.0516;1.4079;-1.0333;-0.5604;1.7218;0.096;-0.2166;3.0;31.56;17.57;-27.94;28.64;-6.19;65.44;5.0;985.86;39.429;35.958256;-83.92441;799.68;NaN;;0.0;27.40128;;6 / 17;38010;2022-10-24 21:15:46:795
-6.8985;0.1519;5.225;-8.3478;0.6705;5.1025;1.6453;0.3304;1.4514;1.1674;-1.2061;-0.2283;3.0;28.78;17.31;-38.59;42.17;-3.92;58.57;5.0;985.87;43.364;35.958256;-83.92441;799.68;NaN;;0.0;27.40128;;6 / 17;38509;2022-10-24 21:15:47:294
-5.1508;2.0411;6.3526;-6.4723;2.1163;7.057;-0.6699;-1.0345;-0.2989;-1.2938;-0.0777;1.2977;3.0;13.46;8.34;-51.26;56.62;-12.84;45.24;5.0;985.89;45.508;35.958256;-83.92441;799.68;NaN;;0.0;27.40128;;7 / 17;39009;2022-10-24 21:15:47:794
-6.1828;1.5538;8.2179;-6.5678;0.8466;7.2331;0.0116;0.6216;0.2551;0.2043;-1.723;0.4387;5.0;15.58;14.01;-46.18;58.04;-3.27;51.67;5.0;985.93;34.234;35.958256;-83.92441;799.68;NaN;;0.0;27.40128;;7 / 17;39509;2022-10-24 21:15:48:294
-10.448;-0.4681;4.8972;-5.6764;2.6669;7.539;0.3579;-0.7377;-2.7633;0.8085;0.1299;0.4669;9.0;3.21;14.72;-36.88;40.85;-15.78;36.98;5.0;985.92;38.621;35.958256;-83.92441;799.68;NaN;;0.0;27.40128;;7 / 17;40011;2022-10-24 21:15:48:796
-7.8419;0.5088;5.1736;-8.8043;-0.4552;4.2952;1.5286;1.0338;0.4865;-1.5631;-0.1737;-0.1881;8.0;12.88;23.06;-20.68;29.1;-3.52;64.85;5.0;985.94;32.938;35.958256;-83.92441;799.68;NaN;;0.0;27.40128;;7 / 17;40509;2022-10-24 21:15:49:294
-8.79;-0.2946;3.3446;-8.2711;0.7092;5.2208;0.2803;-0.9601;-1.3772;-0.2512;-0.3266;0.7888;5.0;17.1;27.88;6.0;333.79;-4.15;57.74;5.0;985.94;46.201;35.958256;-83.92441;799.68;NaN;;0.0;27.40128;;7 / 17;41009;2022-10-24 21:15:49:794
-7.4312;2.5343;4.9929;-8.2931;0.8438;5.1655;1.1206;0.719;-0.242;-0.6642;-0.0418;0.09;5.0;24.47;21.83;19.09;308.36;-4.94;58.08;5.0;985.95;40.753;35.958256;-83.92441;799.68;NaN;;0.0;27.40128;;7 / 17;41510;2022-10-24 21:15:50:295
-5.0611;0.055;5.68;-7.9198;1.0632;5.6848;-3.7766;-1.6675;-1.4109;-1.3033;-0.7549;0.5395;4.0;21.75;11.91;24.13;291.35;-8.19;56.23;5.0;985.96;39.319;35.958256;-83.92441;799.68;NaN;;0.0;27.40128;;8 / 17;42009;2022-10-24 21:15:50:794
-8.0345;1.7895;5.1413;-8.0206;1.3727;5.4732;-1.4224;-0.9631;0.742;-0.2666;0.4898;-0.1474;3.0;14.03;5.48;21.43;280.81;-8.69;54.44;5.0;985.95;41.763;35.958256;-83.92441;799.68;NaN;;0.0;27.40128;;8 / 17;42510;2022-10-24 21:15:51:295
-12.4325;0.5758;6.0691;-7.4983;2.0619;5.9744;-6.7963;-2.0384;1.7404;0.0218;-0.3394;0.6123;0.0;4.44;-2.48;13.97;258.5;-9.41;54.14;5.0;985.97;35.873;35.958256;-83.92441;799.68;NaN;;0.0;27.40128;;7 / 16;43009;2022-10-24 21:15:51:794
-8.7912;1.512;5.4778;-7.3829;1.7381;6.2163;-3.5557;-0.2267;-1.0263;-2.5698;0.8304;0.7794;0.0;1.39;-10.35;3.13;196.3;-10.21;49.9;5.0;986.0;37.407;35.958256;-83.92441;799.68;NaN;;0.0;27.40128;;7 / 16;43510;2022-10-24 21:15:52:295
-10.9531;1.2987;9.7654;-7.1797;1.1158;6.5861;-0.9521;1.4349;0.7057;-0.1582;-0.1635;-0.1672;0.0;-3.82;-12.21;-10.37;138.76;-6.53;47.47;5.0;985.99;32.172;35.958256;-83.92441;799.68;NaN;;0.0;27.40128;;7 / 17;44009;2022-10-24 21:15:52:794
-5.7362;1.9825;5.857;-7.1575;2.999;5.9956;1.0693;-1.3515;-0.2546;-0.3725;0.5631;0.6813;0.0;-5.83;-11.77;-17.96;118.43;-16.13;47.6;5.0;985.99;34.275;35.958256;-83.92441;799.68;NaN;;0.0;27.40128;;7 / 17;44509;2022-10-24 21:15:53:294
-6.0751;3.0775;5.802;-7.2719;1.9406;6.2868;-0.2673;1.5346;-1.6985;-0.1857;-0.0835;-0.1607;0.0;-0.75;-6.09;-21.53;99.36;-12.68;48.84;5.0;986.03;34.048;35.958256;-83.92441;799.68;NaN;;0.0;27.40128;;6 / 17;45010;2022-10-24 21:15:53:795
-6.603;2.5259;5.182;-7.4691;2.4686;5.8557;0.9357;0.0335;-0.0174;0.1879;0.3015;0.5291;0.0;6.06;-3.13;-16.37;89.94;-11.4;49.71;5.0;986.05;41.134;35.958256;-83.92441;799.68;NaN;;0.0;27.40128;;6 / 17;45510;2022-10-24 21:15:54:295
-6.3203;0.4107;5.6512;-7.4896;1.8085;6.0668;0.8945;1.3849;-1.4205;0.1631;-0.3632;-0.0013;0.0;12.9;-2.68;-9.47;268.03;-10.63;50.99;5.0;986.07;38.576;35.958256;-83.92441;799.68;NaN;;0.0;27.40128;;4 / 17;46009;2022-10-24 21:15:54:794
-6.8088;-0.0778;6.1433;-8.7294;1.6546;4.151;0.2217;0.4838;-9.0E-4;-0.8951;-0.563;1.0513;0.0;16.48;-3.39;-7.31;175.26;-5.92;66.69;5.0;986.09;43.229;35.958256;-83.92441;799.68;NaN;;0.0;27.40128;;4 / 17;46510;2022-10-24 21:15:55:295
-11.1924;-1.2592;4.8661;-8.6173;1.7533;4.3403;-1.3754;-1.7398;-0.8992;-1.052;0.2528;-0.0547;0.0;17.27;-4.11;-13.07;92.54;-10.3;63.27;5.0;986.13;40.157;35.958256;-83.92441;799.68;NaN;;0.0;27.40128;;3 / 17;47010;2022-10-24 21:15:55:795
-8.5229;1.817;4.5212;-8.3913;0.5843;5.0413;-1.0579;1.9207;0.2909;0.1903;-0.5352;-0.0748;1.0;17.66;-2.7;-18.64;102.01;-3.42;59.0;5.0;986.13;37.124;35.958256;-83.92441;799.68;NaN;;0.0;27.40128;;3 / 17;47509;2022-10-24 21:15:56:294
-8.3794;1.5682;2.394;-8.2153;2.1116;4.9214;0.3665;-0.0325;-1.0774;0.0455;0.0305;0.8653;3.0;15.64;-4.29;-19.2;97.8;-6.98;59.27;5.0;986.17;37.986;35.958256;-83.92441;799.68;NaN;;0.0;27.40128;;2 / 17;48009;2022-10-24 21:15:56:794
-6.9763;3.6389;9.6051;-5.6934;1.5698;7.8289;0.4746;2.4247;-4.8188;-2.2775;-1.5505;0.737;5.0;13.18;-5.08;-23.68;76.08;-15.85;47.68;5.0;986.18;43.227;35.958256;-83.92441;799.68;NaN;;0.0;27.40128;;2 / 17;48510;2022-10-24 21:15:57:295
-9.0341;2.2564;5.8164;-5.7323;2.7912;7.4512;-2.6704;-0.3212;-2.0418;-0.9396;1.021;1.4967;14.0;-4.11;2.7;-44.55;67.11;-16.09;35.46;5.0;986.23;36.992;35.958256;-83.92441;799.68;NaN;;0.0;27.40128;;2 / 17;49009;2022-10-24 21:15:57:794
-6.0715;3.5934;8.6737;-5.2612;2.9976;7.7139;2.4142;0.7796;-0.9048;-0.7164;-0.5712;0.1479;17.0;-15.96;4.97;-63.26;69.81;-17.8;34.3;5.0;986.22;37.521;35.958256;-83.92441;799.68;NaN;;0.0;27.40128;;2 / 17;49510;2022-10-24 21:15:58:295
-5.1485;2.3222;7.0699;-4.9781;3.0735;7.8704;0.394;-0.5929;-0.2205;-0.8703;0.6459;1.2591;16.0;-18.49;8.08;-58.03;66.66;-18.26;32.31;5.0;986.2;37.433;35.958256;-83.92441;799.68;NaN;;0.0;27.40128;;2 / 17;50009;2022-10-24 21:15:58:794
-1.992;2.6504;9.2833;-3.1441;2.7028;8.8871;0.8208;-0.7441;-1.6706;0.1775;-0.5747;0.0642;13.0;-5.61;16.24;-45.58;38.1;-16.0;19.48;5.0;986.18;37.399;35.958256;-83.92441;799.68;NaN;;0.0;27.40128;;2 / 17;50509;2022-10-24 21:15:59:294
-2.7987;3.2931;8.5971;-1.6724;4.2271;8.6894;-1.2884;-1.3759;-0.286;0.8505;-0.3603;0.5254;3.0;13.14;10.82;-33.73;348.15;-18.03;13.76;5.0;986.17;37.914;35.958256;-83.92441;799.68;NaN;;0.0;27.40128;;3 / 17;51009;2022-10-24 21:15:59:794
-1.8314;5.0779;8.1485;-1.4321;4.8459;8.4045;-0.6569;0.2797;-0.6648;0.1348;-0.2327;0.2897;1.0;27.15;-0.36;-31.56;311.66;-28.32;12.09;5.0;986.2;35.867;35.958256;-83.92441;799.68;NaN;;0.0;27.40128;;3 / 17;51509;2022-10-24 21:16:00:294
-1.2951;4.2903;8.1182;-1.6655;4.5926;8.5032;0.0213;-0.2147;-0.8049;-0.3276;0.2135;0.4381;1.0;27.43;-7.91;-26.59;290.04;-27.93;11.08;5.0;986.19;32.348;35.958256;-83.92441;799.68;NaN;;0.0;27.40128;;3 / 16;52009;2022-10-24 21:16:00:794
-1.896;4.8984;7.6349;-2.2492;4.9483;8.1625;0.0267;0.4683;1.2141;-1.2677;0.9087;0.1439;1.0;24.54;-13.16;-19.41;277.16;-34.05;12.12;5.0;986.19;33.782;35.958256;-83.92441;799.68;NaN;;0.0;27.40128;;3 / 16;52509;2022-10-24 21:16:01:294
-2.6001;3.4487;7.0328;-3.7894;4.038;8.0935;-2.3484;-1.0112;2.0501;-0.1077;1.0491;-0.1914;2.0;20.89;-15.77;-12.36;250.64;-27.89;21.48;5.0;986.22;36.367;35.958256;-83.92441;799.68;NaN;;0.0;27.40128;;3 / 17;53009;2022-10-24 21:16:01:794
-2.0506;4.1824;7.5664;-3.5429;4.3061;8.0669;-0.6567;0.0881;0.081;0.1305;-0.408;-0.2679;1.0;21.3;-14.42;-13.67;259.08;-27.25;26.38;5.0;986.25;42.219;35.958256;-83.92441;799.68;NaN;;0.0;27.40128;;3 / 17;53510;2022-10-24 21:16:02:295
-1.4521;3.1519;6.2677;-3.78;4.0572;8.0884;0.5268;-0.2589;-2.7758;-0.9859;-0.2741;1.1137;1.0;24.86;-10.09;-24.11;288.88;-24.44;25.05;5.0;986.3;41.204;35.958256;-83.92441;799.68;NaN;;0.0;27.40128;;3 / 17;54010;2022-10-24 21:16:02:795
-6.676;2.8717;9.0592;-4.4502;3.1251;8.1609;-0.723;-1.3824;-0.4073;0.3376;0.8521;-0.0614;2.0;26.08;-4.97;-33.15;314.56;-21.41;23.95;5.0;986.32;40.16;35.958256;-83.92441;799.68;NaN;;0.0;27.40128;;3 / 17;54509;2022-10-24 21:16:03:294
-4.2003;2.8657;6.2103;-4.2814;1.9183;8.6116;-1.1183;0.4025;-0.2203;0.0644;-0.2055;-0.4823;4.0;28.33;3.99;-39.56;331.48;-11.28;26.44;5.0;986.33;37.396;35.958256;-83.92441;799.68;NaN;;0.0;27.40128;;5 / 17;55009;2022-10-24 21:16:03:794
-3.0993;3.0921;6.2079;-3.7343;3.0483;8.5401;-0.6446;-1.2825;1.9473;0.7073;-0.3455;0.5608;5.0;22.82;7.86;-41.72;349.28;-18.11;23.62;5.0;986.35;38.678;35.958256;-83.92441;799.68;NaN;;0.0;27.40128;;5 / 17;55509;2022-10-24 21:16:04:294
-4.27;1.7895;7.8227;-3.579;2.9449;8.6423;0.5444;-0.3184;-0.6566;1.0666;-0.2955;-0.1077;9.0;20.94;6.98;-42.07;350.87;-17.48;22.5;5.0;986.38;37.744;35.958256;-83.92441;799.68;NaN;;0.0;27.40128;;5 / 17;56009;2022-10-24 21:16:04:794
-2.6827;4.5212;6.9751;-4.4502;3.8043;7.8672;-4.5417;-0.9214;4.3691;-0.47;-0.4746;0.0814;12.0;19.24;6.9;-42.54;8.05;-23.58;28.18;5.0;986.4;32.405;35.958256;-83.92441;799.68;NaN;;0.0;27.40128;;5 / 17;56509;2022-10-24 21:16:05:294
-2.5041;1.7584;8.5672;-0.6049;3.0126;9.3128;-4.9093;-3.1345;1.0069;0.8556;-1.4953;2.0E-4;15.0;18.68;8.96;-42.13;319.78;-11.28;5.76;5.0;986.42;38.937;35.958256;-83.92441;799.68;NaN;;0.0;27.40128;;4 / 16;57009;2022-10-24 21:16:05:794
-4.7079;-0.6811;9.2112;-2.4088;1.5555;9.3781;-2.3061;-2.8721;4.0033;0.2574;0.71;1.3567;14.0;18.98;-0.39;-52.78;329.6;-9.13;14.41;5.0;986.37;32.194;35.958256;-83.92441;799.68;NaN;;0.0;27.40128;;4 / 16;57509;2022-10-24 21:16:06:294
-6.95;-0.1962;7.818;-3.6808;1.5269;8.9605;0.6452;-0.1231;0.116;0.0945;0.6769;-0.0029;11.0;29.36;-4.58;-45.96;290.0;-8.96;22.33;5.0;986.42;41.457;35.958256;-83.92441;799.68;NaN;;0.0;27.40128;;3 / 17;58009;2022-10-24 21:16:06:794
-5.5017;-0.5339;8.8295;-5.0224;0.884;8.3764;1.103;-0.9174;0.8879;-1.2991;0.363;0.6353;10.0;25.67;-6.67;-45.71;349.38;-12.48;28.55;5.0;986.43;31.124;35.958256;-83.92441;799.68;NaN;;0.0;27.40128;;3 / 17;58509;2022-10-24 21:16:07:294
-6.044;0.5698;7.4001;-5.1275;0.7638;8.3244;1.8654;1.4378;-1.1994;1.6351;-0.6768;0.0259;6.0;26.31;-0.04;-36.3;16.33;-0.82;36.08;5.0;986.45;39.612;35.958256;-83.92441;799.68;NaN;;0.0;27.40128;;3 / 17;59009;2022-10-24 21:16:07:794
-9.6242;-1.1731;9.7403;-5.5837;1.1205;7.9835;0.3675;-0.0612;-2.2504;-0.8328;0.155;1.257;4.0;21.77;-6.09;-38.14;104.85;-6.63;34.54;5.0;986.49;40.749;35.958256;-83.92441;799.68;NaN;;0.0;27.40128;;3 / 17;59509;2022-10-24 21:16:08:294
-10.0361;-1.3023;11.8627;-5.3365;0.296;8.2222;-4.6873;-1.2239;1.946;-0.4303;-0.8203;0.5049;0.0;22.69;-8.96;-38.12;169.67;-1.73;32.98;5.0;986.49;42.924;35.958256;-83.92441;799.68;NaN;;0.0;27.40128;;3 / 16;60009;2022-10-24 21:16:08:794
-6.5539;-0.2261;13.3244;-5.4302;1.1518;8.0844;-0.8892;-0.5375;-0.6149;-1.1597;0.7019;1.2429;0.0;25.41;-13.46;-42.07;175.92;-8.74;31.22;5.0;986.5;43.987;35.958256;-83.92441;799.68;NaN;;0.0;27.40128;;3 / 16;60510;2022-10-24 21:16:09:295
-6.373;0.9852;8.5253;-5.2176;1.2218;8.213;-0.7191;1.0154;-0.1995;-0.5582;-0.0352;0.0827;0.0;26.31;-12.54;-45.68;156.72;-7.16;32.43;5.0;986.48;34.138;35.958256;-83.92441;799.68;NaN;;0.0;27.40128;;3 / 17;61010;2022-10-24 21:16:09:795
-5.1748;0.9577;6.5504;-5.4;1.6195;8.0242;-0.2992;-0.8563;-0.9738;-0.4835;0.3709;0.3587;0.0;29.31;-11.21;-45.81;139.09;-9.51;33.94;5.0;986.48;36.489;35.958256;-83.92441;799.68;NaN;;0.0;27.40128;;3 / 17;61509;2022-10-24 21:16:10:294
-5.3354;2.7245;5.0073;-6.1942;1.3702;7.4783;0.3725;1.0487;-1.3886;-0.2207;0.1412;-0.3312;0.0;32.64;-16.31;-37.74;187.59;-8.03;39.63;5.0;986.51;36.125;35.958256;-83.92441;799.68;NaN;;0.0;27.40128;;3 / 17;62010;2022-10-24 21:16:10:795
-5.5268;2.3856;6.4208;-5.9795;1.9819;7.5158;-0.3628;-0.1814;-0.407;0.632;0.0283;0.6314;0.0;34.11;-17.18;-32.53;202.96;-7.6;40.41;5.0;986.51;42.468;35.958256;-83.92441;799.68;NaN;;0.0;27.40128;;3 / 17;62509;2022-10-24 21:16:11:294
-5.1006;1.7142;8.4344;-6.5844;1.6091;7.0871;1.1356;1.6089;-1.1971;-0.6173;-0.2016;0.3307;0.0;32.79;-19.97;-31.28;188.84;-10.89;44.61;5.0;986.55;37.558;35.958256;-83.92441;799.68;NaN;;0.0;27.40128;;4 / 17;63010;2022-10-24 21:16:11:795
-5.857;2.6037;6.9631;-6.3036;1.7021;7.3169;-0.0397;1.0288;-0.0515;-0.3393;-0.2552;0.4952;0.0;33.45;-10.86;-34.97;220.88;-10.0;40.75;5.0;986.59;34.566;35.958256;-83.92441;799.68;NaN;;0.0;27.40128;;4 / 17;63510;2022-10-24 21:16:12:295
-6.4304;2.3366;8.9013;-6.2521;1.749;7.35;0.6534;0.593;-2.4137;-0.2637;0.1453;-0.1877;0.0;29.64;-2.21;-41.31;27.72;-10.27;40.39;5.0;986.62;36.566;35.958256;-83.92441;799.68;NaN;;0.0;27.40128;;5 / 17;64010;2022-10-24 21:16:12:795
-6.446;0.9075;7.1692;-6.6988;2.1174;6.842;0.7213;0.1811;-1.1377;-0.4283;-0.2834;0.792;0.0;27.51;1.93;-45.19;41.16;-12.47;44.39;5.0;986.61;36.206;35.958256;-83.92441;799.68;NaN;;0.0;27.40128;;5 / 17;64509;2022-10-24 21:16:13:294
-6.8734;1.0175;7.0795;-6.486;2.4124;6.9486;0.9106;0.3239;-0.2081;0.7378;0.6645;0.0705;1.0;23.23;0.26;-45.66;51.84;-12.28;41.71;5.0;986.65;36.453;35.958256;-83.92441;799.68;NaN;;0.0;27.40128;;5 / 17;65009;2022-10-24 21:16:13:794
-7.0014;4.4877;8.0237;-5.4692;3.8187;7.1886;-0.8151;-1.2109;-0.5028;-0.3903;-0.1374;0.9608;1.0;10.54;-13.35;-42.22;80.5;-22.53;39.68;5.0;986.67;33.808;35.958256;-83.92441;799.68;NaN;;0.0;27.40128;;5 / 17;65510;2022-10-24 21:16:14:295
-3.2249;3.4427;4.0807;-4.3645;3.9445;7.8462;-2.242;-0.376;-1.1121;-0.5582;-0.4337;1.0288;6.0;-14.17;-20.04;-38.27;104.06;-23.72;29.09;5.0;986.68;35.941;35.958256;-83.92441;799.68;NaN;;0.0;27.40128;;4 / 17;66009;2022-10-24 21:16:14:794
-2.0124;3.5204;5.9542;-3.8481;3.9796;8.0947;-3.2249;-1.0209;2.9489;-0.1723;-0.4574;0.9248;12.0;-16.78;-19.09;-42.24;102.52;-21.32;32.9;5.0;986.69;35.257;35.958256;-83.92441;799.68;NaN;;0.0;27.40128;;4 / 17;66509;2022-10-24 21:16:15:294
-2.0339;2.91;8.6749;-1.5718;4.2821;8.6812;-1.949;-1.1599;-0.4499;-0.0558;0.1157;0.5389;13.0;-20.81;-19.01;-48.43;86.28;-25.89;10.26;5.0;986.69;35.811;35.958256;-83.92441;799.68;NaN;;0.0;27.40128;;3 / 17;67009;2022-10-24 21:16:15:794
-3.8689;2.8872;7.4659;-1.8778;3.9002;8.7996;-1.936;-0.2516;0.8644;-0.675;0.5592;1.4136;11.0;-13.52;-20.51;-43.84;98.25;-23.43;12.05;5.0;986.7;32.041;35.958256;-83.92441;799.68;NaN;;0.0;27.40128;;3 / 17;67509;2022-10-24 21:16:16:294
-8.3722;-3.4798;13.4788;-4.4516;-0.1387;8.737;-2.159;-1.8461;2.4585;-0.8454;0.5498;0.6649;8.0;5.85;-2.68;-41.7;104.57;0.81;27.0;5.0;986.69;29.508;35.958256;-83.92441;799.68;NaN;;0.0;27.40128;;3 / 17;68009;2022-10-24 21:16:16:794
-5.8881;-0.693;8.9061;-5.3198;0.3393;8.2313;-0.338;-1.1127;0.5376;-0.6084;-0.1177;0.8751;0.0;19.74;2.57;-34.12;1.29;-3.96;30.65;5.0;986.69;30.946;35.958256;-83.92441;799.68;NaN;;0.0;27.40128;;3 / 17;68509;2022-10-24 21:16:17:294
-4.0017;0.5435;8.1027;-4.5868;0.6182;8.6458;-0.2652;0.2861;-0.7044;-0.0663;-0.2543;-0.0541;1.0;22.82;1.07;-32.19;305.88;-3.83;28.43;5.0;986.68;27.83;35.958256;-83.92441;799.68;NaN;;0.0;27.40128;;2 / 17;69009;2022-10-24 21:16:17:794
-4.2051;0.3281;8.7661;-4.5801;0.9628;8.6178;1.3223;-0.0583;-2.0104;-0.1997;0.1889;0.3799;1.0;19.26;-0.67;-32.31;326.46;-5.63;27.99;5.0;986.7;31.56;35.958256;-83.92441;799.68;NaN;;0.0;27.40128;;2 / 17;69509;2022-10-24 21:16:18:294
-5.7494;1.2425;7.5906;-5.0817;0.836;8.3455;0.2763;-0.0998;1.793;1.0111;-0.1087;-0.7971;1.0;14.53;-5.06;-28.37;142.46;-4.89;31.34;5.0;986.71;33.123;35.958256;-83.92441;799.68;NaN;;0.0;27.40128;;2 / 17;70010;2022-10-24 21:16:18:795
-4.3119;1.3226;6.1445;-5.2832;0.8515;8.2179;-0.3458;0.3927;-0.3828;0.1982;0.058;0.4549;1.0;8.1;-6.96;-26.01;120.77;-5.4;33.28;5.0;986.73;36.845;35.958256;-83.92441;799.68;NaN;;0.0;27.40128;;2 / 17;70510;2022-10-24 21:16:19:295
-5.2155;1.3537;7.7713;-5.4415;1.2847;8.0566;-1.7336;-0.2297;2.1684;0.4315;-0.3288;-0.0979;1.0;2.23;-1.56;-25.67;88.45;-6.08;35.78;5.0;986.74;53.718;35.958256;-83.92441;799.68;NaN;;0.0;27.40128;;2 / 17;71009;2022-10-24 21:16:19:794
-6.548;1.9606;5.1425;-7.0135;3.0081;6.1589;1.2323;-2.0806;3.7555;1.8304;2.3735;1.6171;1.0;0.73;5.44;-26.17;61.64;-12.62;43.02;5.0;986.78;47.517;35.958256;-83.92441;799.68;NaN;;0.0;27.40128;;2 / 17;71509;2022-10-24 21:16:20:294
-8.5684;1.27;5.4838;-6.8889;2.603;6.4759;-2.9884;-1.4222;-0.7188;0.61;-0.285;0.3183;2.0;6.51;10.39;-27.24;43.09;-15.39;46.77;5.0;986.78;49.594;35.958256;-83.92441;799.68;NaN;;0.0;27.40128;;2 / 17;72009;2022-10-24 21:16:20:794
-4.3119;2.3521;4.7163;-7.3131;1.605;6.3335;-1.2777;-0.7227;2.6519;-0.2018;-0.6117;-0.4632;3.0;9.56;15.13;-27.88;39.48;-9.27;51.2;5.0;986.84;45.121;35.958256;-83.92441;799.68;NaN;;0.0;27.40128;;2 / 17;72509;2022-10-24 21:16:21:294
-5.3557;2.1835;4.526;-6.7469;2.1422;6.7868;0.3396;0.0569;-2.468;-0.3319;-0.0991;0.8579;4.0;7.61;23.04;-30.02;28.65;-12.62;44.83;5.0;986.86;55.674;35.958256;-83.92441;799.68;NaN;;0.0;27.40128;;3 / 17;73009;2022-10-24 21:16:21:794
-9.8375;0.8931;7.4611;-5.9136;2.613;7.3737;-0.1685;-0.2048;0.4352;-0.7174;0.121;0.395;6.0;0.66;28.22;-34.46;30.91;-15.45;38.73;5.0;986.89;58.316;35.958256;-83.92441;799.68;NaN;;0.0;27.40128;;3 / 17;73509;2022-10-24 21:16:22:294
-5.892;4.5643;7.3199;-5.5779;2.3638;7.7116;-0.3487;0.0581;-0.1703;-1.351;0.187;-0.2811;10.0;3.38;31.73;-36.92;26.45;-13.95;35.88;5.0;986.93;48.216;35.958256;-83.92441;799.68;NaN;;0.0;27.40128;;3 / 17;74009;2022-10-24 21:16:22:794
-4.6193;2.5594;5.2478;-4.923;2.127;8.2104;-1.7869;0.0352;-1.8323;-0.3758;-0.2296;1.351;17.0;8.96;32.76;-31.41;12.01;-11.98;30.99;5.0;986.95;51.646;35.958256;-83.92441;799.68;NaN;;0.0;27.40128;;3 / 17;74509;2022-10-24 21:16:23:294
-2.6647;2.557;6.1062;-5.107;2.6323;7.9473;-0.0942;-0.8682;-0.6833;-0.4779;0.1477;1.0345;16.0;21.08;17.25;-24.02;348.66;-14.89;32.32;5.0;986.9;35.707;35.958256;-83.92441;799.68;NaN;;0.0;27.40128;;4 / 17;75009;2022-10-24 21:16:23:794
-4.416;2.3605;5.4969;-4.653;2.9583;8.1098;-0.0695;-1.3006;-2.2619;0.033;0.2643;0.7826;10.0;21.88;0.99;-22.89;323.38;-17.56;29.85;5.0;986.95;38.06;35.958256;-83.92441;799.68;NaN;;0.0;27.40128;;4 / 17;75509;2022-10-24 21:16:24:294
-4.0723;1.6986;7.2027;-5.7324;1.8828;7.7307;-1.7471;-1.4522;-0.9029;-1.2005;0.795;1.1133;14.0;27.92;-15.26;-17.96;233.39;-11.07;36.56;5.0;986.95;34.409;35.958256;-83.92441;799.68;NaN;;0.0;27.40128;;4 / 17;76010;2022-10-24 21:16:24:795
-6.4953;0.4597;5.6142;-5.2412;1.6479;8.1231;-0.8015;-1.844;-1.4294;0.0547;-0.0719;0.4702;10.0;35.57;-7.05;-13.67;262.14;-7.08;34.32;5.0;986.95;36.118;35.958256;-83.92441;799.68;NaN;;0.0;27.40128;;4 / 17;76510;2022-10-24 21:16:25:295
-4.9259;2.5271;6.9942;-6.2158;1.326;7.4683;0.43;-0.8538;1.1633;-0.7622;0.3687;0.6661;0.0;38.79;-6.11;-12.81;268.19;-8.76;37.96;5.0;986.93;28.452;35.958256;-83.92441;799.68;NaN;;0.0;27.40128;;4 / 17;77010;2022-10-24 21:16:25:795
-5.1126;1.3394;6.4232;-5.959;1.0323;7.7198;-1.3207;-0.3632;-0.0292;-0.1073;-0.3216;0.0247;0.0;37.22;-16.03;-9.94;241.63;-6.57;38.13;5.0;986.93;36.845;35.958256;-83.92441;799.68;NaN;;0.0;27.40128;;4 / 17;77509;2022-10-24 21:16:26:294
-6.5994;0.9278;7.0074;-6.0327;1.5607;7.5724;0.3726;0.0304;-0.6389;-0.3657;0.2637;0.304;0.0;42.36;-18.83;-4.71;244.83;-9.16;38.54;5.0;986.94;28.647;35.958256;-83.92441;799.68;NaN;;0.0;27.40128;;4 / 17;78010;2022-10-24 21:16:26:795
-5.9518;0.5495;5.4658;-5.9714;1.4083;7.6505;-1.6455;-0.4247;0.1367;0.5381;-0.5876;-0.1572;0.0;46.82;-19.67;0.75;246.98;-7.47;36.55;5.0;986.98;37.687;35.958256;-83.92441;799.68;NaN;;0.0;27.40128;;4 / 17;78510;2022-10-24 21:16:27:295
-6.9176;1.5814;5.8534;-6.6247;0.8051;7.1858;0.4521;-1.5039;1.8407;0.566;0.7265;-0.4211;0.0;45.34;-12.86;3.6;253.37;-4.71;42.67;5.0;987.01;36.501;35.958256;-83.92441;799.68;NaN;;0.0;27.40128;;3 / 17;79010;2022-10-24 21:16:27:795
-2.9698;0.9123;6.0392;-2.9119;0.3269;9.3586;-8.501;-1.3239;-0.8009;0.98;-0.008;0.2085;0.0;33.56;-9.84;-1.82;253.25;-1.91;17.28;5.0;987.01;44.768;35.958256;-83.92441;799.68;NaN;;0.0;27.40128;;3 / 17;79509;2022-10-24 21:16:28:294
-2.9614;-0.4035;7.5425;-3.6078;0.208;9.1165;1.6016;1.1341;-2.0186;0.0599;0.3019;-0.3922;0.0;21.41;-7.18;-13.2;245.95;-1.22;21.59;5.0;987.05;53.99;35.95846;-83.924255;783.85;NaN;;3.82;647.804;59.0;3 / 17;80009;2022-10-24 21:16:28:794
-3.2142;1.8458;10.2993;-3.2687;2.6864;8.847;-0.9773;-0.2984;-1.1108;0.105;-0.6468;0.1413;0.0;20.03;-3.06;-9.08;260.24;-2.58;30.2;5.0;987.08;51.236;35.95846;-83.924255;783.85;NaN;;3.82;647.804;59.0;3 / 17;80509;2022-10-24 21:16:29:294
-4.2724;2.825;7.6433;-4.5093;3.2341;8.0856;-0.7507;-1.3439;-0.219;-0.029;1.6704;-0.0493;0.0;29.29;3.13;-7.2;296.99;-25.42;28.46;5.0;987.11;53.886;35.95846;-83.924255;783.85;NaN;;3.82;647.804;59.0;3 / 17;81009;2022-10-24 21:16:29:794
-7.0795;4.3837;4.1297;-6.691;3.448;6.2859;-1.1502;1.1206;-1.558;0.5312;-0.1014;0.0719;0.0;38.19;15.64;11.01;302.96;-20.59;46.79;5.0;987.09;59.231;35.95846;-83.924255;783.85;NaN;;3.82;647.804;59.0;3 / 17;81509;2022-10-24 21:16:30:294
-6.6221;5.0946;5.2884;-6.7313;4.9129;5.1695;0.4876;-0.5246;-1.1109;-0.5763;-0.243;0.1959;0.0;34.82;23.55;25.61;301.74;-28.83;50.72;5.0;987.16;49.561;35.95846;-83.924255;783.85;NaN;;3.82;647.804;59.0;0 / 16;82009;2022-10-24 21:16:30:794
-5.1796;6.8877;3.1735;-5.5434;6.8367;4.3243;-0.8197;0.1184;-0.9419;-0.03;-0.2559;1.6059;0.0;15.49;3.47;17.21;277.82;-44.2;52.04;5.0;987.15;37.026;35.95846;-83.924255;783.85;NaN;;3.82;647.804;59.0;0 / 16;82509;2022-10-24 21:16:31:294
-5.0707;3.5671;10.637;-1.8462;5.2204;8.0938;-0.9864;-0.3794;-2.7916;-1.0826;0.9606;1.9375;4.0;6.88;-0.83;-8.57;314.87;-32.87;13.0;5.0;987.17;43.374;35.95846;-83.924255;783.85;NaN;;3.82;647.804;59.0;0 / 17;83009;2022-10-24 21:16:31:794
-1.9463;3.766;12.9257;-0.2001;4.214;8.8528;0.1695;-0.0918;-0.2821;0.109;-0.1926;0.2637;8.0;15.13;0.53;-22.56;307.05;-25.45;1.29;5.0;987.16;36.145;35.95846;-83.924255;783.85;NaN;;3.82;647.804;59.0;0 / 17;83510;2022-10-24 21:16:32:295
-1.1336;4.4315;6.9177;-0.8361;5.307;8.2041;0.5432;0.2655;-2.0267;-1.323;1.4356;0.8687;5.0;12.17;-9.04;-23.06;295.64;-31.51;4.75;5.0;987.19;29.913;35.95846;-83.924255;783.85;NaN;;3.82;647.804;59.0;0 / 17;84009;2022-10-24 21:16:32:794
-2.9148;5.6201;7.8586;-1.8592;4.8512;8.3174;0.4072;0.0841;-0.9915;-0.106;0.0115;0.1949;5.0;-19.03;-21.64;-41.81;91.85;-29.65;12.6;5.0;987.14;42.435;35.95846;-83.924255;783.85;NaN;;3.82;647.804;59.0;0 / 17;84509;2022-10-24 21:16:33:294
-3.2512;3.3852;6.4582;-3.1196;4.138;8.3256;0.8515;0.3691;-1.217;-1.2075;1.4718;0.5133;9.0;-43.99;-42.66;-47.94;114.57;-24.96;20.54;5.0;987.17;28.366;35.95846;-83.924255;783.85;NaN;;3.82;647.804;59.0;0 / 17;85009;2022-10-24 21:16:33:794
-4.1285;1.5084;6.8243;-4.9892;1.289;8.3437;-0.1437;0.76;-2.7745;-0.7308;0.3648;0.3192;4.0;-18.45;-21.84;-58.41;110.03;-7.55;30.88;5.0;987.17;35.795;35.95846;-83.924255;783.85;NaN;;3.82;647.804;59.0;0 / 17;85509;2022-10-24 21:16:34:294
-4.5009;0.644;5.8702;-4.7155;0.9326;8.5478;-0.373;-1.1319;-1.0738;0.4603;-0.1206;0.2765;2.0;-8.19;-6.3;-59.12;92.3;-5.46;28.88;5.0;987.15;40.882;35.95846;-83.924255;783.85;NaN;;3.82;647.804;59.0;0 / 17;86010;2022-10-24 21:16:34:795
-4.6636;1.8769;6.4654;-5.2242;1.841;8.0925;0.3546;-0.0405;-1.4419;-0.0945;0.2724;0.302;1.0;6.15;-7.01;-59.68;83.37;-10.82;32.84;5.0;987.17;38.18;35.95846;-83.924255;783.85;NaN;;3.82;647.804;59.0;0 / 17;86509;2022-10-24 21:16:35:294
-5.68;1.6065;5.8678;-4.8675;2.4529;8.1524;-0.2222;-0.7473;-0.0666;0.9764;-0.5701;0.0559;1.0;10.78;-6.52;-61.31;73.8;-12.75;29.86;5.0;987.18;35.367;35.95846;-83.924255;783.85;NaN;;3.82;647.804;59.0;0 / 17;87010;2022-10-24 21:16:35:795
-2.1129;1.0307;8.7864;-4.805;2.506;8.1733;0.9985;-0.8299;-0.6117;-0.9851;0.2526;-0.1378;1.0;19.89;-2.96;-57.64;44.27;-14.81;30.45;5.0;987.19;46.625;35.95846;-83.924255;783.85;NaN;;3.82;647.804;59.0;0 / 17;87509;2022-10-24 21:16:36:294
-4.5679;0.7421;9.2016;-5.6607;1.7024;7.8249;-1.6485;-0.7268;-1.9497;-0.916;0.5812;-0.1432;2.0;26.18;1.74;-53.38;30.04;-13.54;34.92;5.0;987.23;45.958;35.95846;-83.924255;783.85;NaN;;3.82;647.804;59.0;0 / 17;88009;2022-10-24 21:16:36:794
-5.0611;0.4442;8.9755;-5.2085;0.7835;8.2721;0.7021;1.9572;-2.5218;-0.871;-0.158;0.2601;2.0;27.94;11.08;-42.45;354.99;-4.58;32.2;5.0;987.27;40.756;35.95846;-83.924255;783.85;NaN;;3.82;647.804;59.0;0 / 17;88509;2022-10-24 21:16:37:294
-5.3183;4.7079;4.1189;-3.1528;5.2736;7.6433;1.8;-0.864;1.3247;0.3047;-0.096;1.7091;4.0;21.51;8.94;-38.64;342.87;-19.71;20.16;5.0;987.26;47.281;35.95846;-83.924255;783.85;NaN;;3.82;647.804;59.0;0 / 17;89009;2022-10-24 21:16:37:794
-1.4928;4.4865;8.1903;-0.8316;4.4097;8.7197;-0.8364;0.4212;-0.4533;-0.1827;-0.3147;0.3881;3.0;16.2;0.28;-37.26;324.25;-26.72;5.45;5.0;987.29;50.253;35.95846;-83.924255;783.85;NaN;;3.82;647.804;59.0;0 / 17;89509;2022-10-24 21:16:38:294
-2.7006;3.3781;10.9074;-0.8521;3.5255;9.1112;-0.6271;0.0707;3.0455;-0.8508;1.2685;0.243;5.0;13.93;7.22;-39.26;330.6;-25.44;1.35;5.0;987.35;36.408;35.95846;-83.924255;783.85;NaN;;3.82;647.804;59.0;0 / 17;90010;2022-10-24 21:16:38:795
-3.8378;1.6615;9.7008;-1.2028;2.8073;9.319;-2.4938;-1.4591;3.3962;0.0602;-0.3402;0.5995;17.0;23.74;20.89;-36.92;328.82;-16.63;7.35;5.0;987.35;49.124;35.95846;-83.924255;783.85;NaN;;3.82;647.804;59.0;0 / 17;90510;2022-10-24 21:16:39:295
-4.1369;1.3657;7.0014;-2.7107;1.31;9.3331;-0.7819;-1.4062;2.8022;-0.0766;0.3684;1.1613;17.0;32.7;15.98;-32.87;324.36;-7.68;16.2;5.0;987.35;31.428;35.95846;-83.924255;783.85;NaN;;3.82;647.804;59.0;0 / 16;91009;2022-10-24 21:16:39:794
-3.3972;1.3585;6.5444;-1.8295;2.5882;9.2803;-1.3056;1.1538;0.5863;0.4381;0.372;-0.0434;9.0;46.67;8.21;-28.13;293.11;-15.3;11.15;5.0;987.34;36.536;35.95846;-83.924255;783.85;NaN;;3.82;647.804;59.0;0 / 16;91509;2022-10-24 21:16:40:294
-4.6038;1.2257;12.9377;-3.0484;2.6886;8.9246;-1.4019;-0.1342;0.0583;-1.9406;1.0766;0.9978;13.0;52.46;-0.54;-30.15;286.13;-15.91;18.86;5.0;987.35;41.596;35.95846;-83.924255;783.85;NaN;;3.82;647.804;59.0;0 / 17;92009;2022-10-24 21:16:40:794
-6.0332;2.4096;11.4556;-3.499;2.0139;8.9371;-2.0032;0.378;1.973;-0.0561;0.1778;0.414;21.0;49.09;-20.49;-23.29;252.83;-11.85;21.38;5.0;987.33;49.033;35.95846;-83.924255;783.85;NaN;;3.82;647.804;59.0;0 / 17;92509;2022-10-24 21:16:41:294
-5.6764;0.4549;13.2694;-3.3331;2.5446;8.8649;-0.3942;-0.7609;-0.6911;-0.2524;0.5694;1.2071;7.0;39.15;-31.26;-24.96;238.65;-19.35;20.29;5.0;987.34;40.076;35.95846;-83.924255;783.85;NaN;;3.82;647.804;59.0;0 / 16;93009;2022-10-24 21:16:41:794
-3.3817;2.8621;9.3323;-3.1309;2.1925;9.0311;0.7654;0.9056;-0.3582;-0.0886;-0.4629;-0.2209;1.0;17.85;-48.79;-28.05;190.94;-12.92;19.12;5.0;987.35;33.557;35.95846;-83.924255;783.85;NaN;;3.82;647.804;59.0;0 / 16;93510;2022-10-24 21:16:42:295
-2.8741;1.5718;8.1724;-3.2095;2.0458;9.0379;-0.3535;-0.8301;-1.2641;-0.0643;0.0936;0.0719;0.0;14.51;-57.13;-24.22;187.73;-12.2;18.16;5.0;987.33;41.68;35.95846;-83.924255;783.85;NaN;;3.82;647.804;59.0;0 / 17;94010;2022-10-24 21:16:42:795
-3.5157;1.1324;10.2574;-3.4123;2.4599;8.8586;0.415;8.0E-4;-1.6276;-0.6386;0.4212;0.0853;0.0;10.18;-62.94;-17.21;183.29;-14.53;21.07;5.0;987.37;43.578;35.95846;-83.924255;783.85;NaN;;3.82;647.804;59.0;0 / 17;94509;2022-10-24 21:16:43:294
-2.7855;1.8314;9.4352;-3.4601;1.2684;9.0879;-2.8961;-1.1231;1.9998;-0.2041;0.5183;-0.1485;0.0;14.98;-59.04;-12.67;189.57;-12.37;21.87;5.0;987.38;51.138;35.95846;-83.924255;783.85;NaN;;3.82;647.804;59.0;0 / 17;95009;2022-10-24 21:16:43:794
-2.9734;1.8374;8.633;-4.1648;1.8892;8.675;-0.3326;-0.5405;1.4883;0.8567;-0.0842;-0.9291;0.0;12.6;-46.86;-21.17;183.64;-11.11;25.65;5.0;987.43;46.934;35.95846;-83.924255;783.85;NaN;;3.82;647.804;59.0;0 / 17;95510;2022-10-24 21:16:44:295
-3.8797;2.1918;7.2182;-5.2051;1.5922;8.1573;1.5264;0.3743;-1.5848;-0.1181;1.5951;0.6873;0.0;10.88;-40.03;-25.61;174.36;-10.28;29.84;5.0;987.47;48.378;35.95846;-83.924255;783.85;NaN;;3.82;647.804;59.0;0 / 17;96009;2022-10-24 21:16:44:794
-7.564;-0.2142;5.4514;-7.3042;1.7553;6.3038;1.5008;-0.4224;-1.6456;0.7064;0.0795;-0.3795;0.0;19.01;-30.41;-32.76;151.43;-10.31;49.2;5.0;987.45;53.325;35.95846;-83.924255;783.85;NaN;;3.82;647.804;59.0;0 / 17;96509;2022-10-24 21:16:45:294
-10.5939;0.2154;7.4312;-8.8651;-1.8566;3.7595;-2.901;-0.1212;5.6669;0.045;0.4296;-1.0621;1.0;27.75;-20.31;-25.65;153.81;10.91;67.02;5.0;987.51;42.961;35.95846;-83.924255;783.85;NaN;;3.82;647.804;59.0;0 / 17;97010;2022-10-24 21:16:45:795
-6.3096;-1.9056;3.7158;-8.7199;-0.9012;4.3957;-3.8271;-3.6081;1.2422;0.8921;0.2498;0.255;3.0;31.97;-0.06;-18.81;143.1;5.27;63.25;5.0;987.5;42.977;35.95846;-83.924255;783.85;NaN;;3.82;647.804;59.0;0 / 17;97511;2022-10-24 21:16:46:296
-8.948;4.7354;4.1177;-8.3721;-0.9026;5.0262;-2.5411;2.0119;0.954;-0.8865;-1.7905;1.3924;3.0;34.84;2.53;-18.58;248.64;5.28;59.02;5.0;987.56;35.827;35.95846;-83.924255;783.85;NaN;;3.82;647.804;59.0;0 / 15;98009;2022-10-24 21:16:46:794
-8.371;-1.4139;8.4823;-5.6766;2.6062;7.56;-3.9125;-0.0638;-1.5622;-3.6468;-0.2081;1.6306;7.0;29.31;-9.43;-30.97;299.03;-15.41;36.9;5.0;987.59;51.225;35.95846;-83.924255;783.85;NaN;;3.82;647.804;59.0;0 / 15;98509;2022-10-24 21:16:47:294
-2.4455;2.6611;10.1438;-1.6353;2.4245;9.3605;0.4831;0.0015;-2.2902;0.6081;-0.7207;0.2131;9.0;12.79;-11.62;-45.06;249.89;-12.17;9.71;5.0;987.56;39.816;35.95846;-83.924255;783.85;NaN;;3.82;647.804;59.0;0 / 17;99009;2022-10-24 21:16:47:794
-3.7385;2.3354;8.5397;-2.5776;2.8191;9.0321;-0.3346;0.001;-1.1078;-0.471;0.7416;0.9895;5.0;-6.88;-26.76;-47.74;123.44;-16.71;15.93;5.0;987.54;40.197;35.95846;-83.924255;783.85;NaN;;3.82;647.804;59.0;0 / 17;99509;2022-10-24 21:16:48:294
-3.1627;2.5941;9.5273;-3.8867;1.7383;8.8342;1.072;0.0634;-1.3877;-0.6848;0.2889;0.774;6.0;-11.1;-21.71;-49.84;112.27;-12.48;24.74;5.0;987.55;36.458;35.95846;-83.924255;783.85;NaN;;3.82;647.804;59.0;0 / 17;100010;2022-10-24 21:16:48:795
-4.9415;1.4916;7.7629;-4.1966;2.2535;8.5721;-0.4761;-0.4115;-1.6536;-0.8356;0.7571;1.3896;13.0;-29.34;-15.24;-52.74;97.61;-13.28;26.09;5.0;987.55;44.806;35.95846;-83.924255;783.85;NaN;;3.82;647.804;59.0;0 / 17;100509;2022-10-24 21:16:49:294
-4.6756;1.9271;7.4862;-4.7564;1.3932;8.462;-0.0077;-0.1738;-1.634;-0.4879;0.087;0.4726;6.0;-34.74;3.68;-62.01;81.05;-8.62;28.92;5.0;987.53;31.187;35.95846;-83.924255;783.85;NaN;;3.82;647.804;59.0;0 / 17;101010;2022-10-24 21:16:49:795
-6.1588;-0.0024;8.499;-4.2732;1.4567;8.7057;-0.4922;-1.5304;-0.2213;0.3659;0.1552;-0.1821;2.0;-33.68;20.91;-60.88;65.07;-8.54;26.14;5.0;987.55;39.342;35.95846;-83.924255;783.85;NaN;;3.82;647.804;59.0;0 / 17;101509;2022-10-24 21:16:50:294
-1.4976;3.5133;8.3638;-1.9569;3.2262;9.0517;0.7466;-0.6912;-0.5941;0.6076;-0.5277;-0.3518;2.0;-43.5;10.03;-55.16;69.59;-15.35;15.02;5.0;987.56;26.392;35.95846;-83.924255;783.85;NaN;;3.82;647.804;59.0;0 / 17;102009;2022-10-24 21:16:50:794
-3.0823;4.2676;8.5528;-4.3596;4.7263;7.4045;-2.2107;0.2197;1.3042;0.5297;1.0438;-0.1651;1.0;-54.86;-7.95;-45.64;91.1;-28.81;30.49;5.0;987.54;29.813;35.95846;-83.924255;783.85;NaN;;3.82;647.804;59.0;0 / 17;102509;2022-10-24 21:16:51:294
-4.2604;2.9949;6.1744;-5.4054;3.3222;7.4776;0.7645;-0.4494;1.3427;0.4702;0.8799;0.6302;1.0;-43.99;-2.7;-60.06;86.03;-19.8;35.86;5.0;987.58;41.769;35.95846;-83.924255;783.85;NaN;;3.82;647.804;59.0;0 / 17;103009;2022-10-24 21:16:51:794
-2.9794;3.7433;9.2183;-1.4548;4.0279;8.8221;-2.8821;-0.0657;-2.6638;-1.0303;-0.7073;0.2458;1.0;-20.12;20.04;-57.88;35.83;-24.25;9.36;5.0;987.6;45.924;35.95846;-83.924255;783.85;NaN;;3.82;647.804;59.0;0 / 17;103509;2022-10-24 21:16:52:294
-5.4754;3.6823;9.7415;-3.2998;3.4603;8.562;-0.7075;1.0626;0.5097;-0.6857;0.3347;-0.9221;1.0;-18.47;26.33;-48.43;31.5;-29.39;11.21;5.0;987.64;34.8;35.95846;-83.924255;783.85;NaN;;3.82;647.804;59.0;0 / 17;104010;2022-10-24 21:16:52:795
-5.91;0.7385;5.656;-3.2569;2.2518;8.9718;-2.5348;-0.9121;-1.5694;-0.147;-1.1846;0.3222;1.0;-12.11;20.91;-52.59;43.51;-13.27;19.95;5.0;987.75;54.842;35.95846;-83.924255;783.85;NaN;;3.82;647.804;59.0;0 / 17;104510;2022-10-24 21:16:53:295
-2.2552;3.693;8.8774;-2.9493;3.9725;8.4671;-0.7578;-0.6154;-3.3139;0.4678;-0.4957;0.0212;1.0;-21.73;18.45;-47.4;46.25;-22.63;14.89;5.0;987.73;53.466;35.95846;-83.924255;783.85;NaN;;3.82;647.804;59.0;0 / 17;105010;2022-10-24 21:16:53:795
-3.597;3.5228;8.6701;-3.2996;3.9465;8.3491;0.3515;0.2181;0.3073;-0.3402;0.2801;0.0158;1.0;-15.56;7.73;-36.49;56.75;-23.73;21.56;5.0;987.73;44.317;35.95846;-83.924255;783.85;NaN;;3.82;647.804;59.0;0 / 17;105510;2022-10-24 21:16:54:295
-3.6102;4.5153;9.944;-4.7631;3.8751;7.6463;-1.1013;-1.224;0.79;0.4769;0.0342;0.24;2.0;-8.61;4.09;-29.16;62.52;-22.42;29.9;5.0;987.78;53.961;35.95846;-83.924255;783.85;NaN;;3.82;647.804;59.0;0 / 17;106011;2022-10-24 21:16:54:796