sep=;
ACCELEROMETER X (m/s²);ACCELEROMETER Y (m/s²);ACCELEROMETER Z (m/s²);GRAVITY X (m/s²);GRAVITY Y (m/s²);GRAVITY Z (m/s²);LINEAR ACCELERATION X (m/s²);LINEAR ACCELERATION Y (m/s²);LINEAR ACCELERATION Z (m/s²);GYROSCOPE X (rad/s);GYROSCOPE Y (rad/s);GYROSCOPE Z (rad/s);LIGHT (lux);MAGNETIC FIELD X (μT);MAGNETIC FIELD Y (μT);MAGNETIC FIELD Z (μT);ORIENTATION Z (azimuth °);ORIENTATION X (pitch °);ORIENTATION Y (roll °);PROXIMITY (i);ATMOSPHERIC PRESSURE (hPa);SOUND LEVEL (dB);LOCATION Latitude : ;LOCATION Longitude : ;LOCATION Altitude ( m);LOCATION Altitude-google ( m);LOCATION Altitude-atmospheric pressure ( m);LOCATION Speed ( Kmh);LOCATION Accuracy ( m);LOCATION ORIENTATION (°);Satellites in range;Time since start in ms ;YYYY-MO-DD HH-MI-SS_SSS
-3.6583;2.5172;8.3195;-3.7917;1.7219;8.8785;0.0703;0.6052;-0.6905;-0.2465;0.5706;0.0018;350.0;11.91;-33.04;-27.43;180.91;-10.11;23.13;2.0;986.54;50.471;35.958313;-83.924614;737.83;NaN;;0.0;12.761485;;13 / 18;7;2022-10-26 21:25:01:725
-4.1345;-0.6619;8.9791;-3.283;-0.1187;9.24;-1.1669;-0.5911;0.7737;0.1171;-0.6696;-0.6251;333.0;20.76;-30.06;-27.51;198.14;-1.4;21.02;2.0;986.54;55.748;35.958313;-83.924614;737.83;NaN;;0.0;12.761485;;13 / 18;508;2022-10-26 21:25:02:226
-2.6838;-0.1842;10.0576;-3.0108;-0.7166;9.3055;0.9069;2.5955;0.8581;0.8481;-0.4551;1.7655;417.0;25.74;-25.65;-29.68;212.91;1.89;14.63;2.0;986.51;56.587;35.958313;-83.924614;737.83;NaN;;0.0;12.761485;;13 / 18;1008;2022-10-26 21:25:02:726
-3.3422;2.9853;6.3646;-3.5267;2.651;8.7581;0.3181;0.2808;-1.4955;0.3945;0.7489;0.3603;411.0;18.06;-33.96;-24.02;196.06;-9.58;20.87;2.0;986.53;49.909;35.958313;-83.924614;737.83;NaN;;0.0;12.761485;;13 / 18;1507;2022-10-26 21:25:03:225
-4.0519;1.5407;6.2605;-3.3713;0.7798;9.1759;1.5926;1.5019;0.3057;-0.1189;-0.2062;0.6344;323.0;21.77;-36.26;-19.46;202.6;-4.56;20.17;2.0;986.56;54.423;35.958305;-83.92461;737.8;NaN;;0.0;12.226105;;13 / 18;2007;2022-10-26 21:25:03:725
-1.8733;1.0929;7.7665;-3.0959;2.5065;8.9612;4.1094;-1.6346;0.4242;0.0874;1.0765;3.8027;125.0;-5.31;-45.21;-26.94;160.09;-14.81;19.06;2.0;986.61;49.543;35.958305;-83.92461;737.8;NaN;;0.0;12.226105;;13 / 18;2507;2022-10-26 21:25:04:225
-4.4997;1.7632;9.7582;-4.1575;1.9562;8.6636;1.0715;0.7828;-0.4085;-0.1878;0.4855;-1.0663;62.0;-36.32;-33.19;-39.23;119.96;-11.51;25.64;2.0;986.57;48.468;35.958305;-83.92459;739.21;NaN;;3.13;12.226105;103.3;14 / 18;3007;2022-10-26 21:25:04:725
-0.9135;3.5013;8.7685;-3.7515;1.0638;8.9981;-1.1791;-1.5367;-0.8436;2.1257;-3.0917;0.6383;33.0;-33.02;-22.57;-51.66;114.16;0.01;24.0;2.0;986.57;51.033;35.958305;-83.92459;739.21;NaN;;3.13;12.226105;103.3;14 / 18;3508;2022-10-26 21:25:05:226
2.144;5.2382;8.2167;2.208;5.2173;8.0047;-1.9776;-1.1458;-1.501;0.7579;-1.3002;-0.3816;32.0;-51.88;-22.07;-30.0;93.37;-28.27;-5.48;2.0;986.59;54.056;35.958298;-83.92458;745.85;NaN;;1.87;12.454771;114.1;13 / 18;4007;2022-10-26 21:25:05:725
3.0703;9.2016;3.4295;4.2839;8.564;2.1157;-0.8693;-1.282;-2.6164;0.5563;0.0515;-0.0596;20.0;-52.24;-17.33;-2.25;32.6;-60.84;-63.72;2.0;986.6;51.745;35.958298;-83.92458;745.85;NaN;;1.87;12.454771;114.1;13 / 18;4507;2022-10-26 21:25:06:225
10.8416;11.0752;6.5216;5.2985;7.702;2.9624;-1.674;-1.2826;-0.2531;-0.2396;0.0833;-0.3597;5.0;-42.68;-18.53;5.16;55.49;-54.67;-60.52;2.0;986.66;55.313;35.95829;-83.924576;751.36;NaN;;1.62;12.635645;167.1;14 / 18;5007;2022-10-26 21:25:06:725
6.6867;7.5846;2.9949;5.2457;7.7703;2.8766;0.8417;-0.7801;-2.5528;-1.259;-0.5828;0.0457;5.0;-27.71;-16.24;-0.41;54.25;-52.41;-61.26;2.0;986.66;49.122;35.95829;-83.924576;751.36;NaN;;1.62;12.635645;167.1;14 / 18;5508;2022-10-26 21:25:07:226
6.1923;7.3032;6.3742;5.0327;6.6464;5.1641;0.5701;1.0217;-0.8296;-0.0344;0.4944;0.5175;6.0;-20.79;-12.22;4.13;92.67;-42.67;-44.26;2.0;986.68;48.892;35.95829;-83.924576;751.36;NaN;;1.62;12.635645;167.1;14 / 18;6007;2022-10-26 21:25:07:725
2.7281;4.538;6.8088;4.5793;6.7322;5.466;1.6063;-0.7553;-0.8803;-0.9213;0.0714;-0.2881;20.0;-28.57;-12.58;2.68;73.37;-49.72;-47.89;2.0;986.73;50.574;35.95829;-83.924576;751.36;NaN;;1.62;12.635645;167.1;14 / 18;6507;2022-10-26 21:25:08:225
4.3011;7.0747;2.0674;4.838;6.988;4.8921;-1.0651;-0.4686;-0.6606;1.1597;0.8983;0.5162;24.0;-38.19;-14.25;-3.22;69.33;-42.35;-45.33;2.0;986.73;49.847;35.958286;-83.924576;755.33;NaN;;3.24;15.415655;200.9;14 / 18;7007;2022-10-26 21:25:08:725
1.8087;4.4004;3.4726;5.0701;5.2211;6.573;-1.9008;-0.344;-2.162;-0.1693;-0.3767;-0.3433;32.0;-37.16;-21.34;-8.61;79.07;-42.93;-36.94;2.0;986.79;49.752;35.958286;-83.924576;755.33;NaN;;3.24;15.415655;200.9;14 / 18;7508;2022-10-26 21:25:09:226
6.6233;-1.768;9.2195;5.5921;-0.3816;8.047;-1.318;-8.4543;9.3605;2.3155;1.8216;1.9228;148.0;-37.67;-16.52;-13.56;128.21;2.23;-34.8;2.0;986.79;58.418;35.958286;-83.924576;755.33;NaN;;3.24;15.415655;200.9;14 / 18;8007;2022-10-26 21:25:09:725
3.9;3.53;8.1039;5.3295;1.9935;7.987;-0.4553;2.7026;-4.0489;0.8585;0.2174;1.2219;245.0;-30.39;2.42;-28.82;40.84;-11.73;-33.71;2.0;986.78;57.135;35.958286;-83.924576;755.33;NaN;;3.24;15.415655;200.9;14 / 18;8508;2022-10-26 21:25:10:226
4.9056;3.3099;2.5798;5.1911;4.6334;6.9105;-0.5688;-3.1882;3.3018;2.1429;0.2798;0.5461;192.0;-21.28;6.98;-30.22;357.0;-28.2;-36.91;2.0;986.79;48.789;35.958275;-83.924576;754.82;NaN;;1.98;18.796007;208.1;14 / 18;9007;2022-10-26 21:25:10:725
4.9044;6.7693;4.1596;5.0984;4.9351;6.7692;0.534;1.1441;0.5016;0.6818;0.5808;0.8758;73.0;-5.01;2.81;-36.99;318.12;-29.44;-34.77;2.0;986.8;46.694;35.958275;-83.924576;754.82;NaN;;1.98;18.796007;208.1;14 / 18;9508;2022-10-26 21:25:11:226
6.3814;4.7569;3.6918;3.9717;6.9545;5.6596;2.0123;-3.5765;2.677;1.4153;1.3728;0.8531;24.0;3.41;6.08;-25.61;313.63;-36.04;-34.62;2.0;986.82;43.827;35.958263;-83.924576;754.68;NaN;;3.24;21.198729;192.4;13 / 18;10007;2022-10-26 21:25:11:725
5.4754;5.863;9.2124;4.4585;5.9992;6.3484;-1.5227;0.6593;-1.473;-1.5811;0.4281;0.2565;19.0;4.41;-3.47;-30.9;299.1;-37.72;-35.08;2.0;986.81;41.325;35.958263;-83.924576;754.68;NaN;;3.24;21.198729;192.4;13 / 18;10507;2022-10-26 21:25:12:225
6.3323;5.522;8.6785;4.9563;5.8418;6.122;-1.9021;-0.1816;-1.2594;1.1643;0.2703;0.543;10.0;-4.93;-1.09;-34.01;315.39;-35.33;-36.9;2.0;986.78;41.677;35.958263;-83.92457;755.53;NaN;;2.95;22.508648;143.1;13 / 18;11007;2022-10-26 21:25:12:725
4.7294;4.678;3.6341;5.0084;5.8487;6.0728;-0.7654;-1.0235;-0.6021;-0.0993;-1.543;-0.3918;6.0;-5.42;-5.66;-39.0;305.64;-36.61;-39.51;2.0;986.82;44.71;35.958263;-83.92457;755.53;NaN;;2.95;22.508648;143.1;13 / 18;11507;2022-10-26 21:25:13:225
5.7398;3.1304;3.3601;6.2956;4.1871;6.2454;0.0763;-0.2397;-0.3475;-1.343;-0.757;0.5031;6.0;-5.91;5.93;-37.35;309.81;-25.28;-45.23;2.0;986.86;47.621;35.958256;-83.92456;756.51;NaN;;3.38;23.069054;145.7;10 / 18;12007;2022-10-26 21:25:13:725
5.8247;4.471;9.9918;5.495;1.7594;7.9297;0.2804;-1.6133;4.5517;-2.5738;-1.3717;1.4504;6.0;3.3;25.39;-32.29;333.8;-22.63;-25.68;2.0;986.89;47.388;35.958256;-83.92456;756.51;NaN;;3.38;23.069054;145.7;10 / 18;12507;2022-10-26 21:25:14:225
6.4244;1.9427;6.9882;5.4739;0.9174;8.0849;3.8332;-1.4878;2.9017;0.7144;0.3043;-0.67;9.0;2.64;33.32;-21.88;334.43;-8.66;-40.88;2.0;986.91;48.553;35.958256;-83.92456;756.51;NaN;;3.38;23.069054;145.7;8 / 18;13007;2022-10-26 21:25:14:725
3.9084;0.4633;6.3335;5.2764;-0.562;8.2471;-3.1473;1.5688;-1.4817;1.2541;-0.058;0.5564;12.0;0.53;37.28;-6.07;353.68;7.07;-31.68;2.0;986.93;45.945;35.958256;-83.92456;756.51;NaN;;3.38;23.069054;145.7;8 / 18;13507;2022-10-26 21:25:15:225
4.89;0.8465;3.4307;5.2671;1.4874;8.1373;0.6574;-0.9064;-2.8623;0.6248;-2.7849;0.2251;16.0;12.08;18.58;-4.86;325.24;-8.72;-32.91;2.0;986.97;49.153;35.95825;-83.92456;757.9;NaN;;1.94;28.568104;184.4;8 / 18;14007;2022-10-26 21:25:15:725
2.7652;3.3972;2.1894;4.5659;7.0669;5.0381;5.4879;-2.536;8.6881;1.9177;-1.2982;-0.7934;15.0;7.84;-20.46;-4.95;211.64;-46.11;-42.19;2.0;987.03;54.164;35.95825;-83.92456;757.9;NaN;;1.94;28.568104;184.4;8 / 18;14507;2022-10-26 21:25:16:225
3.7289;7.2362;3.8414;6.642;6.9678;1.8721;2.9226;0.2711;6.5751;-0.0754;1.312;0.7111;4.0;2.7;-33.73;-8.98;201.35;-45.28;-74.26;2.0;986.94;48.77;35.95825;-83.92456;757.9;NaN;;1.94;28.568104;184.4;7 / 18;15007;2022-10-26 21:25:16:725
7.5162;3.3266;2.6169;6.3924;6.5565;3.5099;3.3312;-2.2594;4.3236;1.9478;2.0321;0.0139;5.0;-33.69;-45.28;-9.08;166.17;-40.3;-70.5;2.0;986.98;49.724;35.95825;-83.92456;757.9;NaN;;1.94;28.568104;184.4;7 / 18;15507;2022-10-26 21:25:17:225
2.4885;2.3629;9.1561;4.8563;2.168;8.2394;-1.2284;2.0244;0.6841;-0.9015;0.0947;0.33;31.0;-18.94;-44.34;-14.14;165.67;-17.36;-31.02;2.0;986.96;42.586;35.958237;-83.92456;758.55;NaN;;2.56;36.541195;162.0;7 / 18;16007;2022-10-26 21:25:17:725
4.2003;0.827;8.1927;3.9399;2.8112;8.529;-0.0413;-2.3644;-1.3568;1.2748;0.6042;0.8031;30.0;-39.45;-33.58;-27.19;130.9;-16.66;-24.79;2.0;986.98;50.203;35.958237;-83.92456;758.55;NaN;;2.56;36.541195;162.0;7 / 18;16507;2022-10-26 21:25:18:225
2.0136;3.7397;8.5995;3.5028;3.119;8.6124;-1.3156;0.5208;0.306;-0.0027;-0.043;0.3531;24.0;-37.57;-29.03;-33.39;116.84;-20.62;-22.84;2.0;987.02;38.901;35.958237;-83.92456;758.55;NaN;;2.56;36.541195;162.0;8 / 18;17007;2022-10-26 21:25:18:725
1.2748;0.1567;11.2355;3.8495;3.0729;8.4799;-1.3739;-1.6073;-2.1155;2.3689;-2.2775;0.7617;11.0;-34.43;-18.92;-43.24;95.93;-18.26;-24.42;2.0;986.95;56.213;35.958237;-83.92456;758.55;NaN;;2.56;36.541195;162.0;8 / 18;17508;2022-10-26 21:25:19:226
1.3537;0.9386;9.4663;0.2202;1.2071;9.7296;0.7483;1.1518;0.1127;-0.6202;-0.4309;0.0215;4.0;-17.91;-8.61;-48.66;99.58;-7.07;-1.3;2.0;986.98;66.869;35.958244;-83.924545;758.2;NaN;;1.62;38.169598;82.5;7 / 18;18007;2022-10-26 21:25:19:725
-1.3932;1.0116;9.2845;-1.8943;0.7131;9.5955;0.4013;0.5654;0.2162;-0.5226;0.5291;0.5359;4.0;12.54;0.08;-47.06;314.08;-4.17;11.17;2.0;987.01;40.95;35.958244;-83.924545;758.2;NaN;;1.62;38.169598;82.5;7 / 18;18509;2022-10-26 21:25:20:227
-5.2693;0.7062;8.1087;-3.5493;0.7501;9.111;0.8009;0.1162;-0.6796;-0.7599;2.4246;-0.3593;4.0;27.39;-4.58;-35.32;269.87;-6.91;15.58;2.0;987.05;42.34;35.958256;-83.92454;760.99;NaN;;2.92;34.341263;81.9;7 / 18;19007;2022-10-26 21:25:20:725
-6.8566;1.2664;5.8666;-4.5329;-0.9543;8.6436;-0.2514;0.5029;3.9578;-1.965;-0.8389;-0.5321;4.0;34.05;-3.62;-19.54;255.96;0.62;33.15;2.0;987.07;48.009;35.958256;-83.92454;760.99;NaN;;2.92;34.341263;81.9;7 / 18;19507;2022-10-26 21:25:21:225
-4.5009;-0.4573;8.651;-4.2448;-1.1161;8.7696;-2.3402;-0.6829;-0.0315;-0.0911;0.886;-0.2876;5.0;23.55;0.58;-23.27;257.57;6.54;25.83;2.0;987.07;46.619;35.958263;-83.92452;763.21;NaN;;2.52;31.637384;79.7;6 / 18;20007;2022-10-26 21:25:21:725
-4.156;-1.7273;8.9898;-4.3327;-1.5157;8.6661;0.4509;1.6834;-1.4719;0.9533;-0.0656;-0.331;6.0;14.23;10.37;-24.86;346.18;8.89;26.56;2.0;987.11;45.917;35.958263;-83.92452;763.21;NaN;;2.52;31.637384;79.7;6 / 18;20508;2022-10-26 21:25:22:226
-5.7147;-2.4383;12.9844;-4.4876;-1.2597;8.6282;0.3659;-0.2086;-1.1959;-0.1038;0.1999;0.7596;8.0;7.82;14.96;-26.08;11.87;2.98;23.12;2.0;987.11;51.008;35.95828;-83.92451;762.42;NaN;;5.0;30.272848;68.5;7 / 18;21007;2022-10-26 21:25:22:725
-7.3606;-3.8557;10.1581;-4.2471;-2.6203;8.442;-2.7013;-3.4779;2.124;-0.159;-0.3305;0.0585;10.0;5.51;20.42;-24.67;16.84;9.52;24.04;2.0;987.14;51.222;35.95828;-83.92451;762.42;NaN;;5.0;30.272848;68.5;7 / 18;21507;2022-10-26 21:25:23:225
-4.1154;-1.6902;8.4093;-3.71;-1.6205;8.932;-0.4354;1.7802;-4.2798;1.307;0.2185;-0.5886;16.0;-2.98;24.53;-22.8;30.96;13.54;23.08;2.0;987.18;47.296;35.958282;-83.92448;763.13;NaN;;5.18;29.206348;86.5;7 / 18;22007;2022-10-26 21:25:23:725
-2.7054;-2.0614;8.3949;-2.7966;-1.8794;9.2096;0.8142;1.6304;0.968;-0.4279;-0.9399;0.9441;23.0;-13.22;26.91;-28.61;43.61;11.05;16.89;2.0;987.22;44.512;35.958282;-83.92448;763.13;NaN;;5.18;29.206348;86.5;7 / 18;22507;2022-10-26 21:25:24:225
-4.3502;-4.9295;11.8795;-2.7048;-2.8927;8.9714;2.1517;1.6673;-0.3411;-0.0454;0.3051;0.293;34.0;-14.19;34.73;-22.65;33.88;16.64;13.01;2.0;987.23;46.402;35.958282;-83.92446;762.56;NaN;;4.93;29.529812;94.1;6 / 18;23008;2022-10-26 21:25:24:726
-4.6732;-5.4873;9.1071;-2.9993;-2.6442;8.9545;-1.107;0.2265;-3.1051;-0.4354;-0.2414;1.4124;39.0;-3.45;34.44;-20.57;19.0;15.64;18.52;2.0;987.21;44.613;35.958282;-83.92446;762.56;NaN;;4.93;29.529812;94.1;6 / 18;23508;2022-10-26 21:25:25:226
-2.2038;-2.2995;9.4328;-3.4971;-3.1092;8.6182;1.6527;1.128;-0.6651;-0.392;0.0716;0.0934;31.0;18.98;32.33;-17.1;334.1;18.48;22.09;2.0;987.21;36.528;35.958282;-83.924446;763.01;NaN;;5.15;30.711632;89.9;7 / 18;24007;2022-10-26 21:25:25:725
-4.3167;-2.8322;6.5898;-4.3285;-2.848;8.326;-0.0385;-0.0251;-1.9171;0.0951;0.2891;0.2265;20.0;29.21;25.69;-18.53;308.13;19.75;24.39;2.0;987.23;38.985;35.958282;-83.924446;763.01;NaN;;5.15;30.711632;89.9;7 / 18;24508;2022-10-26 21:25:26:226
-4.1058;-0.7552;7.4898;-4.6774;-2.8964;8.1181;-2.4002;-0.6873;2.474;1.1713;-0.5499;-0.1469;19.0;31.61;19.8;-21.54;303.6;14.8;32.13;2.0;987.25;44.387;35.95828;-83.92443;763.51;NaN;;5.11;32.731274;92.4;8 / 18;25007;2022-10-26 21:25:26:725
-5.9052;-1.9391;11.7921;-3.9087;-2.3092;8.6925;2.472;2.0641;-1.9582;-0.4418;-1.7524;1.0168;15.0;27.45;15.54;-30.64;303.81;10.82;23.37;2.0;987.24;44.305;35.95828;-83.92443;763.51;NaN;;5.11;32.731274;92.4;8 / 18;25507;2022-10-26 21:25:27:225
-1.0092;0.4884;7.1189;-3.9958;-2.3343;8.6461;3.0192;1.993;0.4389;-0.2302;-0.3722;0.7702;10.0;26.68;7.2;-33.07;254.15;13.77;24.8;2.0;987.24;48.613;35.95828;-83.92443;763.51;NaN;;5.11;32.731274;92.4;8 / 18;26008;2022-10-26 21:25:27:726
-4.9953;-1.6125;8.0536;-3.8083;-0.7816;9.0031;-0.0515;-0.1438;-1.9726;-0.1307;0.1739;0.9857;3.0;22.69;-7.41;-37.41;213.04;4.57;22.93;2.0;987.27;40.555;35.95828;-83.92443;763.51;NaN;;5.11;32.731274;92.4;8 / 18;26507;2022-10-26 21:25:28:225
-3.4534;-0.073;8.8403;-4.5662;-1.1814;8.5979;0.7033;1.1328;-0.2126;-0.2324;0.0666;0.4423;2.0;18.64;-13.93;-40.16;173.74;7.43;28.19;2.0;987.26;43.19;35.95828;-83.92443;763.51;NaN;;5.11;32.731274;92.4;7 / 18;27008;2022-10-26 21:25:28:726
-4.7677;-1.331;6.8602;-4.4555;-1.0852;8.6684;0.6854;-1.0351;-0.8494;0.1257;0.0814;0.2937;2.0;21.15;-10.48;-40.43;175.98;7.13;29.08;2.0;987.3;41.859;35.95828;-83.92443;763.51;NaN;;5.11;32.731274;92.4;7 / 18;27507;2022-10-26 21:25:29:225
-4.1931;1.8852;5.5388;-3.9892;0.5771;8.94;0.3953;0.4903;-0.7555;0.8988;-0.3614;-0.4251;2.0;24.84;-15.21;-35.25;212.31;0.04;22.77;2.0;987.31;42.479;35.958263;-83.92443;764.23;NaN;;3.85;35.938698;162.7;6 / 18;28007;2022-10-26 21:25:29:725
-4.66;0.6212;7.4707;-4.8118;-0.3211;8.539;2.3883;0.7471;0.6117;0.1763;0.0754;0.3247;3.0;27.96;-20.08;-21.28;213.8;1.88;29.4;2.0;987.33;44.229;35.958263;-83.92443;764.23;NaN;;3.85;35.938698;162.7;6 / 18;28507;2022-10-26 21:25:30:225
-6.5563;-1.7285;7.4755;-5.284;-0.023;8.2613;1.1405;-1.325;1.1466;0.5991;-0.2537;-0.3209;3.0;27.51;-16.33;-16.46;223.82;2.33;29.64;2.0;987.38;46.413;35.958252;-83.92442;764.28;NaN;;5.22;32.71906;131.0;7 / 17;29007;2022-10-26 21:25:30:725
-4.3454;-0.1316;11.6521;-5.4666;0.2352;8.1383;-0.0058;-0.0532;-1.5368;-2.0878;0.2611;0.3718;3.0;28.8;-11.02;-14.27;237.58;-1.37;33.89;2.0;987.4;48.716;35.958252;-83.92442;764.28;NaN;;5.22;32.71906;131.0;7 / 17;29507;2022-10-26 21:25:31:225
-5.814;-0.2644;9.7834;-5.0599;-1.8303;8.1986;0.7528;-0.7183;0.2057;0.4971;0.2937;-0.1351;3.0;28.46;-9.21;-22.16;219.14;10.76;31.68;2.0;987.4;46.355;35.95824;-83.92442;764.03;NaN;;4.14;32.471016;125.8;5 / 17;30007;2022-10-26 21:25:31:725
-13.6116;-4.3884;9.9272;-5.2425;-0.0228;8.2877;-1.5722;-1.569;2.4197;0.3982;-0.9814;-0.5886;5.0;25.03;-9.88;-28.13;201.24;6.31;33.41;2.0;987.46;48.21;35.95824;-83.92442;764.03;NaN;;4.14;32.471016;125.8;5 / 17;30508;2022-10-26 21:25:32:226
-2.9734;1.5742;9.1358;-5.7486;-0.4161;7.9341;0.2509;-0.5569;-2.555;-0.3341;-0.6557;0.1957;6.0;16.22;-10.11;-35.96;139.24;0.5;37.03;2.0;987.43;46.208;35.958233;-83.92443;764.78;NaN;;3.35;30.352123;132.9;6 / 17;31007;2022-10-26 21:25:32:725
-5.4239;0.4382;6.1899;-3.7519;-0.0955;9.0601;-1.5506;1.82;-0.8521;0.5569;-0.6764;0.3634;22.0;3.36;7.59;-46.12;89.97;10.23;19.71;2.0;987.45;47.041;35.958233;-83.92443;764.78;NaN;;3.35;30.352123;132.9;6 / 17;31507;2022-10-26 21:25:33:225
-3.1878;0.4214;7.593;-5.5673;-0.362;8.065;1.0038;0.5564;0.0381;-0.65;-0.2769;1.1921;36.0;19.41;13.37;-49.33;47.69;2.12;34.62;2.0;987.46;45.486;35.958225;-83.92443;762.82;NaN;;3.6;28.369583;125.5;6 / 18;32007;2022-10-26 21:25:33:725
-4.9522;0.6894;3.9467;-5.5829;2.3461;7.7134;0.87;-2.2014;-2.2549;-0.6759;-0.738;0.5518;36.0;17.49;-12.49;-56.53;84.83;-13.84;35.9;2.0;987.47;42.968;35.958225;-83.92443;762.82;NaN;;3.6;28.369583;125.5;6 / 18;32507;2022-10-26 21:25:34:225
-2.4383;2.199;8.249;-4.4754;1.1882;8.6446;1.8204;0.8431;-0.8058;-0.6916;0.0958;0.6464;34.0;2.79;-34.65;-60.88;135.26;-9.0;27.67;2.0;987.47;39.824;35.958225;-83.92443;762.82;NaN;;3.6;28.369583;125.5;7 / 18;33007;2022-10-26 21:25:34:725
-4.9271;1.5514;5.5005;-3.6824;2.7194;8.6727;-1.043;-2.4362;-1.8856;-0.1235;0.3588;1.4782;28.0;-3.62;-24.21;-59.23;118.47;-10.18;22.52;2.0;987.45;40.387;35.958225;-83.92443;762.82;NaN;;3.6;28.369583;125.5;7 / 18;33508;2022-10-26 21:25:35:226
-3.457;2.6982;8.7422;-4.2785;1.6368;8.671;1.0376;0.9762;-1.5233;-0.4362;0.3916;0.7636;7.0;0.15;-17.98;-57.92;108.42;-10.44;25.04;2.0;987.47;39.074;35.958233;-83.92443;764.22;NaN;;3.13;25.590393;140.2;6 / 17;34008;2022-10-26 21:25:35:726
-3.4965;0.839;5.6895;-4.3283;2.048;8.5581;-1.7573;-1.508;1.3078;0.1288;-0.0746;0.3207;2.0;4.65;-12.99;-58.82;93.22;-12.05;26.83;2.0;987.5;36.228;35.958233;-83.92443;764.22;NaN;;3.13;25.590393;140.2;6 / 17;34507;2022-10-26 21:25:36:225
-3.384;2.9052;8.2083;-4.0466;0.7879;8.898;-0.8967;0.3474;2.6411;-1.3914;0.1158;-0.2021;2.0;3.17;-17.21;-56.51;108.21;-10.2;26.39;2.0;987.5;52.439;35.95823;-83.92443;764.96;NaN;;3.89;26.517916;143.9;6 / 18;35007;2022-10-26 21:25:36:725
-5.8187;0.8306;8.9468;-4.4475;0.7399;8.7088;-1.9702;-1.3356;1.1434;0.2111;0.2488;-0.4972;3.0;3.28;-9.98;-51.21;107.43;-4.33;27.05;2.0;987.53;52.697;35.95823;-83.92443;764.96;NaN;;3.89;26.517916;143.9;6 / 18;35508;2022-10-26 21:25:37:226
-8.9551;-1.908;11.9429;-4.3214;0.2138;8.8006;0.1185;1.2133;-1.5196;-0.3218;-0.2683;0.336;3.0;3.81;-6.11;-44.7;107.36;-1.25;26.15;2.0;987.55;49.815;35.95823;-83.92442;771.66;NaN;;3.74;29.186865;136.6;9 / 17;36007;2022-10-26 21:25:37:725
0.8007;-3.0105;10.7447;-2.1971;-0.9371;9.5113;-0.7369;0.0803;-3.3189;0.3558;-0.2665;1.3061;4.0;-1.97;4.86;-40.16;68.24;-1.91;20.05;2.0;987.57;50.423;35.95823;-83.92442;771.66;NaN;;3.74;29.186865;136.6;9 / 17;36507;2022-10-26 21:25:38:225
-3.7636;-2.3186;11.3539;-2.8498;-1.3836;9.2809;-2.7984;-1.8201;-0.412;-0.3393;-0.1421;0.2963;4.0;-8.31;12.79;-37.35;57.35;6.37;9.62;2.0;987.6;50.032;35.95823;-83.924416;778.65;NaN;;3.24;31.301249;129.4;9 / 18;37007;2022-10-26 21:25:38:725
-1.7632;-0.4525;12.909;-3.6725;-2.0907;8.8494;-0.4673;-0.3664;4.4193;-1.6719;0.9949;0.0526;6.0;-9.13;17.46;-39.94;61.47;8.29;19.32;2.0;987.63;46.823;35.95823;-83.924416;778.65;NaN;;3.24;31.301249;129.4;9 / 18;37507;2022-10-26 21:25:39:225
-2.7676;-0.37;9.1011;-4.3306;-0.7483;8.7668;2.007;-0.6057;-2.0835;-0.4639;-0.078;0.9945;10.0;-8.98;20.1;-43.61;57.98;4.38;26.29;2.0;987.68;46.284;35.95823;-83.9244;777.2;NaN;;3.53;33.22431;109.6;9 / 18;38007;2022-10-26 21:25:39:725
-8.1616;-0.6141;7.6708;-4.474;-0.2358;8.7234;0.895;0.7043;-1.0963;-1.3346;-0.2976;0.7161;15.0;-8.38;18.6;-46.01;57.23;1.38;27.15;2.0;987.73;46.169;35.95823;-83.9244;777.2;NaN;;3.53;33.22431;109.6;9 / 18;38507;2022-10-26 21:25:40:225
1.1396;-5.4215;17.3572;-1.1799;-3.4042;9.1209;-1.1301;-4.6629;8.072;-4.0297;-0.7062;2.1839;21.0;-15.54;15.99;-38.19;67.82;11.36;8.54;2.0;987.69;43.447;35.95823;-83.924385;775.8;NaN;;3.82;36.82732;99.9;8 / 18;39008;2022-10-26 21:25:40:726
-4.2413;-3.7098;9.4424;-0.6838;-2.0732;9.5606;0.1463;-0.5915;1.3141;-0.1534;0.225;1.2115;32.0;-19.97;28.07;-15.58;40.31;12.86;0.66;2.0;987.69;38.944;35.95823;-83.924385;775.8;NaN;;3.82;36.82732;99.9;8 / 18;39507;2022-10-26 21:25:41:225
-1.051;-2.8238;10.072;-2.3242;-1.7585;9.3636;1.4777;-2.9614;3.8344;-0.4637;-0.4078;1.7452;32.0;-2.12;38.63;-2.57;4.18;14.8;15.0;2.0;987.71;39.156;35.95823;-83.924385;775.8;NaN;;3.82;36.82732;99.9;8 / 17;40008;2022-10-26 21:25:41:726
-3.7158;-4.538;14.7583;-2.3882;-2.2044;9.2524;1.8342;2.0781;0.3168;-0.8479;0.4913;-0.0657;22.0;30.45;29.7;6.3;313.37;12.99;14.47;2.0;987.73;37.458;35.95823;-83.924385;775.8;NaN;;3.82;36.82732;99.9;8 / 17;40507;2022-10-26 21:25:42:225
-2.2253;-0.291;7.6038;-3.0969;-0.7328;9.2759;0.322;-1.212;-1.0297;0.0079;0.1926;0.637;19.0;36.09;19.74;8.12;298.08;6.58;15.59;2.0;987.69;37.264;35.95823;-83.924385;775.8;NaN;;3.82;36.82732;99.9;7 / 18;41006;2022-10-26 21:25:42:724
-2.3761;0.4454;7.6899;-4.014;-2.1814;8.6775;1.0362;0.0738;1.7547;0.0247;-0.2103;-0.1581;21.0;32.23;5.76;9.49;278.11;12.85;24.82;2.0;987.71;36.906;35.95823;-83.924385;775.8;NaN;;3.82;36.82732;99.9;7 / 18;41508;2022-10-26 21:25:43:226
-1.7764;0.1639;7.7282;-2.2497;-1.7765;9.3783;0.0289;-0.5454;0.2611;0.0957;-0.0241;0.1758;15.0;20.83;-1.57;9.45;266.78;10.44;13.49;2.0;987.75;39.174;35.95823;-83.92437;776.66;NaN;;;56.498505;;5 / 18;42007;2022-10-26 21:25:43:725
1.1946;-0.0754;8.6318;-2.3835;-0.5811;9.4948;3.5131;1.045;-2.0676;-0.1927;-0.2763;0.8088;7.0;8.01;-7.82;3.62;228.2;3.58;17.36;2.0;987.75;47.573;35.95823;-83.92437;776.66;NaN;;;56.498505;;5 / 18;42507;2022-10-26 21:25:44:225
-2.8561;-0.8704;9.3215;-1.2561;-0.2088;9.7236;-1.8735;0.379;-1.4363;0.4808;0.152;0.6667;4.0;2.18;-13.14;0.53;189.36;5.26;8.29;2.0;987.72;42.923;35.958225;-83.92436;776.62;NaN;;;65.10454;;4 / 18;43008;2022-10-26 21:25:44:726
-2.2959;1.8996;7.7019;-3.7325;0.7764;9.0353;2.5322;0.5806;-0.3945;0.2676;0.8799;0.5814;4.0;-8.06;-19.11;-1.67;156.54;-0.79;13.33;2.0;987.74;36.583;35.958225;-83.92436;776.62;NaN;;;65.10454;;4 / 18;43508;2022-10-26 21:25:45:226
-3.8091;1.2796;7.5401;-3.9634;1.0818;8.9046;-1.1734;-0.9048;-0.292;0.1516;-0.196;-0.3158;4.0;-14.94;-16.5;-8.91;132.06;-6.33;23.99;2.0;987.75;38.516;35.95825;-83.92439;769.23;NaN;;;69.5803;;4 / 18;44007;2022-10-26 21:25:45:725
-6.7202;0.6188;11.9381;-3.562;0.343;9.1304;0.2738;-0.1291;0.252;0.6651;1.5264;-0.3131;3.0;-13.16;-9.84;-15.83;118.26;-2.0;21.31;2.0;987.8;39.845;35.95825;-83.92439;769.23;NaN;;;69.5803;;4 / 18;44508;2022-10-26 21:25:46:226
-3.5635;1.7764;8.1867;-5.7763;-0.4603;7.9115;-0.6993;0.9127;1.1789;-2.0326;0.0781;0.1328;2.0;-3.68;-3.49;-16.99;96.67;-7.22;36.62;2.0;987.82;45.79;35.958263;-83.924416;769.19;NaN;;;77.10964;;4 / 18;45008;2022-10-26 21:25:46:726
-5.8391;0.2118;8.3255;-5.6472;0.2138;8.0146;-1.1588;-1.5989;2.4561;0.6388;-0.0282;-0.5503;1.0;8.06;0.79;-10.5;336.33;-0.99;36.26;2.0;987.82;43.824;35.958263;-83.924416;769.19;NaN;;;77.10964;;4 / 18;45506;2022-10-26 21:25:47:224
-4.4351;-0.4286;7.7115;-5.7344;0.0291;7.9552;-2.9257;1.0394;0.3343;-0.5223;0.0248;0.8605;1.0;11.53;-0.3;-7.57;258.04;4.07;37.78;2.0;987.84;51.102;35.958263;-83.92443;768.36;NaN;;;80.6645;;3 / 18;46007;2022-10-26 21:25:47:725
-7.1584;-2.1775;9.6171;-5.3993;0.0305;8.1864;1.6711;0.4161;-0.5788;-0.5602;0.3255;0.2239;2.0;5.87;-2.36;-15.66;117.14;-0.18;33.41;2.0;987.89;47.231;35.958263;-83.92443;768.36;NaN;;;80.6645;;3 / 18;46507;2022-10-26 21:25:48:225
-2.4419;1.6627;4.2341;-4.7221;1.1191;8.5217;0.3694;-0.7878;0.7916;0.5643;-0.54;0.3582;2.0;6.47;-2.94;-19.33;111.18;-2.71;33.23;2.0;987.94;44.672;35.95826;-83.92444;768.14;NaN;;;86.12368;;4 / 18;47007;2022-10-26 21:25:48:725
-5.796;0.7265;11.5493;-4.0929;0.4232;8.9017;-1.6906;-0.1573;-2.0414;-1.1149;0.4479;0.0196;4.0;9.9;-10.12;-20.49;184.63;-2.47;24.69;2.0;987.96;46.561;35.95826;-83.92444;768.14;NaN;;;86.12368;;4 / 18;47507;2022-10-26 21:25:49:225
-3.597;-0.7313;8.688;-2.8691;-1.2837;9.2893;-0.1096;1.932;-1.2682;0.5408;-0.2037;0.5147;5.0;5.63;-9.47;-26.66;169.89;7.52;17.16;2.0;987.97;43.452;35.958252;-83.92447;769.61;NaN;;3.56;92.22904;253.8;5 / 18;48008;2022-10-26 21:25:49:726
-4.4997;-5.1473;17.1826;-2.3443;-0.7532;9.4925;-1.4257;-1.4181;-2.6199;0.1341;0.2929;1.4398;28.0;-15.79;-12.21;-40.43;117.07;-0.98;9.27;2.0;987.98;46.933;35.958252;-83.92447;769.61;NaN;;3.56;92.22904;253.8;5 / 18;48507;2022-10-26 21:25:50:225
-5.4586;-3.2249;14.7894;-2.0987;-1.5401;9.4548;2.5327;1.2375;0.335;-0.4174;0.7485;0.5076;42.0;-32.16;-1.93;-45.37;98.59;6.57;12.66;2.0;988.0;42.808;35.95825;-83.9245;771.15;NaN;;3.28;105.3985;259.4;5 / 18;49007;2022-10-26 21:25:50:725
-5.6955;-1.2353;7.9053;-3.0306;-0.5527;9.3102;-1.7972;-0.5901;-0.5499;0.1339;0.4839;1.0444;38.0;-38.53;11.51;-47.1;77.49;1.71;13.93;2.0;987.97;45.38;35.95825;-83.9245;771.15;NaN;;3.28;105.3985;259.4;5 / 18;49508;2022-10-26 21:25:51:226
-5.0575;-0.4968;10.9771;-2.2477;0.092;9.5451;1.3323;1.3526;-1.511;-0.3279;0.6954;-0.0706;28.0;-19.56;27.28;-37.8;45.9;-0.54;13.25;2.0;987.97;38.761;35.95825;-83.92452;772.49;NaN;;3.28;127.13317;263.5;4 / 18;50008;2022-10-26 21:25:51:726
-5.6548;-1.3442;9.9212;-3.0598;0.4677;9.3053;-0.0524;-1.1039;-0.6144;-0.9437;1.0429;1.365;24.0;5.98;24.64;-30.09;7.91;-2.73;18.2;2.0;987.97;41.702;35.95825;-83.92452;772.49;NaN;;3.28;127.13317;263.5;4 / 18;50508;2022-10-26 21:25:52:226
-4.5176;-0.5387;9.3455;-3.0532;0.1995;9.3171;-0.4175;0.0065;0.7038;-0.0189;-0.3427;0.28;6.0;26.27;18.41;-21.47;315.81;0.86;20.35;2.0;987.97;35.668;35.958244;-83.924545;782.97;NaN;;3.85;148.3304;263.1;3 / 18;51007;2022-10-26 21:25:52:725
-2.4168;0.5088;6.8985;-2.8479;0.2851;9.3797;0.1886;-0.3716;-2.1947;-0.3816;-0.3026;0.8118;3.0;31.74;3.0;-18.49;278.39;-1.73;16.25;2.0;987.97;36.855;35.958244;-83.924545;782.97;NaN;;3.85;148.3304;263.1;3 / 18;51507;2022-10-26 21:25:53:225
-3.8366;0.7648;6.3526;-2.8837;-0.781;9.3405;2.1496;1.045;0.6336;0.5479;-0.4626;-0.9494;4.0;25.58;-5.76;-16.29;245.1;8.72;16.86;2.0;987.99;39.776;35.958183;-83.92461;777.93;NaN;;0.0;152.16446;;4 / 18;52006;2022-10-26 21:25:53:724
-1.4797;-0.3748;8.4296;-1.0401;-1.4731;9.6394;0.166;-1.741;3.1012;0.866;0.5099;-0.0157;4.0;17.33;-3.17;-19.2;247.76;8.64;6.16;2.0;988.02;43.356;35.958183;-83.92461;777.93;NaN;;0.0;152.16446;;4 / 18;52508;2022-10-26 21:25:54:226
0.3233;-1.6472;9.2677;-0.5904;-0.6735;9.7657;0.1802;1.3659;-2.5368;0.3939;-0.1584;-0.2108;4.0;12.77;-1.42;-23.38;254.32;4.75;5.62;2.0;988.01;43.868;35.95818;-83.924614;775.8;NaN;;;152.22353;;3 / 18;53008;2022-10-26 21:25:54:726
1.2317;-4.2051;14.1383;-2.8582;0.6492;9.3584;-1.4435;-0.4866;-0.6748;-0.8189;-1.0069;0.9699;4.0;14.55;4.58;-29.47;320.45;-3.8;16.98;2.0;988.07;42.505;35.95818;-83.924614;775.8;NaN;;;152.22353;;3 / 18;53507;2022-10-26 21:25:55:225
-5.6094;0.1603;9.2183;-1.9819;-0.1427;9.6032;-0.6158;-1.625;-0.9745;-0.4371;1.0564;-0.1655;5.0;7.18;12.92;-36.04;1.93;0.83;11.66;2.0;988.08;41.013;35.95818;-83.924614;775.8;NaN;;;152.22353;;2 / 18;54006;2022-10-26 21:25:55:724
-4.5176;-0.2106;8.9169;-3.3116;-1.5342;9.1022;0.3519;-0.5771;4.5791;-0.6987;0.6364;-0.4472;6.0;8.4;13.93;-39.99;39.32;9.0;19.99;2.0;988.13;45.396;35.95818;-83.924614;775.8;NaN;;;152.22353;;2 / 18;54506;2022-10-26 21:25:56:224
-2.764;-1.6161;9.6338;-4.1177;-1.0174;8.8419;3.1722;0.0208;0.5102;-0.0578;-0.9913;1.4676;13.0;10.29;19.78;-37.91;28.72;9.88;25.24;2.0;988.14;45.171;35.958214;-83.924576;767.55;NaN;;;145.00479;;1 / 17;55008;2022-10-26 21:25:56:726
-1.9068;-0.2489;15.0709;-2.0493;0.912;9.5467;-1.1106;-1.8468;-0.2729;2.2056;-0.0139;-1.4401;28.0;5.21;19.95;-38.18;11.35;1.3;13.25;2.0;988.19;43.259;35.958214;-83.924576;767.55;NaN;;;145.00479;;1 / 17;55507;2022-10-26 21:25:57:225
-1.2365;1.3442;6.8195;-0.3816;0.5574;9.7834;-0.7081;-1.085;5.0979;0.3282;-0.2614;-0.59;27.0;-7.71;13.01;-38.42;32.07;-3.26;2.23;2.0;988.21;44.98;35.958233;-83.92455;767.53;NaN;;;156.2473;;2 / 18;56007;2022-10-26 21:25:57:725
0.2177;-0.3221;6.865;0.4742;1.7477;9.638;-3.3329;-2.3922;1.8276;0.4921;0.3869;1.2836;36.0;-6.94;11.76;-42.09;14.29;-10.27;-2.82;2.0;988.15;63.739;35.958233;-83.92455;767.53;NaN;;;156.2473;;2 / 18;56508;2022-10-26 21:25:58:226
-2.2002;-0.3832;8.7171;-2.4402;-0.4196;9.4889;-0.4664;-0.1982;-1.0695;-0.3719;0.5472;1.7927;36.0;9.84;11.91;-48.94;6.34;2.37;12.8;2.0;988.17;36.411;35.958244;-83.92454;767.65;NaN;;;176.77147;;2 / 18;57007;2022-10-26 21:25:58:725
-4.101;-2.2493;7.1345;-2.63;-0.4644;9.436;-1.3958;-2.7041;2.5782;0.0037;-0.1287;0.2242;29.0;24.06;6.08;-42.75;280.2;4.88;16.91;2.0;988.18;35.638;35.958244;-83.92454;767.65;NaN;;;176.77147;;2 / 18;57507;2022-10-26 21:25:59:225
-2.6276;-1.2664;11.2199;-3.0591;-1.6109;9.177;1.3314;0.5266;3.8508;-0.8013;-0.6578;-0.1713;28.0;20.29;-1.41;-43.29;215.56;6.44;19.5;2.0;988.22;35.818;35.958218;-83.92453;764.41;NaN;;;194.71149;;2 / 18;58007;2022-10-26 21:25:59:725
-8.0249;-2.3498;13.9995;-2.5022;-0.1308;9.4811;-0.208;-0.701;-0.1155;-0.3625;1.7897;-0.0515;21.0;22.2;-0.32;-37.84;267.21;0.76;14.78;2.0;988.27;44.588;35.958218;-83.92453;764.41;NaN;;;194.71149;;2 / 18;58507;2022-10-26 21:26:00:225
-4.0842;-1.258;14.1622;-2.1637;-1.6219;9.4265;-1.5618;-0.5912;2.0653;-1.9306;0.6058;1.3786;16.0;22.44;-3.51;-37.52;265.43;-4.14;14.64;2.0;988.27;45.441;35.95835;-83.92473;771.16;NaN;;;198.7826;;3 / 18;59007;2022-10-26 21:26:00:725
-4.1273;-3.02;9.3168;-0.8478;-0.9566;9.723;-0.655;0.9939;-0.4766;1.0248;-0.0443;0.5695;4.0;17.36;-0.24;-40.37;253.33;5.6;4.98;2.0;988.24;45.047;35.95835;-83.92473;771.16;NaN;;;198.7826;;3 / 18;59507;2022-10-26 21:26:01:225
0.4131;-1.5275;11.1266;-0.5674;-0.3736;9.7831;1.533;-0.3457;0.4973;-0.7723;0.2333;1.3907;4.0;8.87;-11.33;-46.84;206.08;2.18;3.32;2.0;988.29;40.589;35.95834;-83.924774;776.27;NaN;;;212.13713;;4 / 18;60007;2022-10-26 21:26:01:725
-0.3568;-0.0239;10.3735;-1.1055;-1.1924;9.6709;1.4875;1.6654;0.155;-0.1145;-0.0844;0.2854;11.0;2.29;-6.92;-50.31;164.17;6.98;6.52;2.0;988.27;38.423;35.95834;-83.924774;776.27;NaN;;;212.13713;;4 / 18;60507;2022-10-26 21:26:02:225
-1.5239;-1.3729;7.0388;-1.4413;-0.5873;9.6824;0.0374;-1.5693;-0.8928;0.2428;0.1949;0.0211;8.0;5.81;-1.84;-50.01;173.97;5.72;7.69;2.0;988.22;39.259;35.958336;-83.92481;778.45;NaN;;;240.9081;;5 / 17;61007;2022-10-26 21:26:02:725
-2.959;-2.5259;12.629;-2.5038;-1.1693;9.4093;0.7334;-0.5929;1.599;-0.7737;0.1877;0.151;6.0;15.96;-7.67;-48.09;201.5;1.94;14.1;2.0;988.31;38.498;35.958336;-83.92481;778.45;NaN;;;240.9081;;5 / 17;61507;2022-10-26 21:26:03:225
-2.5762;-1.8517;9.9129;-3.4184;-0.8418;9.1529;1.4436;0.2177;-1.4572;-1.3173;1.2351;0.943;4.0;24.83;-9.88;-41.04;212.93;4.92;20.48;2.0;988.32;43.988;35.95783;-83.92454;789.04;NaN;;19.3;234.6483;176.0;3 / 18;62007;2022-10-26 21:26:03:725
-4.5284;-0.3772;6.2402;-4.1371;-1.536;8.7576;-1.2138;-1.0161;3.0771;0.2705;-0.0383;-0.5278;3.0;24.73;-5.74;-38.7;204.38;9.01;25.29;2.0;988.29;47.971;35.95783;-83.92454;789.04;NaN;;19.3;234.6483;176.0;3 / 18;62507;2022-10-26 21:26:04:225
-2.691;0.0096;7.1189;-2.8178;-0.7266;9.365;-0.041;-0.1699;0.266;0.6587;0.3529;0.0665;3.0;16.88;0.94;-40.93;220.17;10.66;14.7;2.0;988.32;49.886;35.95778;-83.92453;793.68;NaN;;19.3;261.96045;176.0;4 / 17;63007;2022-10-26 21:26:04:725
-0.0694;-1.4821;9.5883;-0.1201;-0.589;9.7882;-2.3164;2.2693;-1.1321;0.6416;1.787;-0.234;2.0;6.94;6.88;-43.78;64.95;4.91;17.9;2.0;988.37;51.36;35.95778;-83.92453;793.68;NaN;;19.3;261.96045;176.0;4 / 17;63507;2022-10-26 21:26:05:225
-1.0522;0.8402;5.7541;-1.4195;-1.2074;9.628;0.9228;-0.6016;5.319;-1.3916;-0.2139;0.1573;4.0;-4.54;7.91;-47.23;70.74;4.72;8.7;2.0;988.44;49.8;35.95773;-83.92453;798.14;NaN;;;290.53214;;4 / 18;64008;2022-10-26 21:26:05:726
-2.1452;-1.2987;12.7367;-1.3529;-1.6739;9.5675;-1.1284;-1.0311;0.798;0.3457;0.8195;0.5538;8.0;-0.32;3.53;-41.34;117.5;9.83;8.05;2.0;988.48;47.175;35.95773;-83.92453;798.14;NaN;;;290.53214;;4 / 18;64508;2022-10-26 21:26:06:226
-1.3119;-4.2951;12.4744;-0.9103;-1.6757;9.6194;1.9294;2.2165;0.6842;0.1012;-0.1207;-0.0403;15.0;-6.52;-2.66;-32.83;135.34;12.73;5.12;2.0;988.44;40.617;35.95768;-83.92452;802.38;NaN;;;320.15787;;3 / 18;65007;2022-10-26 21:26:06:725
-2.0686;-2.8956;11.8747;-0.1138;0.9417;9.7607;-1.7224;-1.557;-4.1448;-1.0653;0.1376;1.5985;30.0;-17.44;-15.36;-25.63;125.74;-5.51;0.67;2.0;988.47;44.241;35.95768;-83.92452;802.38;NaN;;;320.15787;;3 / 18;65507;2022-10-26 21:26:07:225
-1.2855;-3.9191;13.8643;-1.072;-1.9452;9.5518;4.0397;1.2308;1.8366;0.5347;-0.4503;-0.1702;32.0;-26.85;-7.5;-32.32;114.03;11.44;6.4;2.0;988.48;37.81;35.95768;-83.92452;802.38;NaN;;;320.15787;;2 / 18;66007;2022-10-26 21:26:07:725
-1.3561;-4.0842;12.7834;-1.5955;-1.8663;9.4943;-0.89;-1.3508;0.7404;-1.1337;0.3577;2.1187;23.0;-20.66;-6.21;-39.88;114.98;10.97;9.54;2.0;988.49;38.178;35.95768;-83.92452;802.38;NaN;;;320.15787;;2 / 18;66507;2022-10-26 21:26:08:225
-1.0834;-2.8286;8.5205;-1.5975;-1.8766;9.4919;1.3559;1.0371;0.8634;-0.2207;-0.1983;0.8532;20.0;-11.36;5.87;-40.95;93.13;10.07;8.17;2.0;988.47;38.967;35.95768;-83.92452;802.38;NaN;;;320.15787;;0 / 18;67007;2022-10-26 21:26:08:725
-2.1763;-2.1894;9.0461;-2.7664;-2.2226;9.1421;-0.8188;-2.4405;0.222;-1.1905;-0.067;2.3105;6.0;4.74;13.54;-36.37;35.69;9.8;16.63;2.0;988.48;38.637;35.95768;-83.92452;802.38;NaN;;;320.15787;;0 / 18;67508;2022-10-26 21:26:09:226
-2.7784;-2.2588;8.7422;-3.7278;-1.4347;8.9563;0.0759;0.9944;0.3394;-0.2593;-0.1582;0.2506;3.0;15.9;9.47;-31.03;323.16;8.41;22.6;2.0;988.46;36.036;35.95768;-83.92452;802.38;NaN;;;320.15787;;0 / 18;68007;2022-10-26 21:26:09:725
-2.6157;-0.7612;8.7099;-3.7816;-0.7838;9.0142;-0.0506;0.4838;-1.7562;-0.1608;-0.1005;0.2275;4.0;14.81;0.66;-28.01;242.97;4.58;22.76;2.0;988.52;37.566;35.95768;-83.92452;802.38;NaN;;;320.15787;;0 / 18;68507;2022-10-26 21:26:10:225
-6.3227;-3.1364;9.9787;-3.8073;-0.5479;9.0208;-2.5174;-2.3389;0.5397;0.7676;0.6284;-0.6864;4.0;8.61;-5.27;-24.19;189.02;4.46;18.08;2.0;988.54;41.044;35.95768;-83.92452;802.38;NaN;;;320.15787;;0 / 18;69007;2022-10-26 21:26:10:725
-5.2705;-1.185;5.8857;-3.4614;-2.1604;8.9175;3.0204;-0.573;1.9086;2.168;1.1144;-0.7625;4.0;-3.92;-5.16;-21.07;117.23;3.12;22.07;2.0;988.55;43.436;35.95768;-83.92452;802.38;NaN;;;320.15787;;0 / 18;69507;2022-10-26 21:26:11:225
-5.1712;-0.4705;9.3048;-4.19;-0.8414;8.8265;2.4504;0.4277;-0.3851;0.2674;0.0431;-0.251;3.0;-9.79;2.46;-20.34;89.18;6.94;23.3;2.0;988.56;42.02;35.95768;-83.92452;802.38;NaN;;;320.15787;;0 / 18;70007;2022-10-26 21:26:11:725
-2.8382;-1.4737;8.985;-3.1669;-1.4352;9.1696;-0.4027;2.382;-2.0346;0.2729;0.0162;-0.0402;4.0;-11.94;9.47;-19.95;69.42;8.42;19.05;2.0;988.62;47.798;35.95768;-83.92452;802.38;NaN;;;320.15787;;0 / 18;70507;2022-10-26 21:26:12:225
-2.6073;-1.8805;9.4807;-3.5087;-1.9612;8.945;-0.6187;1.1324;-0.5354;-0.1797;-0.0194;0.5955;5.0;-12.49;15.98;-20.98;54.92;8.75;23.51;2.0;988.62;44.095;35.95768;-83.92452;802.38;NaN;;;320.15787;;0 / 18;71007;2022-10-26 21:26:12:725
-5.3279;-4.5559;10.6322;-3.3443;0.1289;9.2179;-0.7561;-0.8063;-1.5807;0.2288;0.3948;0.1817;8.0;-12.86;23.33;-19.58;39.39;-0.75;19.94;2.0;988.63;44.259;35.95768;-83.92452;802.38;NaN;;;320.15787;;0 / 18;71508;2022-10-26 21:26:13:226
-2.2528;0.2752;8.2155;-3.5144;-3.0617;8.6282;1.4359;0.889;2.8246;0.2393;-0.5282;-0.0203;9.0;-17.49;26.72;-21.0;47.64;18.19;22.16;2.0;988.68;43.097;35.95768;-83.92452;802.38;NaN;;;320.15787;;0 / 18;72007;2022-10-26 21:26:13:725
-4.3789;-0.5471;11.0106;-3.1219;-1.2358;9.2139;-0.1085;1.0606;0.4333;-0.299;0.3495;-0.1202;31.0;-22.14;33.86;-17.98;39.34;7.24;18.72;2.0;988.68;52.826;35.95768;-83.92452;802.38;NaN;;;320.15787;;0 / 18;72508;2022-10-26 21:26:14:226
-6.0045;-4.7919;17.1969;-1.4495;-1.5879;9.5681;0.4932;3.0946;-1.9181;0.1148;0.7377;-0.5964;40.0;-16.56;37.33;-19.58;31.81;7.17;15.09;2.0;988.72;46.066;35.95768;-83.92452;802.38;NaN;;;320.15787;;0 / 18;73008;2022-10-26 21:26:14:726
-3.6523;-2.2241;9.2916;-1.4663;-0.1087;9.6958;-1.8586;-1.7362;0.4618;-0.5673;0.6858;1.576;42.0;0.66;30.15;-23.96;0.97;-6.32;3.7;2.0;988.73;46.425;35.95768;-83.92452;802.38;NaN;;;320.15787;;0 / 18;73508;2022-10-26 21:26:15:226
-2.3868;-3.0248;13.6738;-2.3212;-1.8715;9.3424;3.5264;1.8698;1.8477;0.8599;-0.3163;0.1276;29.0;13.09;15.88;-19.67;325.65;11.0;13.95;2.0;988.73;41.553;35.95768;-83.92452;802.38;NaN;;;320.15787;;0 / 18;74007;2022-10-26 21:26:15:725
-3.906;-1.4665;8.371;-1.7612;-1.214;9.5705;-2.933;-0.947;-0.8831;0.6015;-0.4848;1.0279;31.0;13.48;-0.9;-26.76;239.94;7.11;10.43;2.0;988.72;39.243;35.95768;-83.92452;802.38;NaN;;;320.15787;;0 / 18;74508;2022-10-26 21:26:16:226
-2.1966;-2.388;9.2399;-1.308;0.0754;9.7187;-1.9236;-2.9743;1.015;0.9522;-0.4461;0.409;33.0;22.33;2.68;-26.34;271.88;4.73;10.43;2.0;988.75;43.163;35.95768;-83.92452;802.38;NaN;;;320.15787;;0 / 18;75007;2022-10-26 21:26:16:725
-3.146;2.0889;9.3933;-2.4488;0.7111;9.4693;0.7902;0.6649;-0.9769;-0.3215;-0.0069;0.6528;8.0;25.05;7.8;-28.41;298.09;-3.92;11.2;2.0;988.7;42.205;35.95768;-83.92452;802.38;NaN;;;320.15787;;0 / 18;75507;2022-10-26 21:26:17:225
-1.0439;0.4573;7.7198;-2.5479;0.4433;9.4595;-1.4283;-0.5899;1.3678;-0.3485;0.6964;-0.191;3.0;35.16;4.74;-23.66;285.43;-4.79;14.71;2.0;988.69;36.315;35.95768;-83.92452;802.38;NaN;;;320.15787;;0 / 18;76007;2022-10-26 21:26:17:725
-1.002;-0.1783;8.4117;-2.1633;0.0307;9.565;0.0892;0.3958;-1.1807;-0.1383;0.1576;0.2873;3.0;45.24;1.39;-19.59;271.58;-0.18;12.74;2.0;988.74;37.938;35.95768;-83.92452;802.38;NaN;;;320.15787;;0 / 18;76507;2022-10-26 21:26:18:225
-2.3438;-0.1017;8.4882;-3.725;0.615;9.0508;-3.4029;-2.0325;0.5417;0.2546;0.4106;-0.3538;2.0;49.59;1.26;-12.97;274.38;-4.37;20.33;2.0;988.74;43.323;35.95768;-83.92452;802.38;NaN;;;320.15787;;0 / 18;77007;2022-10-26 21:26:18:725
-8.3148;3.1125;5.6273;-3.5583;1.9054;8.9375;-0.835;-1.068;1.8162;1.2909;0.0973;-1.3885;2.0;46.18;-3.51;-3.58;270.14;-11.2;21.71;2.0;988.76;42.04;35.95768;-83.92452;802.38;NaN;;;320.15787;;0 / 18;77507;2022-10-26 21:26:19:225
-2.1332;1.3418;8.3985;-3.9699;1.905;8.7625;-0.3211;-0.1642;-2.2479;-1.6901;-0.0828;0.79;1.0;35.87;-3.32;1.71;269.3;-11.2;24.37;2.0;988.8;46.436;35.95768;-83.92452;802.38;NaN;;;320.15787;;0 / 17;78007;2022-10-26 21:26:19:725
-2.9626;1.7142;6.7071;-1.9218;1.2217;9.5386;-5.2821;-1.2269;3.2253;0.207;1.0097;-1.0026;2.0;21.96;-0.99;-5.79;270.79;-7.16;11.39;2.0;988.84;42.485;35.95768;-83.92452;802.38;NaN;;;320.15787;;0 / 17;78507;2022-10-26 21:26:20:225
-1.6507;1.7285;11.4413;-2.083;0.477;9.571;0.4251;-0.4069;4.7779;0.1322;-0.1835;-0.1537;3.0;24.47;-0.41;-9.43;274.88;-8.2;10.37;2.0;988.88;45.783;35.95768;-83.92452;802.38;NaN;;;320.15787;;0 / 17;79007;2022-10-26 21:26:20:725
0.7373;1.4892;7.7545;-1.3416;0.7212;9.6876;0.746;0.3441;-2.7626;0.6784;0.057;1.4957;5.0;36.38;-1.67;-4.03;268.89;-5.53;16.33;2.0;988.9;42.939;35.95768;-83.92452;802.38;NaN;;;320.15787;;0 / 17;79507;2022-10-26 21:26:21:225
-0.5124;1.2676;12.047;1.614;1.3869;9.573;-1.3766;-2.1383;-2.638;-0.7639;0.129;-0.9606;6.0;34.5;-14.1;-8.34;249.27;-8.13;-9.57;2.0;988.89;40.99;35.95768;-83.92452;802.38;NaN;;;320.15787;;0 / 17;80007;2022-10-26 21:26:21:725
0.4418;0.7528;5.3207;0.7203;1.0321;9.7256;1.3183;-0.4951;4.6781;0.1662;0.0445;0.7448;9.0;28.28;-9.0;-0.86;252.06;-6.04;-4.24;2.0;988.9;40.488;35.95768;-83.92452;802.38;NaN;;;320.15787;;0 / 17;80508;2022-10-26 21:26:22:226
-2.6551;2.6767;13.6391;1.8385;0.6796;9.6088;-3.3535;0.1535;7.018;-0.3995;-0.2986;-0.3599;13.0;13.11;-0.69;-6.09;265.85;-0.09;-7.61;2.0;989.01;46.652;35.95768;-83.92452;802.38;NaN;;;320.15787;;0 / 16;81007;2022-10-26 21:26:22:725
-4.3322;1.9391;10.3615;-0.9835;3.3509;9.1638;0.1619;-1.0048;1.1461;1.3546;4.7574;3.3217;16.0;-1.29;9.17;-15.54;3.12;-23.27;-0.74;2.0;988.88;48.394;35.95768;-83.92452;802.38;NaN;;;320.15787;;0 / 16;81508;2022-10-26 21:26:23:226
2.8896;5.3749;3.6535;2.4107;8.0694;5.0243;0.3639;-1.3853;-1.9083;0.7652;0.4217;1.9585;16.0;11.64;-21.41;-14.55;261.31;-54.25;-11.34;2.0;988.86;44.231;35.95768;-83.92452;802.38;NaN;;;320.15787;;0 / 16;82007;2022-10-26 21:26:23:725
3.4427;5.4658;5.0575;3.5771;7.684;4.9326;-2.6173;0.7483;0.0616;0.1881;1.9798;1.0097;6.0;-19.01;-38.61;-4.74;134.71;-51.59;-35.95;2.0;988.89;32.633;35.95768;-83.92452;802.38;NaN;;;320.15787;;0 / 16;82507;2022-10-26 21:26:24:225
-8.249;8.1784;6.8698;-3.1183;6.8763;6.258;-2.4023;-0.2632;0.5919;-0.3229;0.6488;-3.7895;5.0;-33.32;-35.78;-17.42;101.05;-52.18;-5.81;2.0;988.9;34.244;35.95768;-83.92452;802.38;NaN;;;320.15787;;0 / 16;83007;2022-10-26 21:26:24:725
-7.1632;3.6643;4.4841;-7.3566;3.5726;5.4117;-5.2072;0.4157;1.4358;-0.0186;0.3454;1.1191;21.0;-17.19;-40.61;-47.94;123.95;-21.36;53.66;2.0;988.92;35.545;35.95768;-83.92452;802.38;NaN;;;320.15787;;0 / 16;83507;2022-10-26 21:26:25:225
-9.6876;3.2931;7.3666;-7.6653;4.0277;4.6034;0.9744;1.0307;0.1838;-1.5589;-0.9631;-0.4594;8.0;6.99;-23.76;-58.95;98.41;-24.25;59.01;2.0;988.91;41.22;35.95768;-83.92452;802.38;NaN;;;320.15787;;0 / 16;84007;2022-10-26 21:26:25:725
-5.6417;2.5857;8.5588;-6.7044;3.1933;6.405;0.3521;-0.9334;-0.8608;-1.4537;0.3621;0.6489;6.0;10.88;-10.84;-57.21;81.52;-19.0;46.31;2.0;988.93;41.896;35.95768;-83.92452;802.38;NaN;;;320.15787;;0 / 16;84507;2022-10-26 21:26:26:225
-7.3343;1.1492;8.8834;-7.0773;2.2659;6.399;-0.1675;0.603;1.12;0.5831;-0.182;-0.4279;6.0;15.94;-4.63;-55.71;74.28;-15.88;47.98;2.0;988.92;37.803;35.95768;-83.92452;802.38;NaN;;;320.15787;;0 / 16;85007;2022-10-26 21:26:26:725
-8.2095;3.4762;5.3318;-8.2648;2.6187;4.5833;1.0066;1.1236;-0.1087;-0.0079;0.7434;0.0244;6.0;23.14;-4.44;-50.25;70.47;-17.82;57.0;2.0;988.94;34.112;35.95768;-83.92452;802.38;NaN;;;320.15787;;0 / 16;85507;2022-10-26 21:26:27:225
-9.4843;-0.8991;3.1998;-7.666;2.3756;5.6356;0.1273;-0.5709;0.0871;0.7591;1.5789;-0.903;7.0;34.37;-1.11;-40.39;46.67;-14.02;53.68;2.0;988.95;47.724;35.95768;-83.92452;802.38;NaN;;;320.15787;;0 / 15;86007;2022-10-26 21:26:27:725
-9.7511;-1.4868;2.8394;-9.3302;-1.8506;2.386;1.3574;0.3801;2.552;-0.9415;-0.0046;-0.7075;9.0;42.49;13.48;-20.72;67.55;10.88;75.66;2.0;989.01;45.809;35.95768;-83.92452;802.38;NaN;;;320.15787;;0 / 15;86508;2022-10-26 21:26:28:226
-6.4448;-0.9637;2.7245;-8.637;-0.267;4.637;-1.5605;-2.0926;-3.8998;0.147;-0.7846;0.6082;17.0;34.28;27.17;-11.79;359.09;7.12;70.0;2.0;989.04;46.009;35.95768;-83.92452;802.38;NaN;;;320.15787;;0 / 15;87007;2022-10-26 21:26:28:725
-10.576;-3.9072;3.6126;-8.5182;-0.281;4.851;-0.0488;1.121;0.9697;1.6604;0.2601;-1.1072;22.0;27.88;18.69;-17.46;6.02;3.01;61.92;2.0;989.05;44.457;35.95768;-83.92452;802.38;NaN;;;320.15787;;0 / 15;87506;2022-10-26 21:26:29:224
-10.1892;-1.136;3.6305;-8.3754;-3.9954;3.1718;-4.4898;-1.2175;3.29;-2.8506;0.1741;-1.6044;25.0;21.96;22.48;-10.29;2.35;12.82;67.12;2.0;989.07;47.33;35.95768;-83.92452;802.38;NaN;;;320.15787;;0 / 15;88007;2022-10-26 21:26:29:725
-5.9889;-4.319;2.406;-8.8334;-3.9033;1.7045;-6.8799;-5.9033;-2.5117;-1.0852;-0.5824;0.9541;25.0;16.26;36.47;3.26;347.52;23.45;79.08;2.0;989.14;50.431;35.95768;-83.92452;802.38;NaN;;;320.15787;;0 / 15;88508;2022-10-26 21:26:30:226
-5.656;-1.4127;0.8548;-8.2234;-5.3352;0.286;2.4399;3.6151;0.1841;-0.9958;-0.0525;-0.6784;20.0;14.14;41.57;8.44;344.43;25.13;85.76;2.0;989.11;42.497;35.95768;-83.92452;802.38;NaN;;;320.15787;;0 / 14;89007;2022-10-26 21:26:30:725
-7.6899;-6.7095;-0.1615;-8.7913;-4.1597;1.2573;-0.0883;-3.3957;0.5387;0.1278;-0.1793;2.1378;3.0;2.93;37.69;15.09;335.84;25.1;81.86;2.0;989.12;41.098;35.95768;-83.92452;802.38;NaN;;;320.15787;;0 / 14;89508;2022-10-26 21:26:31:226
-6.9787;-5.0791;0.9757;-8.2952;-5.186;0.6823;-0.7793;-0.0639;0.3678;-2.9676;-0.6957;-1.0263;4.0;20.57;36.0;20.34;313.23;31.93;85.3;2.0;989.09;39.593;35.95768;-83.92452;802.38;NaN;;;320.15787;;0 / 10;90007;2022-10-26 21:26:31:725
-11.1912;-7.8191;-0.3066;-8.8131;-3.6024;2.35;-3.356;-4.8865;-0.2856;1.5037;-0.1125;1.4082;4.0;18.83;17.57;36.49;288.67;21.55;75.07;2.0;989.09;44.636;35.95768;-83.92452;802.38;NaN;;;320.15787;;0 / 10;90507;2022-10-26 21:26:32:225
-12.4062;-6.9511;3.6978;-9.0223;-3.592;1.3662;-0.2626;-3.4499;-0.893;-2.2875;-0.0737;-0.9444;2.0;35.96;5.16;22.86;273.31;6.53;71.33;2.0;989.12;49.245;35.95768;-83.92452;802.38;NaN;;;320.15787;;0 / 10;91006;2022-10-26 21:26:32:724
-15.3317;-4.8171;2.2301;-8.2962;-5.2133;0.4052;-1.1508;3.3349;0.7748;0.6464;0.0115;-0.0844;3.0;38.49;-6.36;11.4;203.85;30.26;90.35;2.0;989.12;41.883;35.95768;-83.92452;802.38;NaN;;;320.15787;;0 / 10;91507;2022-10-26 21:26:33:225
-5.0539;-2.2696;0.0814;-9.3152;-0.2316;3.0569;3.9163;-5.0343;-3.0752;-0.7881;-0.3056;0.2104;2.0;40.82;-33.19;8.27;211.06;1.35;71.83;2.0;989.11;39.564;35.95768;-83.92452;802.38;NaN;;;320.15787;;0 / 10;92007;2022-10-26 21:26:33:725
-7.9723;-5.0839;3.5767;-7.9094;-5.7569;0.6862;-4.8365;-1.8359;6.372;1.5109;0.3803;-0.0366;2.0;46.58;-40.56;-21.19;164.73;35.95;85.04;2.0;989.13;40.901;35.95768;-83.92452;802.38;NaN;;;320.15787;;0 / 10;92507;2022-10-26 21:26:34:225
-7.8885;-5.6656;0.1842;-6.9298;-5.8752;3.6919;0.9352;1.2127;-2.87;0.6971;1.3092;-0.3484;12.0;59.57;-22.44;-39.56;179.41;38.68;56.82;2.0;989.15;50.517;35.95768;-83.92452;802.38;NaN;;;320.15787;;0 / 10;93007;2022-10-26 21:26:34:725
-9.8085;-8.1314;3.9706;-7.0001;-6.6143;1.8491;-0.5797;2.2182;1.4167;1.2825;-0.1875;1.0424;13.0;53.74;-11.59;-17.33;174.01;44.22;77.62;2.0;989.22;46.247;35.95768;-83.92452;802.38;NaN;;;320.15787;;0 / 10;93507;2022-10-26 21:26:35:225
-6.6497;-2.8502;7.1465;-7.2339;-1.7744;6.3791;-0.0864;-1.6523;2.991;0.8584;-1.494;0.8124;13.0;35.91;-7.37;-17.7;185.51;20.37;60.61;2.0;989.21;48.852;35.95768;-83.92452;802.38;NaN;;;320.15787;;0 / 10;94007;2022-10-26 21:26:35:725
-2.1476;2.211;5.9901;-4.2757;2.6476;8.419;-1.7681;-3.0555;-1.1641;0.6838;-0.4742;0.3635;6.0;13.74;-24.58;-32.55;170.32;-15.66;26.92;2.0;989.23;46.885;35.95768;-83.92452;802.38;NaN;;;320.15787;;0 / 10;94507;2022-10-26 21:26:36:225
-2.193;3.8916;7.1847;-2.7828;3.7974;8.6027;-0.0179;1.0161;-3.5126;-0.4484;-0.0299;-0.3842;2.0;6.11;-30.67;-35.08;153.78;-25.76;19.9;2.0;989.24;47.542;35.95768;-83.92452;802.38;NaN;;;320.15787;;0 / 10;95007;2022-10-26 21:26:36:725
-1.2293;4.0974;11.2355;-2.5254;3.2187;8.9125;0.401;0.9856;-0.6274;-1.5344;-1.4816;0.8379;3.0;7.14;-25.46;-39.75;158.07;-19.16;15.82;2.0;989.3;43.409;35.95768;-83.92452;802.38;NaN;;;320.15787;;0 / 10;95508;2022-10-26 21:26:37:226
-2.9853;0.6559;9.9978;-1.0985;1.0483;9.6884;-2.1231;-0.1138;3.9799;0.0858;0.1555;0.3206;6.0;6.11;-18.15;-45.86;183.45;-6.14;6.47;2.0;989.31;45.234;35.95768;-83.92452;802.38;NaN;;;320.15787;;0 / 10;96007;2022-10-26 21:26:37:725
-1.7668;0.984;7.4803;-0.6368;1.6145;9.6518;-1.2742;-1.5565;-0.6909;0.6028;0.3051;1.7388;33.0;-1.05;-12.45;-50.34;130.26;-9.48;3.77;2.0;989.27;47.64;35.95768;-83.92452;802.38;NaN;;;320.15787;;0 / 10;96508;2022-10-26 21:26:38:226
-1.6747;2.205;9.8662;0.1725;2.4179;9.5023;-0.1068;-1.4448;3.2207;-0.2638;0.1609;0.1399;34.0;-8.98;-16.54;-49.86;126.47;-12.81;-1.89;2.0;989.29;39.165;35.95768;-83.92452;802.38;NaN;;;320.15787;;0 / 10;97007;2022-10-26 21:26:38:725
-0.7349;2.6492;6.8423;-0.8326;3.1285;9.2569;-1.5561;-2.2765;5.4023;-0.3969;0.3761;0.9903;16.0;-18.06;-27.86;-43.31;125.82;-16.3;4.14;2.0;989.29;41.951;35.95768;-83.92452;802.38;NaN;;;320.15787;;0 / 10;97507;2022-10-26 21:26:39:225
-2.2265;1.6759;9.2028;-1.1914;1.929;9.541;1.1136;0.5115;0.6154;-0.0392;0.0531;-0.1909;10.0;-33.66;-29.72;-39.24;120.4;-11.34;7.12;2.0;989.3;34.788;35.95768;-83.92452;802.38;NaN;;;320.15787;;0 / 10;98007;2022-10-26 21:26:39:725
-1.817;1.4163;10.8715;-1.365;1.7698;9.5486;-0.9039;-0.0041;0.9423;0.3376;-0.1158;0.6884;30.0;-38.23;-41.49;-32.12;130.17;-10.4;8.14;2.0;989.3;33.652;35.95768;-83.92452;802.38;NaN;;;320.15787;;0 / 10;98508;2022-10-26 21:26:40:226
-2.5137;3.122;9.5405;-1.5393;2.9532;9.2239;-0.6464;0.2671;0.1965;0.0749;-0.0551;0.4552;34.0;-42.17;-39.15;-28.46;123.89;-17.67;12.35;2.0;989.27;34.066;35.95768;-83.92452;802.38;NaN;;;320.15787;;0 / 9;99007;2022-10-26 21:26:40:725
0.14;3.6413;9.5213;-0.8008;3.5506;9.1062;0.2413;-0.9796;-0.5871;0.0744;0.1993;0.5209;10.0;-54.06;-32.72;-21.49;114.11;-21.23;5.03;2.0;989.27;36.785;35.95768;-83.92452;802.38;NaN;;;320.15787;;0 / 9;99508;2022-10-26 21:26:41:226
-2.0985;3.9335;7.995;-1.177;4.2093;8.7788;-1.095;-0.5571;-0.7903;0.2235;-0.1487;-0.025;6.0;-64.74;-26.89;-17.01;108.09;-22.38;7.51;2.0;989.3;43.544;35.95768;-83.92452;802.38;NaN;;;320.15787;;0 / 9;100007;2022-10-26 21:26:41:725
-3.1172;4.1704;10.0086;-0.4557;4.0935;8.8998;0.4132;-0.3178;-1.6256;0.3925;0.3046;0.1122;5.0;-82.39;-18.56;-19.91;97.34;-24.67;2.93;2.0;989.34;46.238;35.95768;-83.92452;802.38;NaN;;;320.15787;;0 / 9;100507;2022-10-26 21:26:42:225
-1.2269;5.225;5.7829;-1.3145;5.7738;7.817;-0.5288;-1.1095;-0.0984;1.2948;-0.256;-0.1168;4.0;-78.58;-2.48;-31.72;85.67;-26.62;9.82;2.0;989.37;45.743;35.95768;-83.92452;802.38;NaN;;;320.15787;;0 / 9;101007;2022-10-26 21:26:42:725
-0.2405;5.6536;10.7399;-0.6251;4.6384;8.6177;0.2245;-1.7462;-1.205;-1.3163;-0.3664;-0.2601;4.0;-44.34;15.02;-48.56;53.71;-28.23;4.15;2.0;989.4;44.454;35.95768;-83.92452;802.38;NaN;;;320.15787;;0 / 9;101506;2022-10-26 21:26:43:224
0.65;4.0555;8.985;0.8932;4.2626;8.7865;-0.1819;-0.7836;0.3667;-0.7746;-0.073;0.975;4.0;-29.79;26.7;-43.41;28.66;-25.71;-10.44;2.0;989.44;47.839;35.95768;-83.92452;802.38;NaN;;;320.15787;;0 / 8;102007;2022-10-26 21:26:43:725
1.2257;2.9148;6.8686;1.8627;2.3277;9.3425;-0.6917;0.5609;0.4935;-0.3946;0.4122;-0.2217;5.0;-14.72;26.34;-42.68;9.41;-14.71;-11.58;2.0;989.44;44.537;35.95768;-83.92452;802.38;NaN;;;320.15787;;0 / 8;102507;2022-10-26 21:26:44:225
0.3293;4.6983;8.0871;0.3382;3.9938;8.9502;1.3684;-0.1408;0.268;0.6372;-0.0325;-1.3699;5.0;-16.39;22.95;-34.26;21.21;-20.44;-4.74;2.0;989.47;41.78;35.95768;-83.92452;802.38;NaN;;;320.15787;;0 / 8;103008;2022-10-26 21:26:44:726
-2.6659;5.5783;9.186;-1.8203;4.9669;8.2575;0.4623;0.4488;1.9862;0.3467;0.0629;0.1657;6.0;-15.56;-0.11;-24.32;64.03;-30.43;12.43;2.0;989.5;45.945;35.95768;-83.92452;802.38;NaN;;;320.15787;;0 / 8;103507;2022-10-26 21:26:45:225