sep=;
ACCELEROMETER X (m/s²);ACCELEROMETER Y (m/s²);ACCELEROMETER Z (m/s²);GRAVITY X (m/s²);GRAVITY Y (m/s²);GRAVITY Z (m/s²);LINEAR ACCELERATION X (m/s²);LINEAR ACCELERATION Y (m/s²);LINEAR ACCELERATION Z (m/s²);GYROSCOPE X (rad/s);GYROSCOPE Y (rad/s);GYROSCOPE Z (rad/s);LIGHT (lux);MAGNETIC FIELD X (μT);MAGNETIC FIELD Y (μT);MAGNETIC FIELD Z (μT);ORIENTATION Z (azimuth °);ORIENTATION X (pitch °);ORIENTATION Y (roll °);PROXIMITY (i);ATMOSPHERIC PRESSURE (hPa);SOUND LEVEL (dB);LOCATION Latitude : ;LOCATION Longitude : ;LOCATION Altitude ( m);LOCATION Altitude-google ( m);LOCATION Altitude-atmospheric pressure ( m);LOCATION Speed ( Kmh);LOCATION Accuracy ( m);LOCATION ORIENTATION (°);Satellites in range;Time since start in ms ;YYYY-MO-DD HH-MI-SS_SSS
-3.02;3.1759;6.8925;-4.306;2.4148;8.4733;1.8638;0.5333;2.2609;-0.4888;1.1424;-0.9464;400.0;10.86;-36.13;-25.05;183.53;-20.0;20.58;5.0;986.54;58.058;35.958168;-83.92411;790.32;NaN;;;65.19032;;0 / 17;6;2022-10-26 21:29:22:466
-6.9906;1.3214;6.7789;-5.9738;2.3673;7.4081;-0.3022;-1.2246;0.023;0.3818;0.7914;0.9677;480.0;24.0;-27.32;-26.66;192.9;-7.31;33.53;5.0;986.57;37.106;35.958244;-83.924545;785.54;NaN;;0.0;34.114426;;0 / 17;506;2022-10-26 21:29:22:966
-5.4574;1.2951;4.6062;-4.5775;0.2964;8.6677;-2.6257;-1.0834;-1.9839;-1.1905;-1.2827;-0.2259;511.0;25.54;-31.99;-23.46;201.56;-1.73;27.84;5.0;986.59;50.316;35.958244;-83.924545;785.54;NaN;;0.0;34.114426;;0 / 17;1005;2022-10-26 21:29:23:465
-3.7648;2.3366;9.4089;-2.5658;2.0354;9.2436;-2.5138;-1.7969;3.6583;0.8636;-1.2414;1.3598;460.0;12.13;-32.83;-31.18;187.34;-11.98;15.51;5.0;986.64;49.787;35.958244;-83.924545;785.54;NaN;;0.0;34.114426;;10 / 17;1506;2022-10-26 21:29:23:966
-2.2612;-0.3843;12.1753;-0.7267;1.0548;9.7226;-1.9941;0.1805;-0.1384;-1.4267;-0.5205;1.2421;383.0;-10.2;-41.34;-30.45;156.14;-15.1;8.37;5.0;986.63;53.954;35.958244;-83.924545;785.54;NaN;;0.0;34.114426;;10 / 17;2007;2022-10-26 21:29:24:467
-3.6966;-0.1412;8.7841;-1.9217;0.7943;9.5837;0.9234;1.8295;0.7324;-0.7174;1.0223;0.4561;147.0;-38.57;-31.13;-32.96;123.13;-8.79;0.53;5.0;986.62;51.312;35.958252;-83.924545;769.97;NaN;;0.0;15.721084;;10 / 17;2506;2022-10-26 21:29:24:966
-2.5196;0.51;5.7159;-0.6948;0.4795;9.7703;-1.4277;-1.4403;-0.1816;-0.0485;-1.9326;-0.2446;37.0;-48.97;-4.2;-44.68;92.51;-2.54;12.68;5.0;986.62;54.403;35.958252;-83.924545;769.97;NaN;;0.0;15.721084;;10 / 17;3006;2022-10-26 21:29:25:466
-2.0267;2.2265;7.4527;-3.4283;2.238;8.9111;-0.8691;-0.8548;-1.6468;-1.0676;0.9806;2.471;25.0;-44.08;2.42;-44.64;82.11;-13.19;21.04;5.0;986.65;65.382;35.958256;-83.92453;768.06;NaN;;0.0;14.411657;;12 / 17;3507;2022-10-26 21:29:25:967
-7.8526;4.9929;5.8881;-6.534;5.1177;5.2236;-1.2659;0.566;0.2434;0.0531;-0.1073;-0.1225;19.0;-4.44;4.97;-58.82;64.74;-31.62;49.99;5.0;986.66;47.497;35.958256;-83.92453;768.06;NaN;;0.0;14.411657;;12 / 17;4006;2022-10-26 21:29:26:466
-10.5891;2.8621;6.3909;-8.6894;3.8422;2.4292;1.1298;-0.0751;-0.708;-1.3152;-0.6971;-1.3301;9.0;17.44;-1.39;-47.96;75.78;-23.07;74.38;5.0;986.69;49.532;35.958256;-83.92453;768.06;NaN;;0.0;14.411657;;14 / 17;4506;2022-10-26 21:29:26:966
-10.0445;1.4701;4.0675;-8.9217;0.1734;4.0674;-4.3223;-2.0433;-2.7291;-0.6401;0.1574;-0.5563;8.0;20.93;2.89;-32.78;80.47;-1.01;65.49;5.0;986.74;63.283;35.958256;-83.92453;768.06;NaN;;0.0;14.411657;;14 / 17;5006;2022-10-26 21:29:27:466
-9.7164;2.2947;2.4634;-9.4635;-0.6416;2.4901;-0.9416;1.0495;1.2746;-0.503;0.0128;0.3525;11.0;22.44;1.07;-19.95;92.25;3.48;77.12;5.0;986.75;48.371;35.958256;-83.92453;768.06;NaN;;0.0;14.411657;;14 / 17;5506;2022-10-26 21:29:27:966
-10.8619;5.8379;4.1106;-8.9227;1.7147;3.6899;0.4828;-3.4008;-2.528;0.6771;-1.1761;-0.5874;17.0;29.68;3.58;-12.9;22.27;-10.39;73.61;5.0;986.77;49.417;35.958256;-83.92453;768.06;NaN;;0.0;14.411657;;14 / 17;6006;2022-10-26 21:29:28:466
-9.6936;1.1252;5.1736;-7.0085;3.0861;6.126;0.2102;-1.8623;-2.2584;0.2814;0.5498;0.0677;19.0;40.39;7.54;-24.56;336.72;-13.93;48.04;5.0;986.79;50.332;35.958256;-83.92453;768.06;NaN;;0.0;14.411657;;14 / 17;6506;2022-10-26 21:29:28:966
-2.0483;2.473;5.3438;-4.1357;1.6927;8.7293;-3.5042;1.0024;2.7623;1.0111;-1.704;-1.0514;23.0;18.51;11.94;-57.26;18.11;-9.94;25.35;5.0;986.83;45.69;35.958256;-83.92453;768.06;NaN;;0.0;14.411657;;14 / 17;7006;2022-10-26 21:29:29:466
-9.0174;1.8888;9.5465;-5.0607;1.4485;8.2742;-0.1165;1.6596;-3.3169;-1.1091;2.0596;1.1166;102.0;-5.98;4.11;-54.22;72.81;-8.49;31.45;5.0;986.83;47.167;35.958256;-83.92453;768.06;NaN;;0.0;14.411657;;14 / 17;7507;2022-10-26 21:29:29:967
-8.3842;-5.5376;3.3888;-7.3919;-3.483;5.4221;-1.32;-2.3605;-0.0966;-0.3124;-0.554;0.3565;133.0;16.63;26.1;-30.77;55.32;23.73;55.8;5.0;986.86;51.144;35.958256;-83.92453;768.06;NaN;;0.0;14.411657;;14 / 17;8006;2022-10-26 21:29:30:466
-12.8815;-10.4216;1.5347;-8.5769;-4.5445;-1.3981;-2.5347;-5.2866;-1.05;-2.315;3.8025;0.5565;73.0;29.29;25.84;-10.74;335.15;27.42;61.57;5.0;986.9;44.771;35.958256;-83.92453;768.06;NaN;;0.0;14.411657;;14 / 17;8506;2022-10-26 21:29:30:966
-14.0737;-5.6836;-0.693;-8.13;-5.4487;-0.6212;-6.1826;-0.5402;-0.1719;1.3027;-0.9714;1.528;12.0;20.04;23.42;16.59;274.89;41.38;113.52;5.0;986.87;44.144;35.958256;-83.92453;768.06;NaN;;0.0;14.411657;;14 / 17;9006;2022-10-26 21:29:31:466
-8.7386;-6.938;-2.8597;-9.7904;0.1831;0.5338;4.7732;-4.1749;-2.9558;-1.0006;0.8051;-0.2314;6.0;25.91;5.89;11.14;297.57;-1.07;86.88;5.0;986.86;42.23;35.958256;-83.92453;768.06;NaN;;0.0;14.411657;;14 / 17;9506;2022-10-26 21:29:31:966
-11.1386;-3.6679;1.9223;-7.6345;-6.0817;-0.9481;-3.8935;1.0263;1.394;-0.5278;-0.181;-0.6015;4.0;25.2;-0.39;13.16;214.1;35.26;96.13;5.0;986.89;53.748;35.958256;-83.92453;768.06;NaN;;0.0;14.411657;;14 / 17;10006;2022-10-26 21:29:32:466
-10.0397;-6.2725;-0.8847;-9.3979;-2.721;0.6676;2.5047;-2.2854;-1.0477;-0.2514;-0.253;-0.6315;1.0;23.14;5.49;15.96;265.94;16.11;85.94;5.0;986.86;42.398;35.958256;-83.92453;768.06;NaN;;0.0;14.411657;;12 / 17;10506;2022-10-26 21:29:32:966
-10.1928;-4.2604;0.2261;-7.3211;-6.4905;-0.6679;-2.8215;2.5679;0.1765;-0.0224;0.4077;-0.3638;1.0;16.46;12.77;14.98;262.81;41.44;95.21;5.0;986.86;43.796;35.958256;-83.92453;768.06;NaN;;0.0;14.411657;;12 / 17;11006;2022-10-26 21:29:33:466
-4.6732;-5.4048;-2.3079;-9.7647;-0.621;0.6596;1.9403;-5.5038;-3.4769;-3.132;-0.2482;0.9655;3.0;19.46;14.94;9.56;315.42;10.94;86.72;5.0;986.9;41.505;35.958256;-83.92453;768.06;NaN;;0.0;14.411657;;12 / 17;11506;2022-10-26 21:29:33:966
-13.6211;-7.1166;0.3233;-6.7701;-7.0239;-1.0;-5.2464;4.9635;2.9521;0.1081;0.7245;-0.35;3.0;18.75;13.29;7.03;238.74;42.25;93.95;5.0;986.91;46.832;35.958256;-83.92453;768.06;NaN;;0.0;14.411657;;12 / 17;12006;2022-10-26 21:29:34:466
-11.2642;-2.2481;2.0877;-9.3357;-2.5686;1.5546;0.7284;-2.8345;-0.7555;-0.1724;0.4665;-1.1865;5.0;12.04;9.32;-0.96;348.47;9.11;78.44;5.0;986.91;57.685;35.958256;-83.92453;768.06;NaN;;0.0;14.411657;;8 / 17;12507;2022-10-26 21:29:34:967
-7.156;-2.8167;-0.6488;-9.2679;-3.0998;-0.8176;-1.3162;-3.1552;-1.3043;-0.6889;0.1785;0.0814;5.0;11.61;-16.99;22.41;225.47;18.43;95.04;5.0;986.97;52.009;35.958256;-83.92453;768.06;NaN;;0.0;14.411657;;8 / 17;13007;2022-10-26 21:29:35:467
-10.3846;-4.1046;1.0451;-8.6121;-4.6865;-0.1964;0.5054;4.3475;0.0406;1.7545;0.3556;0.5957;3.0;8.01;-0.41;40.76;264.03;28.55;91.31;5.0;986.97;49.122;35.958256;-83.92453;768.06;NaN;;0.0;14.411657;;8 / 17;13506;2022-10-26 21:29:35:966
-13.1758;0.4023;0.3915;-9.5545;1.5461;1.5786;-2.8645;-2.0666;-0.7108;0.3949;-1.2709;0.8888;3.0;-0.92;19.33;18.24;316.46;-2.8;88.56;5.0;987.01;47.939;35.958256;-83.92453;768.06;NaN;;0.0;14.411657;;8 / 17;14006;2022-10-26 21:29:36:466
-5.2573;4.745;2.2421;-6.4668;4.8709;5.534;0.8883;-1.1393;-1.953;-0.1872;-0.0367;0.6425;4.0;8.85;-5.34;-18.69;70.76;-27.12;56.28;5.0;987.01;52.472;35.958256;-83.92453;768.06;NaN;;0.0;14.411657;;8 / 17;14506;2022-10-26 21:29:36:966
-8.3602;7.1524;4.6205;-6.9611;4.5374;5.2083;0.8431;1.0528;-1.1448;-1.2754;0.3754;0.2876;4.0;5.1;-35.7;-4.41;178.99;-29.52;55.78;5.0;987.03;58.886;35.958256;-83.92453;768.06;NaN;;0.0;14.411657;;8 / 17;15006;2022-10-26 21:29:37:466
-7.2757;5.7876;3.2991;-6.3492;5.2818;5.2878;-0.7535;-0.6397;0.1388;-0.4532;0.3404;1.2513;21.0;16.95;-31.33;-15.9;174.05;-32.59;50.21;5.0;987.03;48.382;35.958256;-83.92453;768.06;NaN;;0.0;14.411657;;4 / 17;15505;2022-10-26 21:29:37:965
-0.4358;3.8055;9.4735;-0.6106;3.5114;9.1361;0.487;0.7833;-2.18;-0.1675;-0.1811;0.4942;28.0;1.82;-27.99;-30.15;176.57;-19.83;5.66;5.0;987.03;42.469;35.958256;-83.92453;768.06;NaN;;0.0;14.411657;;4 / 17;16006;2022-10-26 21:29:38:466
-3.6233;3.9299;7.2709;-1.8011;4.7023;8.4151;-0.1805;-0.713;-1.0816;-0.0815;1.3207;-5.0E-4;25.0;-22.84;-27.88;-34.11;110.28;-28.65;12.08;5.0;987.0;41.34;35.958256;-83.92453;768.06;NaN;;0.0;14.411657;;4 / 17;16506;2022-10-26 21:29:38:966
-3.8653;1.986;7.9101;-5.0868;2.3767;8.0402;1.4972;-0.8393;-0.728;-1.1095;0.357;1.0339;29.0;-8.1;-17.53;-47.81;104.97;-14.03;32.32;5.0;987.01;45.003;35.958256;-83.92453;768.06;NaN;;0.0;14.411657;;4 / 17;17006;2022-10-26 21:29:39:466
-3.8533;1.2915;4.4602;-5.4495;3.6427;7.2941;1.1247;-2.8543;-1.9826;0.768;1.1918;0.1063;3.0;6.96;-3.19;-46.07;62.77;-15.84;30.48;5.0;987.04;42.458;35.958256;-83.92453;768.06;NaN;;0.0;14.411657;;4 / 17;17506;2022-10-26 21:29:39:966
-6.719;2.9602;5.4371;-7.4233;2.6838;5.8191;-0.2557;-0.6051;1.6105;-0.6125;0.5557;0.2455;2.0;24.43;-8.01;-37.14;64.77;-18.21;48.78;5.0;987.01;37.225;35.958256;-83.92453;768.06;NaN;;0.0;14.411657;;4 / 17;18006;2022-10-26 21:29:40:466
-7.7354;0.425;7.6768;-6.4046;2.8649;6.8516;3.3254;-1.5276;-1.0769;1.2795;0.0791;-0.9024;3.0;34.95;-3.56;-27.3;296.17;-12.47;38.11;5.0;987.06;38.401;35.958256;-83.92453;768.06;NaN;;0.0;14.411657;;7 / 17;18506;2022-10-26 21:29:40:966
-15.2874;-7.9376;3.6437;-9.5639;-2.0596;0.679;1.2766;-1.072;1.3736;-0.7751;0.3887;-2.4812;3.0;35.34;-2.14;0.69;200.55;12.12;85.94;5.0;987.11;44.306;35.958256;-83.92453;768.06;NaN;;0.0;14.411657;;7 / 17;19006;2022-10-26 21:29:41:466
-7.0998;-3.7265;-2.3031;-9.6387;0.3159;-1.7792;-6.2509;-8.9978;-0.3247;-1.4392;-1.024;3.0694;3.0;21.53;11.08;19.48;308.78;-1.85;100.46;5.0;987.11;49.349;35.958256;-83.92453;768.06;NaN;;0.0;14.411657;;8 / 17;19506;2022-10-26 21:29:41:966
-8.6222;2.971;-0.6703;-9.7998;0.1782;-0.3211;2.0792;3.077;-1.4514;0.0149;-0.1035;-0.3845;3.0;29.49;4.28;13.35;296.64;-3.25;93.29;5.0;987.12;47.536;35.958256;-83.92453;768.06;NaN;;0.0;14.411657;;8 / 17;20005;2022-10-26 21:29:42:465
-7.1417;-4.6038;-0.6834;-9.7466;-0.8152;-0.7138;1.1278;-0.007;-1.3318;-0.6114;0.6851;0.036;3.0;28.59;11.59;-1.8;12.35;4.46;90.25;5.0;987.16;50.97;35.958256;-83.92453;768.06;NaN;;0.0;14.411657;;8 / 17;20507;2022-10-26 21:29:42:967
-7.2697;-4.4363;3.2357;-9.3755;-2.8751;-0.0587;-0.166;-6.3582;2.5572;1.0171;-0.6119;-0.1486;4.0;16.97;23.16;-5.64;25.71;20.42;95.61;5.0;987.2;49.782;35.958256;-83.92453;768.06;NaN;;0.0;14.411657;;8 / 17;21007;2022-10-26 21:29:43:467
-8.7326;-0.498;0.6236;-8.7179;-4.4906;0.0607;-1.3131;2.2008;-1.2681;0.1707;-0.026;-0.6037;3.0;11.19;27.62;-10.24;26.59;27.25;89.6;5.0;987.24;57.75;35.958256;-83.92453;768.06;NaN;;0.0;14.411657;;7 / 17;21506;2022-10-26 21:29:43:966
-8.875;-5.2083;0.8764;-9.7335;-1.0084;0.6418;3.8751;-3.5077;-0.4423;0.0975;-0.4221;-1.0768;3.0;15.75;30.23;-17.94;30.16;0.93;87.46;5.0;987.23;48.77;35.958256;-83.92453;768.06;NaN;;0.0;14.411657;;7 / 17;22006;2022-10-26 21:29:44:466
-12.9197;-6.5264;3.0607;-8.8986;-4.0121;-0.9423;-4.3049;4.4853;2.5185;1.2732;-1.4489;3.345;4.0;11.49;39.13;-25.44;38.95;24.15;96.04;5.0;987.26;53.502;35.958256;-83.92453;768.06;NaN;;0.0;14.411657;;7 / 17;22507;2022-10-26 21:29:44:967
-8.2119;-3.5492;1.1791;-9.0437;-2.241;3.0594;-1.2221;-0.9123;-2.5947;-4.237;0.3212;-1.3625;4.0;30.71;21.34;-21.79;41.97;13.21;71.31;5.0;987.27;64.49;35.958256;-83.92453;768.06;NaN;;0.0;14.411657;;7 / 17;23006;2022-10-26 21:29:45:466
-5.9554;-3.9622;0.3413;-8.5911;-3.4509;3.2332;1.3956;-1.2821;-1.1955;3.5329;0.9538;0.8125;8.0;15.62;37.22;9.94;330.04;34.02;76.8;5.0;987.25;44.386;35.958256;-83.92453;768.06;NaN;;0.0;14.411657;;7 / 17;23507;2022-10-26 21:29:45:967
-14.5143;-3.3075;2.1416;-8.4987;-3.9155;-2.9344;-3.6326;1.3996;3.0004;-1.3014;1.5319;-0.1452;6.0;25.28;31.33;10.01;333.55;23.84;92.27;5.0;987.29;36.646;35.958256;-83.92453;768.06;NaN;;0.0;14.411657;;7 / 17;24006;2022-10-26 21:29:46:466
-13.8715;-3.5432;-4.8864;-9.7955;-0.4264;-0.1927;-3.0333;-3.7531;-3.5635;-1.2514;-0.2795;-0.7585;2.0;32.61;20.25;19.28;318.59;-2.83;89.91;5.0;987.3;44.844;35.958256;-83.92453;768.06;NaN;;0.0;14.411657;;4 / 17;24505;2022-10-26 21:29:46:965
-17.0686;-5.4275;1.8517;-9.7717;-0.3558;-0.7474;2.5946;-2.0604;0.4508;-3.4135;-1.0077;-2.7542;2.0;43.39;7.48;13.84;296.83;2.08;94.37;5.0;987.33;43.454;35.958256;-83.92453;768.06;NaN;;0.0;14.411657;;4 / 17;25005;2022-10-26 21:29:47:465
-11.8831;-6.9033;0.3114;-8.8323;-4.2606;0.0877;-3.1691;-0.2817;0.9865;-0.0241;-1.2915;1.7567;0.0;36.21;16.46;17.14;266.19;25.75;89.43;5.0;987.32;45.146;35.958256;-83.92453;768.06;NaN;;0.0;14.411657;;4 / 17;25506;2022-10-26 21:29:47:966
-15.1223;-7.2637;0.7373;-8.8576;-4.1949;-0.3415;-3.2148;-2.9448;0.807;-2.9712;-0.5694;-2.1645;0.0;42.47;-3.41;9.96;237.95;6.08;87.54;5.0;987.32;43.588;35.958256;-83.92453;768.06;NaN;;0.0;14.411657;;4 / 17;26006;2022-10-26 21:29:48:466
-13.6762;-4.721;0.37;-8.0711;-5.5432;-0.5485;-3.4728;3.3396;1.4077;0.9621;-0.212;0.5928;1.0;46.24;3.47;2.29;163.54;37.17;101.74;5.0;987.33;42.277;35.958256;-83.92453;768.06;NaN;;0.0;14.411657;;4 / 17;26506;2022-10-26 21:29:48:966
-2.5283;-2.1846;0.1328;-9.7176;1.2161;0.5099;5.8909;-3.7484;-0.8382;0.2208;0.4377;-0.0037;1.0;44.23;-11.29;0.69;232.85;-7.68;82.53;5.0;987.35;46.146;35.958256;-83.92453;768.06;NaN;;0.0;14.411657;;4 / 17;27006;2022-10-26 21:29:49:466
-8.2597;-2.2528;0.4932;-6.7527;-7.0986;-0.4254;-4.2042;4.3851;1.381;1.5165;1.7563;-1.3307;0.0;40.93;-3.0;7.58;189.57;46.37;93.6;5.0;987.37;44.084;35.958256;-83.92453;768.06;NaN;;0.0;14.411657;;4 / 17;27507;2022-10-26 21:29:49:967
-7.666;-8.3782;0.6464;-5.8565;-7.8302;0.7478;1.9878;1.769;-0.0495;-1.4097;-2.2478;0.046;0.0;32.83;14.89;16.95;228.66;53.43;86.52;5.0;987.38;47.945;35.958256;-83.92453;768.06;NaN;;0.0;14.411657;;4 / 17;28006;2022-10-26 21:29:50:466
-5.4347;-7.6899;1.0044;-7.6718;-6.1066;-0.1521;1.9959;-0.43;0.4855;-1.8647;-1.6571;0.6107;0.0;33.39;12.68;5.98;207.09;38.51;91.14;5.0;987.42;45.134;35.958256;-83.92453;768.06;NaN;;0.0;14.411657;;4 / 16;28506;2022-10-26 21:29:50:966
-5.8594;-4.398;-1.5383;-7.0826;-6.7279;0.8615;-3.6678;1.5065;-0.875;1.0546;-0.1443;0.4842;0.0;31.95;14.36;6.56;224.44;43.32;83.06;5.0;987.45;49.003;35.958256;-83.92453;768.06;NaN;;0.0;14.411657;;4 / 16;29006;2022-10-26 21:29:51:466
-6.099;-6.044;0.9745;-7.6804;-5.6845;-2.2066;2.2425;0.3386;2.8051;-0.2231;-0.1658;-0.9741;1.0;31.39;15.11;16.22;241.78;29.63;105.46;5.0;987.49;49.706;35.958256;-83.92453;768.06;NaN;;0.0;14.411657;;4 / 12;29507;2022-10-26 21:29:51:967
-2.8059;-5.8367;0.0921;-7.8726;-5.4182;-2.1988;-3.5096;-2.82;-2.2394;-0.5621;1.57;1.1233;1.0;34.95;14.68;14.06;213.72;42.09;98.06;5.0;987.5;51.293;35.958256;-83.92453;768.06;NaN;;0.0;14.411657;;4 / 12;30006;2022-10-26 21:29:52:466
-10.9831;0.9003;-0.1842;-5.7333;-7.6483;-2.1915;-3.9142;4.5125;-1.0689;-0.8754;-0.704;-1.7808;1.0;37.5;13.09;3.0;148.59;40.03;107.42;5.0;987.52;54.598;35.958256;-83.92453;768.06;NaN;;0.0;14.411657;;6 / 17;30506;2022-10-26 21:29:52:966
-7.314;1.5012;-8.9862;-9.3578;2.8901;0.4992;3.4736;-8.5903;-3.5297;2.1587;2.5888;2.2401;1.0;36.49;10.74;-7.5;15.96;-17.14;86.95;5.0;987.5;66.327;35.958256;-83.92453;768.06;NaN;;0.0;14.411657;;6 / 17;31006;2022-10-26 21:29:53:466
-1.7943;5.3773;6.7525;-2.7131;5.0108;7.9813;0.5167;-0.3299;-2.3209;0.3111;-0.1175;0.7915;16.0;21.54;-43.91;-34.48;209.11;-30.73;18.77;5.0;987.5;49.934;35.958256;-83.92453;768.06;NaN;;0.0;14.411657;;6 / 17;31506;2022-10-26 21:29:53:966
-4.5835;-0.9936;3.4152;-4.0166;-2.0707;8.7034;0.3383;2.0588;-4.7061;-3.4373;1.8484;1.5838;35.0;-20.01;-43.09;-58.14;142.38;-6.51;8.3;5.0;987.51;42.888;35.958256;-83.92453;768.06;NaN;;0.0;14.411657;;6 / 17;32006;2022-10-26 21:29:54:466
-4.2162;-3.2501;6.8124;-5.8519;-3.3424;7.1242;1.6167;1.2698;-1.8769;-1.2105;-0.4569;1.094;11.0;-4.35;8.64;-62.68;97.29;18.12;40.26;5.0;987.52;44.549;35.958256;-83.92453;768.06;NaN;;0.0;14.411657;;6 / 17;32506;2022-10-26 21:29:54:966
-7.9352;-4.5452;3.5228;-6.2132;-2.2558;7.2441;0.5694;-0.3555;-5.1343;-0.679;-0.0513;0.905;4.0;3.96;21.32;-51.71;72.92;15.12;38.75;5.0;987.51;45.186;35.958256;-83.92453;768.06;NaN;;0.0;14.411657;;6 / 17;33006;2022-10-26 21:29:55:466
-5.6764;-1.6412;6.0655;-7.4284;-3.831;5.1296;1.3983;0.5774;1.1714;-0.7106;-0.0442;0.2928;6.0;15.08;27.62;-40.73;64.82;23.0;55.37;5.0;987.54;46.211;35.958256;-83.92453;768.06;NaN;;0.0;14.411657;;7 / 17;33506;2022-10-26 21:29:55:966
-9.1789;-5.857;1.5849;-8.9297;-4.0527;0.0783;0.3605;-2.2009;1.4825;-0.6935;2.5529;-1.2658;9.0;20.04;25.97;-31.29;50.63;13.19;70.96;5.0;987.54;50.388;35.958256;-83.92453;768.06;NaN;;0.0;14.411657;;7 / 17;34006;2022-10-26 21:29:56:466
-9.6541;-7.1919;0.0179;-8.9637;-3.9394;0.5509;0.3614;2.3392;-1.201;0.9576;-0.0026;1.291;7.0;24.64;20.59;-7.09;31.12;23.69;86.48;5.0;987.59;50.872;35.958256;-83.92453;768.06;NaN;;0.0;14.411657;;7 / 17;34506;2022-10-26 21:29:56:966
-13.2861;-5.237;0.146;-9.4283;-2.6917;-0.1778;2.642;-0.3076;-0.1995;-0.999;0.1755;-0.9952;4.0;29.51;11.53;-12.86;76.03;15.93;91.08;5.0;987.62;51.837;35.958256;-83.92453;768.06;NaN;;0.0;14.411657;;7 / 17;35006;2022-10-26 21:29:57:466
-5.6321;-8.0513;0.4825;-9.0021;-3.8518;0.5441;2.082;-3.9292;0.104;0.1526;-0.5578;-0.204;3.0;24.94;21.28;-9.41;45.94;23.19;92.12;5.0;987.64;53.5;35.958256;-83.92453;768.06;NaN;;0.0;14.411657;;7 / 16;35506;2022-10-26 21:29:57:966
-10.4575;-6.6784;-0.6404;-8.7122;-4.4772;-0.4722;-2.6394;0.834;-1.2984;0.5701;1.2321;0.2082;2.0;26.93;25.63;-15.54;60.06;29.7;89.93;5.0;987.67;52.126;35.958256;-83.92453;768.06;NaN;;0.0;14.411657;;7 / 16;36006;2022-10-26 21:29:58:466
-14.3623;-4.2221;-1.3597;-8.4043;-4.9737;-0.8944;0.4716;0.046;1.4189;0.5868;0.4964;-1.7879;2.0;32.96;25.74;-23.23;59.75;18.72;93.19;5.0;987.69;54.505;35.958256;-83.92453;768.06;NaN;;0.0;14.411657;;5 / 16;36507;2022-10-26 21:29:58:967
-4.9857;-4.4518;-0.3413;-9.1955;-3.4043;-0.1573;-2.7851;-5.7432;1.363;0.5356;0.3088;0.627;2.0;36.66;28.61;-24.6;60.5;20.31;90.98;5.0;987.71;54.511;35.958256;-83.92453;768.06;NaN;;0.0;14.411657;;5 / 16;37006;2022-10-26 21:29:59:466
-9.2761;-3.6341;-1.8386;-6.5096;-7.3323;0.1793;-4.464;3.6173;-1.4993;1.0571;0.4157;-1.1748;3.0;38.59;20.34;-26.14;123.36;48.39;88.42;5.0;987.74;54.297;35.958256;-83.92453;768.06;NaN;;0.0;14.411657;;5 / 17;37507;2022-10-26 21:29:59:967
-5.1449;-9.0915;-3.7146;-9.0104;0.8959;3.7657;3.5909;-10.0161;-4.0758;1.5415;0.6196;2.0873;0.0;26.68;22.67;-25.39;41.28;13.0;67.67;5.0;987.74;55.873;35.958256;-83.92453;768.06;NaN;;0.0;14.411657;;5 / 17;38006;2022-10-26 21:30:00:466
-10.4181;-5.7398;4.7533;-6.7341;-5.8807;-4.03;-0.6402;-5.1813;8.0522;-5.3056;-1.0359;-2.6909;3.0;2.83;19.65;-28.03;57.56;30.1;98.46;5.0;987.78;54.648;35.958256;-83.92453;768.06;NaN;;0.0;14.411657;;5 / 17;38506;2022-10-26 21:30:00:966
-3.699;-9.4484;-2.624;-9.6948;1.0053;1.0818;4.5205;-12.2773;-3.7603;0.9978;-1.0704;2.4497;2.0;-9.51;28.46;9.19;343.01;13.38;90.16;5.0;987.72;56.889;35.958256;-83.92453;768.06;NaN;;0.0;14.411657;;5 / 17;39007;2022-10-26 21:30:01:467
-11.6139;-13.6199;3.3721;-7.2934;-6.4807;-0.9889;-1.2263;-2.5541;4.2501;-2.304;-0.5182;-2.1871;2.0;-0.94;27.62;11.93;329.73;41.36;97.72;5.0;987.75;49.213;35.958256;-83.92453;768.06;NaN;;0.0;14.411657;;3 / 17;39506;2022-10-26 21:30:01:966
-7.9137;-14.7296;0.0538;-8.5907;-4.2225;2.1309;-7.079;-15.3992;-1.6048;0.3577;-3.858;5.7536;0.0;-18.54;1.26;21.38;303.57;71.38;97.69;5.0;987.76;55.701;35.958256;-83.92453;768.06;NaN;;0.0;14.411657;;3 / 17;40006;2022-10-26 21:30:02:466
-9.064;2.8167;3.1053;-9.5674;-0.4322;2.109;-2.6086;-3.2194;-0.0094;-1.2689;0.1223;-0.9191;0.0;-4.43;0.99;7.01;281.7;2.53;77.57;5.0;987.79;58.064;35.958256;-83.92453;768.06;NaN;;0.0;14.411657;;3 / 17;40506;2022-10-26 21:30:02:966
-7.2829;-2.7772;-1.0582;-9.4646;-1.4104;2.1455;-1.1976;-3.8934;1.2675;1.9233;0.0071;-0.056;0.0;-1.33;-6.92;-1.09;170.05;8.27;77.23;5.0;987.8;60.402;35.958256;-83.92453;768.06;NaN;;0.0;14.411657;;3 / 17;41006;2022-10-26 21:30:03:466
-9.7199;-4.1883;1.197;-8.3327;-5.1595;-0.3395;-3.0575;0.0624;3.4645;0.5292;0.1227;0.0336;0.0;6.92;-9.71;-7.39;146.65;29.9;96.36;5.0;987.8;58.474;35.958256;-83.92453;768.06;NaN;;0.0;14.411657;;3 / 17;41506;2022-10-26 21:30:03:966
-11.5421;-6.422;-0.1783;-8.5195;-4.833;0.4798;-2.5084;0.4113;-1.6883;-0.6341;-0.2861;0.5028;1.0;9.56;-2.89;-13.18;123.58;32.47;86.95;5.0;987.82;49.918;35.958256;-83.92453;768.06;NaN;;0.0;14.411657;;3 / 17;42006;2022-10-26 21:30:04:466
-10.4611;-3.256;-0.7146;-8.582;-4.7355;0.3082;-3.2047;-0.9936;3.0294;0.7195;-0.4339;-1.0707;1.0;11.66;-1.52;-11.46;116.4;19.1;92.14;5.0;987.86;49.947;35.958256;-83.92453;768.06;NaN;;0.0;14.411657;;4 / 17;42507;2022-10-26 21:30:04:967
-4.7776;-4.9271;1.3657;-9.3499;-2.9226;0.4568;-3.7304;-5.0331;-0.1163;0.7378;0.3405;0.3806;1.0;10.65;5.18;-6.64;101.9;28.01;82.25;5.0;987.9;54.373;35.958256;-83.92453;768.06;NaN;;0.0;14.411657;;4 / 17;43006;2022-10-26 21:30:05:466
-7.9615;-3.8533;-0.303;-8.6514;-4.5998;-0.4056;1.9923;2.0519;-1.703;-0.1526;-0.3357;-1.0014;2.0;18.56;6.15;4.09;220.08;27.97;92.68;5.0;987.9;54.737;35.958256;-83.92453;768.06;NaN;;0.0;14.411657;;3 / 17;43506;2022-10-26 21:30:05:966
-9.6864;-11.0321;2.8992;-8.4808;-4.7158;-1.417;-0.0983;-5.7215;2.8826;-2.5313;-2.8059;-2.0857;2.0;22.13;11.27;2.08;68.19;23.24;105.1;5.0;987.92;53.861;35.958256;-83.92453;768.06;NaN;;0.0;14.411657;;3 / 17;44006;2022-10-26 21:30:06:466
-3.2309;-7.7569;-0.1196;-7.9745;-5.4163;-1.8004;-6.4165;-4.3507;0.843;0.2769;0.7261;1.737;2.0;23.51;12.39;-3.02;107.32;33.53;102.72;5.0;987.95;52.259;35.958256;-83.92453;768.06;NaN;;0.0;14.411657;;4 / 17;44507;2022-10-26 21:30:06:967
-7.9603;-1.9836;-2.5041;-7.0181;-6.8432;-0.295;0.0939;4.3373;-3.3004;-0.8338;-0.8911;-0.9316;2.0;19.41;8.49;-4.91;132.02;37.52;92.04;5.0;987.99;49.348;35.958256;-83.92453;768.06;NaN;;0.0;14.411657;;4 / 17;45006;2022-10-26 21:30:07:466
-7.678;-7.4252;2.3438;-7.8147;-5.7852;-1.2775;5.4175;0.4831;1.141;-0.6538;0.4304;-1.2647;3.0;11.89;14.31;-0.15;24.15;36.15;99.28;5.0;988.01;47.549;35.958256;-83.92453;768.06;NaN;;0.0;14.411657;;4 / 17;45506;2022-10-26 21:30:07:966
-6.8901;-4.5093;-0.1735;-6.1571;-7.6131;0.5499;0.4692;4.6682;-0.8214;0.8573;0.7796;-0.3334;3.0;-2.14;27.68;-3.99;11.99;49.47;85.73;5.0;988.02;53.582;35.958256;-83.92453;768.06;NaN;;0.0;14.411657;;4 / 17;46006;2022-10-26 21:30:08:466
-1.1527;-5.0982;-1.2257;-9.3315;-0.9178;2.8726;3.5451;-6.1242;-2.4012;-1.1722;-0.0226;1.177;3.0;19.13;9.94;-45.32;79.38;5.37;72.89;5.0;987.99;55.288;35.958256;-83.92453;768.06;NaN;;0.0;14.411657;;4 / 17;46506;2022-10-26 21:30:08:966
-8.2047;-6.0691;2.4455;-4.1105;-8.9019;-0.1745;-3.7356;1.0688;3.4077;-1.4463;-1.1989;-2.0883;6.0;16.84;12.88;-48.04;100.37;48.37;83.02;5.0;988.04;50.309;35.958256;-83.92453;768.06;NaN;;0.0;14.411657;;4 / 17;47006;2022-10-26 21:30:09:466
-6.5192;-7.436;-0.3221;-9.5476;-0.7596;2.1065;3.4658;-7.3994;-1.8278;1.0062;-0.2691;2.365;1.0;-5.29;45.23;-17.76;23.95;24.11;80.23;5.0;987.98;57.207;35.958256;-83.92453;768.06;NaN;;0.0;14.411657;;3 / 17;47506;2022-10-26 21:30:09:966
-8.8271;-0.6153;2.2457;-9.1081;-3.5995;0.5058;-3.7632;0.8428;1.8575;-1.2618;-0.1724;-0.14;1.0;24.83;32.44;0.26;356.15;21.53;86.82;5.0;988.01;50.266;35.958256;-83.92453;768.06;NaN;;0.0;14.411657;;3 / 17;48006;2022-10-26 21:30:10:466
-6.9823;-2.1739;-0.1591;-9.2617;-2.9344;1.3345;2.5652;-0.9305;-0.155;0.152;-0.2353;0.0222;2.0;20.46;24.51;15.81;314.89;17.41;81.8;5.0;988.02;52.718;35.958256;-83.92453;768.06;NaN;;0.0;14.411657;;2 / 16;48506;2022-10-26 21:30:10:966
-8.5588;-4.1261;-0.5794;-8.8695;-4.182;-0.1168;-1.0746;-2.081;1.7792;0.9855;0.91;-0.9423;3.0;20.14;14.21;20.08;281.52;25.24;90.75;5.0;988.01;45.341;35.958256;-83.92453;768.06;NaN;;0.0;14.411657;;2 / 16;49006;2022-10-26 21:30:11:466
-6.0129;-3.3218;-0.2261;-8.8347;-4.2354;0.424;1.5381;-2.2884;0.0639;-1.0036;-0.716;0.6961;3.0;19.29;11.98;19.59;278.28;25.59;87.25;5.0;988.08;48.197;35.958256;-83.92453;768.06;NaN;;0.0;14.411657;;3 / 17;49506;2022-10-26 21:30:11:966
-7.654;-4.8159;1.4629;-7.8499;-5.8761;-0.1445;-5.2918;-3.4082;0.8139;-0.8627;0.3303;-0.3522;3.0;24.98;15.17;14.64;272.66;32.05;80.88;5.0;988.13;50.245;35.958256;-83.92453;768.06;NaN;;0.0;14.411657;;3 / 17;50006;2022-10-26 21:30:12:466
-6.8231;-2.2241;-0.2046;-7.9896;-5.6595;0.554;-0.6167;1.564;-3.1984;0.4595;0.0327;-0.0742;5.0;26.59;29.98;13.03;302.56;35.25;86.03;5.0;988.13;50.536;35.958256;-83.92453;768.06;NaN;;0.0;14.411657;;2 / 17;50506;2022-10-26 21:30:12:966
-12.8886;-2.6743;-1.2592;-8.1332;-5.4754;0.2034;0.1987;-3.2027;1.0359;0.8461;0.33;-1.7428;5.0;32.23;36.51;3.43;351.91;25.55;90.39;5.0;988.16;52.056;35.958256;-83.92453;768.06;NaN;;0.0;14.411657;;2 / 17;51006;2022-10-26 21:30:13:466
-8.2167;-3.7744;-1.6208;-8.8021;-4.1631;-1.1666;-3.0803;-4.3811;-1.1416;-2.6047;-0.9796;0.7861;3.0;34.76;34.16;-9.26;39.24;25.12;97.55;5.0;988.2;50.753;35.958256;-83.92453;768.06;NaN;;0.0;14.411657;;1 / 17;51507;2022-10-26 21:30:13:967
-9.8495;-2.4359;-2.3737;-7.7056;-6.0569;0.3293;-0.191;4.1031;-1.4788;1.3037;-0.1045;-0.2753;2.0;32.19;34.63;-9.6;50.66;36.36;93.73;5.0;988.21;45.479;35.958256;-83.92453;768.06;NaN;;0.0;14.411657;;1 / 17;52006;2022-10-26 21:30:14:466
-8.0704;-9.3933;2.9064;-9.1361;-3.5543;-0.2636;3.3061;-0.6026;-0.1668;-1.1075;-0.698;-1.4001;4.0;31.46;33.13;-16.18;40.61;21.25;91.65;5.0;988.25;50.692;35.958256;-83.92453;768.06;NaN;;0.0;14.411657;;1 / 17;52507;2022-10-26 21:30:14:967
-15.6826;-8.645;-0.1388;-5.5331;-8.0914;-0.2902;-7.834;0.6678;-2.5804;-0.6146;0.1293;-0.4794;3.0;19.2;37.46;-11.55;58.51;52.71;88.81;5.0;988.24;50.741;35.958256;-83.92453;768.06;NaN;;0.0;14.411657;;1 / 17;53006;2022-10-26 21:30:15:466
-10.7112;-2.6061;4.3789;-9.1403;-1.2438;3.3285;0.4341;-1.1906;1.9164;0.5685;-0.8206;0.1157;5.0;32.23;26.42;-6.11;352.08;4.21;73.61;5.0;988.25;59.905;35.958344;-83.9244;752.52;NaN;;2.09;364.6217;9.3;1 / 17;53506;2022-10-26 21:30:15:966
-10.9289;-4.1465;13.0418;-7.3216;-1.9063;6.2394;-3.6098;-0.3436;-1.4109;-0.8269;-1.8409;0.0042;8.0;46.54;17.36;-4.48;302.51;8.03;64.35;5.0;988.26;38.426;35.958344;-83.9244;752.52;NaN;;2.09;364.6217;9.3;1 / 17;54006;2022-10-26 21:30:16:466
-0.3867;5.7242;6.1851;-1.2339;5.0611;8.3086;-1.0863;-1.2283;-0.954;0.8593;-0.1707;1.5167;20.0;20.72;-10.01;-43.27;316.02;-31.07;8.45;5.0;988.24;37.715;35.958344;-83.9244;752.52;NaN;;2.09;364.6217;9.3;1 / 17;54505;2022-10-26 21:30:16:965
-2.8789;4.8745;11.9261;-1.559;4.3753;8.637;1.4119;-0.2685;-2.0672;-0.6455;2.0526;0.4144;25.0;10.88;-27.54;-39.15;209.09;-24.58;10.43;5.0;988.29;46.137;35.958344;-83.9244;752.52;NaN;;2.09;364.6217;9.3;1 / 17;55006;2022-10-26 21:30:17:466
-3.8928;2.1272;14.3022;-1.8249;3.5285;8.966;-1.0077;-0.4774;-0.4168;-0.8035;0.4962;1.6482;23.0;8.34;-23.85;-39.94;178.97;-21.09;11.5;5.0;988.28;47.489;35.958344;-83.9244;752.52;NaN;;2.09;364.6217;9.3;0 / 17;55506;2022-10-26 21:30:17:966
-3.8031;2.5101;6.6305;-2.8815;3.2852;8.7792;-1.2173;-1.7248;2.2149;0.4709;0.2501;0.734;4.0;12.92;-21.79;-42.36;189.06;-16.23;15.36;5.0;988.29;42.081;35.958344;-83.9244;752.52;NaN;;2.09;364.6217;9.3;0 / 17;56006;2022-10-26 21:30:18:466
-2.8023;1.756;7.6014;-3.9546;2.672;8.5669;-1.6742;-0.5878;0.5886;-0.4564;0.757;1.281;2.0;20.38;-24.34;-44.85;175.85;-15.81;24.78;5.0;988.28;39.891;35.958344;-83.9244;752.52;NaN;;2.09;364.6217;9.3;0 / 17;56507;2022-10-26 21:30:18:967
-5.2023;1.5526;8.578;-3.9753;2.6943;8.5503;-0.6709;-0.8481;-0.8774;-0.0241;0.4683;0.0173;4.0;22.93;-19.8;-48.69;208.98;-15.51;22.32;5.0;988.28;39.673;35.958344;-83.9244;752.52;NaN;;2.09;364.6217;9.3;0 / 17;57006;2022-10-26 21:30:19:466
-5.0216;1.7668;6.7406;-4.6407;2.9913;8.1047;1.8901;-0.0732;-1.4021;-0.0223;0.3484;0.228;4.0;32.78;-21.47;-44.21;243.68;-17.76;29.79;5.0;988.28;36.496;35.958344;-83.9244;752.52;NaN;;2.09;364.6217;9.3;0 / 17;57506;2022-10-26 21:30:19:966
-6.0188;1.386;6.3383;-5.3654;2.6908;7.7552;-0.404;0.2903;-1.2609;0.8558;0.173;-0.0434;2.0;38.38;-22.01;-34.18;227.13;-10.76;32.95;5.0;988.33;41.47;35.958344;-83.9244;752.52;NaN;;2.09;364.6217;9.3;0 / 17;58006;2022-10-26 21:30:20:466
-3.9861;0.8429;7.6564;-6.8212;2.6596;6.5244;-0.7467;0.0066;-0.9954;-0.9632;0.0864;0.7987;1.0;38.66;-24.34;-22.65;222.84;-15.74;46.27;5.0;988.32;46.394;35.958344;-83.9244;752.52;NaN;;2.09;364.6217;9.3;0 / 17;58506;2022-10-26 21:30:20:966
-12.393;2.144;5.7553;-8.643;2.217;4.0687;1.2651;-0.183;-1.6299;0.9342;0.8358;-0.9591;1.0;38.78;-18.64;-20.59;164.32;-13.07;64.79;5.0;988.37;45.362;35.958344;-83.9244;752.52;NaN;;2.09;364.6217;9.3;0 / 17;59006;2022-10-26 21:30:21:466
-8.4188;3.9706;2.5271;-8.8579;1.7356;3.8335;-2.1505;1.4057;2.2207;0.9117;-0.0456;-0.8877;0.0;40.67;-10.78;-18.06;175.37;-10.19;66.6;5.0;988.37;53.056;35.958344;-83.9244;752.52;NaN;;2.09;364.6217;9.3;0 / 17;59507;2022-10-26 21:30:21:967
-9.3443;2.685;-2.8633;-9.3305;3.0001;0.3347;-6.9903;-0.1335;-1.0663;-0.1845;-0.9909;0.419;1.0;43.11;-8.23;-16.61;76.38;-17.15;93.36;5.0;988.41;49.719;35.958344;-83.9244;752.52;NaN;;2.09;364.6217;9.3;0 / 17;60006;2022-10-26 21:30:22:466
-4.2963;2.1583;-0.1412;-8.98;3.2393;2.2443;0.3199;0.8513;0.0779;1.101;-0.5482;0.5307;2.0;45.79;-10.2;-13.71;66.84;-14.65;79.78;5.0;988.45;46.921;35.958344;-83.9244;752.52;NaN;;2.09;364.6217;9.3;0 / 16;60506;2022-10-26 21:30:22:966
-12.4493;2.898;6.3455;-8.713;3.3243;3.0335;1.6792;-0.2002;-2.0649;-1.8878;-1.7596;-0.3616;3.0;37.95;-15.49;-7.88;257.94;-19.82;70.8;5.0;988.5;44.923;35.958344;-83.9244;752.52;NaN;;2.09;364.6217;9.3;0 / 16;61006;2022-10-26 21:30:23:466
-11.0656;4.1393;2.6372;-7.8224;3.8153;4.5193;-7.6127;0.4118;0.5503;0.0595;-0.1297;0.5517;3.0;20.63;-23.59;-11.08;184.35;-22.9;59.98;5.0;988.5;43.855;35.958344;-83.9244;752.52;NaN;;2.09;364.6217;9.3;0 / 16;61507;2022-10-26 21:30:23:967
-5.8295;3.4259;4.739;-8.5278;2.5904;4.0912;0.226;0.7784;-0.057;-2.1117;0.558;0.6438;4.0;12.86;-27.22;-14.34;161.04;-18.28;64.01;5.0;988.5;38.53;35.958344;-83.9244;752.52;NaN;;2.09;364.6217;9.3;0 / 16;62007;2022-10-26 21:30:24:467
-7.2685;1.7943;1.6304;-8.1857;3.235;4.3243;-1.9028;-1.8408;-0.4809;1.4575;0.4542;0.4452;24.0;9.9;-7.71;-37.91;87.59;-19.26;62.15;5.0;988.48;52.411;35.958344;-83.9244;752.52;NaN;;2.09;364.6217;9.3;0 / 17;62505;2022-10-26 21:30:24:965
-6.9344;3.038;2.6073;-8.1299;2.902;4.6533;-0.3561;-0.2514;-1.1962;-0.6977;0.1049;0.4775;21.0;17.55;-21.07;-37.95;113.44;-16.39;60.13;5.0;988.5;46.504;35.958344;-83.9244;752.52;NaN;;2.09;364.6217;9.3;0 / 17;63006;2022-10-26 21:30:25:466
-6.4714;0.1687;6.5288;-6.2826;1.9694;7.2678;-5.266;-0.1047;-0.9584;-1.446;-1.6815;0.8149;27.0;17.63;-9.15;-39.58;91.72;-11.59;40.84;5.0;988.49;40.474;35.958344;-83.9244;752.52;NaN;;2.09;364.6217;9.3;0 / 15;63506;2022-10-26 21:30:25:966
-5.6704;1.7979;6.6724;-5.7518;2.3354;7.5917;-0.7855;-2.0626;2.3724;-0.1737;0.1343;0.8996;18.0;17.44;-0.6;-36.81;45.23;-12.39;35.52;5.0;988.49;38.258;35.958344;-83.9244;752.52;NaN;;2.09;364.6217;9.3;0 / 15;64006;2022-10-26 21:30:26:466
-7.2278;1.343;6.6832;-6.0326;2.3228;7.3745;-0.288;-1.1465;1.271;0.6344;0.273;-0.2637;2.0;24.15;-3.26;-29.98;350.18;-11.91;37.37;5.0;988.51;32.768;35.958344;-83.9244;752.52;NaN;;2.09;364.6217;9.3;0 / 17;64507;2022-10-26 21:30:26:967
-4.593;2.6838;7.1644;-6.5376;2.2663;6.9494;1.4836;-0.3331;-0.4357;-0.4245;0.4364;0.2107;3.0;24.3;-7.8;-24.02;273.12;-13.36;43.25;5.0;988.47;31.221;35.958344;-83.9244;752.52;NaN;;2.09;364.6217;9.3;0 / 17;65006;2022-10-26 21:30:27:466
-6.0583;3.5874;3.8091;-7.2302;1.298;6.4969;0.3306;1.963;-1.4624;0.4613;0.091;-0.2288;3.0;21.21;-10.46;-18.22;185.91;-7.61;48.06;5.0;988.5;39.279;35.958344;-83.9244;752.52;NaN;;2.09;364.6217;9.3;0 / 17;65506;2022-10-26 21:30:27:966
-7.0854;1.5682;7.2924;-7.5087;1.2145;6.1898;2.2579;-0.6083;0.0886;-0.5713;-0.0425;-0.4178;4.0;14.83;-11.94;-17.14;150.11;-11.9;51.86;5.0;988.55;46.796;35.958344;-83.9244;752.52;NaN;;2.09;364.6217;9.3;0 / 17;66006;2022-10-26 21:30:28:466
-7.3259;2.0913;6.3215;-7.8579;1.0439;5.7736;1.0678;1.9642;-2.4318;-0.3686;-0.4048;-0.0914;4.0;6.96;-6.99;-20.51;112.01;-5.66;53.85;5.0;988.55;46.582;35.958344;-83.9244;752.52;NaN;;2.09;364.6217;9.3;0 / 18;66507;2022-10-26 21:30:28:967
-5.2645;1.5526;3.4522;-8.1429;2.7078;4.7467;0.7623;-0.885;0.8286;-1.0223;-0.0348;0.1545;4.0;3.71;-1.71;-23.55;82.79;-16.03;59.76;5.0;988.59;47.213;35.958344;-83.9244;752.52;NaN;;2.09;364.6217;9.3;0 / 18;67006;2022-10-26 21:30:29:466
-10.8057;0.9745;4.3944;-7.9512;2.9578;4.9194;-0.7747;-1.3869;-0.2561;0.4819;0.6538;0.1194;5.0;5.4;5.16;-26.49;62.42;-17.55;58.25;5.0;988.61;46.181;35.958344;-83.9244;752.52;NaN;;2.09;364.6217;9.3;0 / 17;67506;2022-10-26 21:30:29:966
-10.4827;2.254;6.1098;-8.1991;2.1723;4.922;-1.6559;-0.987;2.7915;0.233;-0.2292;-0.6051;6.0;10.37;9.0;-26.51;51.72;-16.47;61.04;5.0;988.65;47.251;35.958344;-83.9244;752.52;NaN;;2.09;364.6217;9.3;0 / 17;68006;2022-10-26 21:30:30:466
-5.333;1.0068;3.827;-8.7348;2.4858;3.7007;-4.7097;-2.305;-1.3659;-0.5188;1.0217;0.0764;8.0;13.18;16.76;-27.96;42.95;-14.68;67.04;5.0;988.66;44.345;35.958344;-83.9244;752.52;NaN;;2.09;364.6217;9.3;0 / 18;68507;2022-10-26 21:30:30:967
-6.2581;2.983;4.6361;-8.2357;1.6205;5.0713;2.6249;1.2455;-1.7561;-0.569;-0.8166;-0.118;9.0;14.12;25.24;-30.32;34.6;-10.83;62.9;5.0;988.71;46.128;35.958344;-83.9244;752.52;NaN;;2.09;364.6217;9.3;0 / 18;69006;2022-10-26 21:30:31:466
-7.5894;-0.7768;2.4347;-8.5398;1.2785;4.6483;-0.6319;0.6637;-0.231;-0.1891;0.0045;0.4105;30.0;12.02;36.26;-29.14;26.91;-7.49;61.44;5.0;988.7;48.244;35.958344;-83.9244;752.52;NaN;;2.09;364.6217;9.3;0 / 18;69506;2022-10-26 21:30:31:966
-7.4169;1.7261;1.0068;-9.1815;1.5087;3.0974;-8.6992;-0.8659;2.1476;1.3561;0.0018;0.5708;33.0;15.73;38.83;-20.72;18.47;-4.27;68.2;5.0;988.73;44.866;35.958344;-83.9244;752.52;NaN;;2.09;364.6217;9.3;0 / 18;70006;2022-10-26 21:30:32:466
-8.8068;1.5634;2.2528;-9.2138;1.8351;2.8122;-0.0882;-1.1377;1.3418;-1.565;0.9757;0.2779;27.0;27.66;24.64;-14.31;9.37;-13.39;72.98;5.0;988.76;50.703;35.958344;-83.9244;752.52;NaN;;2.09;364.6217;9.3;0 / 18;70506;2022-10-26 21:30:32:966
-10.9313;-0.7732;5.3821;-9.1696;0.5271;3.4368;-3.5951;0.6434;1.6133;0.2262;0.4818;-0.1658;15.0;24.51;16.95;1.69;329.67;-3.08;69.45;5.0;988.75;51.943;35.958344;-83.9244;752.52;NaN;;2.09;364.6217;9.3;0 / 18;71006;2022-10-26 21:30:33:466
-12.2303;1.4737;6.7502;-8.4067;2.3261;4.4818;-3.1368;-1.2336;1.1677;0.0977;-1.2076;0.2256;15.0;28.58;-0.71;-7.44;308.22;-13.72;61.94;5.0;988.75;35.855;35.958344;-83.9244;752.52;NaN;;2.09;364.6217;9.3;0 / 18;71506;2022-10-26 21:30:33:966
-6.676;2.6958;1.9645;-7.3206;4.5007;4.7247;0.1647;-0.0404;1.1413;0.4621;1.2916;-0.2007;31.0;29.91;-13.61;-8.81;269.23;-25.26;52.69;5.0;988.73;38.721;35.958344;-83.9244;752.52;NaN;;2.09;364.6217;9.3;0 / 18;72006;2022-10-26 21:30:34:466
-8.4488;4.7354;6.8052;-7.6189;4.559;4.1639;1.8695;-2.0192;0.4832;-1.362;1.0007;0.8728;35.0;33.09;-12.3;0.53;277.63;-27.2;60.81;5.0;988.77;35.399;35.958344;-83.9244;752.52;NaN;;2.09;364.6217;9.3;0 / 18;72506;2022-10-26 21:30:34:966
-7.7163;2.2552;4.7665;-6.9661;3.0796;6.1774;-2.696;-0.3757;0.5427;-0.5811;0.8339;-0.2977;3.0;30.32;-19.78;21.53;245.56;-18.3;48.43;5.0;988.74;35.848;35.958344;-83.9244;752.52;NaN;;2.09;364.6217;9.3;0 / 18;73006;2022-10-26 21:30:35:466
-6.44;2.5137;5.0252;-7.7313;2.9546;5.26;0.7489;0.3065;1.182;-0.271;0.0366;0.5429;2.0;45.09;-12.39;37.65;263.29;-17.53;55.77;5.0;988.78;36.025;35.958344;-83.9244;752.52;NaN;;2.09;364.6217;9.3;0 / 18;73506;2022-10-26 21:30:35:966
-11.8902;0.8895;2.8657;-8.5319;2.7211;3.9966;-4.2834;-1.9723;-0.9411;-0.7803;0.5379;-0.1177;2.0;55.07;-7.29;28.89;273.48;-18.59;57.81;5.0;988.79;38.642;35.958344;-83.9244;752.52;NaN;;2.09;364.6217;9.3;0 / 18;74006;2022-10-26 21:30:36:466
-9.2617;4.7653;1.8936;-9.0509;1.8607;3.2848;-4.3195;0.2594;1.5804;1.2922;-0.6615;-0.4753;1.0;50.98;-0.49;15.24;284.46;-10.94;70.05;5.0;988.81;43.424;35.958344;-83.9244;752.52;NaN;;2.09;364.6217;9.3;0 / 18;74506;2022-10-26 21:30:36:966
-6.3096;3.6547;0.4466;-8.6437;3.9003;2.4989;-0.0597;-0.8443;-1.2351;-0.3227;0.1787;0.6804;1.0;41.44;-0.41;0.51;315.7;-19.1;73.68;5.0;988.82;43.811;35.958344;-83.9244;752.52;NaN;;2.09;364.6217;9.3;0 / 18;75005;2022-10-26 21:30:37:465
-13.9289;2.2636;4.3466;-8.429;2.8294;4.1373;0.0623;0.9498;0.3654;1.1547;-0.521;-0.1796;1.0;18.39;-6.96;-15.17;91.38;-16.77;63.86;5.0;988.87;44.867;35.958344;-83.9244;752.52;NaN;;2.09;364.6217;9.3;0 / 18;75506;2022-10-26 21:30:37:966
-6.0523;3.9203;2.5065;-8.206;2.8076;4.577;-2.9638;0.7888;2.7004;0.4143;-0.6906;-0.3935;1.0;19.39;-13.71;8.61;242.82;-20.72;62.95;5.0;988.89;44.973;35.958344;-83.9244;752.52;NaN;;2.09;364.6217;9.3;0 / 18;76006;2022-10-26 21:30:38:466
-9.1657;3.8653;8.3758;-6.5856;3.862;6.1551;1.4312;0.5507;-2.7086;-0.7884;-0.8741;-0.1886;3.0;32.01;1.5;20.38;282.77;-25.9;53.87;5.0;988.91;47.01;35.958344;-83.9244;752.52;NaN;;2.09;364.6217;9.3;0 / 18;76507;2022-10-26 21:30:38:967
-4.6409;3.705;10.2215;-3.7344;4.3752;7.9424;-0.9121;0.413;-0.8249;-0.4985;0.7524;0.3451;3.0;32.06;5.74;5.48;286.87;-26.5;25.18;5.0;988.95;49.494;35.958344;-83.9244;752.52;NaN;;2.09;364.6217;9.3;0 / 18;77005;2022-10-26 21:30:39:465
0.5411;2.8968;6.3897;0.8288;2.1086;9.5414;-1.282;0.5854;-1.6371;0.263;-0.2109;0.5649;6.0;23.83;2.53;-3.22;277.37;-12.42;-4.96;5.0;988.94;42.234;35.958344;-83.9244;752.52;NaN;;2.09;364.6217;9.3;0 / 18;77506;2022-10-26 21:30:39:966
-1.1862;0.8536;8.3279;0.7174;2.0756;9.5576;-0.0407;0.4662;-2.8127;0.6506;1.1072;1.0254;11.0;3.51;9.56;-14.53;338.35;-12.22;-4.29;5.0;988.99;43.794;35.958344;-83.9244;752.52;NaN;;2.09;364.6217;9.3;0 / 18;78006;2022-10-26 21:30:40:466
-4.2963;0.4358;10.4204;-3.1321;0.1407;9.292;1.2588;0.7123;-1.2113;-0.3496;-0.5001;0.6102;19.0;8.83;10.03;-16.8;349.39;-0.89;22.14;5.0;988.99;44.795;35.958344;-83.9244;752.52;NaN;;2.09;364.6217;9.3;0 / 18;78506;2022-10-26 21:30:40:966
-2.4514;-1.5275;11.324;-3.0501;1.9475;9.1145;-0.8687;-1.0569;-3.1131;-3.2727;-2.6893;1.4677;20.0;6.98;1.52;-20.51;0.23;-11.45;18.5;5.0;988.99;38.929;35.958344;-83.9244;752.52;NaN;;2.09;364.6217;9.3;0 / 18;79006;2022-10-26 21:30:41:466
-1.075;0.2106;8.6414;-2.2822;-0.4956;9.5245;0.7712;0.7772;-1.7245;-0.3908;0.0266;0.8812;20.0;-24.13;20.63;-42.3;59.91;2.9;13.47;5.0;989.01;40.319;35.958344;-83.9244;752.52;NaN;;2.09;364.6217;9.3;0 / 18;79506;2022-10-26 21:30:41:966
-1.5239;2.0877;8.292;-1.5037;1.5148;9.5716;-0.8846;-2.3131;0.471;1.878;-0.5052;0.5652;19.0;-61.99;11.38;-66.02;83.69;3.04;12.63;5.0;988.99;32.859;35.958344;-83.9244;752.52;NaN;;2.09;364.6217;9.3;0 / 18;80006;2022-10-26 21:30:42:466
-1.4653;2.6097;7.1477;-2.0282;2.2703;9.3221;-0.9071;-1.4865;0.8279;0.0554;0.141;0.4103;8.0;-48.58;-25.44;-54.09;103.74;-13.39;12.27;5.0;988.98;36.412;35.958344;-83.9244;752.52;NaN;;2.09;364.6217;9.3;0 / 18;80506;2022-10-26 21:30:42:966
-2.4921;2.0088;10.194;-1.6197;2.3054;9.3932;-0.0704;0.2791;-1.3233;-0.3595;0.5478;-0.1465;5.0;-28.97;-21.73;-49.56;106.47;-13.6;9.78;5.0;988.99;36.519;35.958344;-83.9244;752.52;NaN;;2.09;364.6217;9.3;0 / 18;81006;2022-10-26 21:30:43:466
-2.8286;3.5827;8.1604;-2.6215;3.1016;8.9263;-0.2847;-0.7993;0.3595;0.0951;0.5234;0.335;4.0;-16.99;-24.43;-52.44;105.36;-18.44;16.37;5.0;988.98;39.944;35.958344;-83.9244;752.52;NaN;;2.09;364.6217;9.3;0 / 18;81506;2022-10-26 21:30:43:966
-2.5439;3.0488;7.2051;-3.1391;3.2558;8.7015;-0.7177;0.5022;-0.3899;-0.2066;-0.3615;0.197;4.0;-11.96;-24.3;-56.76;101.17;-19.54;19.72;5.0;988.98;38.164;35.958344;-83.9244;752.52;NaN;;2.09;364.6217;9.3;0 / 18;82006;2022-10-26 21:30:44:466
-2.3952;4.3083;6.3706;-4.1191;3.6825;8.102;-1.3167;1.1621;-1.0889;0.0236;-0.5059;0.2072;4.0;-2.38;-21.75;-59.79;96.3;-19.59;28.38;5.0;989.0;37.545;35.958344;-83.9244;752.52;NaN;;2.09;364.6217;9.3;0 / 18;82506;2022-10-26 21:30:44:966
-2.6755;3.4056;4.7402;-5.0823;2.9698;7.8435;-0.6394;0.6906;1.1297;0.125;0.4995;0.1676;4.0;17.33;-11.79;-55.74;70.93;-17.63;32.94;5.0;989.06;45.788;35.958344;-83.9244;752.52;NaN;;2.09;364.6217;9.3;0 / 18;83006;2022-10-26 21:30:45:466
-7.9137;1.4438;7.3295;-6.15;1.7582;7.4335;-3.4637;-0.1988;-1.5459;-0.6254;1.3765;0.8777;7.0;23.36;7.61;-44.79;33.26;-10.33;39.6;5.0;989.07;45.023;35.958344;-83.9244;752.52;NaN;;2.09;364.6217;9.3;0 / 18;83506;2022-10-26 21:30:45:966
-3.1627;5.5053;4.617;-7.4961;1.3227;6.1829;-3.2696;-0.8594;2.8732;0.0531;-0.2195;-0.8011;11.0;29.49;9.92;-31.01;16.74;-12.63;50.81;5.0;989.1;45.19;35.958344;-83.9244;752.52;NaN;;2.09;364.6217;9.3;0 / 18;84006;2022-10-26 21:30:46:466
-8.7637;4.4734;12.4971;-7.4903;0.8102;6.2777;-0.2025;1.8977;-3.395;-3.3676;0.5336;-0.514;24.0;27.84;15.24;-20.38;355.2;-15.41;51.16;5.0;989.15;48.637;35.958344;-83.9244;752.52;NaN;;2.09;364.6217;9.3;0 / 18;84506;2022-10-26 21:30:46:966
-8.8487;0.626;1.1456;-7.4116;2.862;5.7487;-1.3826;-1.2279;-0.4203;-0.6385;1.4724;0.4666;43.0;28.43;25.73;-20.27;357.77;-16.97;52.2;5.0;989.17;54.373;35.958344;-83.9244;752.52;NaN;;2.09;364.6217;9.3;0 / 18;85006;2022-10-26 21:30:47:466
-3.6751;-1.4725;8.5505;-5.7167;-2.8848;7.4275;1.7194;2.3227;-0.9535;-1.308;-0.3203;0.9993;47.0;33.62;32.25;-7.31;315.22;17.11;37.58;5.0;989.16;48.416;35.958344;-83.9244;752.52;NaN;;2.09;364.6217;9.3;0 / 18;85506;2022-10-26 21:30:47:966
-4.7139;-1.6819;2.8382;-4.9776;-0.0734;8.4492;0.8424;-0.76;-2.7509;0.6102;0.4212;0.8118;31.0;36.58;33.13;-5.74;315.4;6.8;28.54;5.0;989.16;45.638;35.958344;-83.9244;752.52;NaN;;2.09;364.6217;9.3;0 / 18;86007;2022-10-26 21:30:48:467
-1.6376;2.1559;7.0014;-3.6459;0.8327;9.0656;-0.092;-1.0996;-2.6312;0.9558;-1.1761;1.4526;40.0;48.83;22.71;-10.58;301.49;-4.87;21.91;5.0;989.17;45.265;35.958344;-83.9244;752.52;NaN;;2.09;364.6217;9.3;0 / 18;86506;2022-10-26 21:30:48:966
-3.1161;0.6069;9.8578;-0.5927;1.9255;9.5975;-0.5956;-1.0838;-0.0311;-0.4781;-0.3447;0.2575;44.0;42.0;-4.16;-35.66;275.24;-11.32;3.53;5.0;989.18;53.243;35.958344;-83.9244;752.52;NaN;;2.09;364.6217;9.3;0 / 18;87006;2022-10-26 21:30:49:466
-2.1751;3.9191;8.0824;-1.9141;3.3683;9.0089;0.0778;-2.6308;2.8391;-0.1283;0.1532;0.6191;29.0;34.82;-23.01;-33.86;254.22;-20.09;11.99;5.0;989.15;48.504;35.958344;-83.9244;752.52;NaN;;2.09;364.6217;9.3;0 / 18;87506;2022-10-26 21:30:49:966
-2.6803;0.4178;9.9799;-2.2547;2.4097;9.2347;1.1944;-0.5458;-0.276;-0.9928;-0.1135;-1.5367;4.0;40.69;-37.24;-20.76;237.06;-22.4;12.2;5.0;989.17;28.924;35.958344;-83.9244;752.52;NaN;;2.09;364.6217;9.3;0 / 18;88007;2022-10-26 21:30:50:467
-0.1149;2.083;8.694;-1.2611;1.8303;9.5515;0.6207;0.1495;-0.4268;0.3547;0.2928;0.5798;2.0;54.62;-29.1;-18.84;243.95;-7.06;6.17;5.0;989.16;30.019;35.958344;-83.9244;752.52;NaN;;2.09;364.6217;9.3;0 / 18;88506;2022-10-26 21:30:50:966
-2.4945;2.7461;6.294;-1.5543;1.9429;9.4858;1.463;0.7956;3.0851;-0.2044;0.7025;-0.7824;2.0;49.5;-37.48;-11.91;235.71;-11.43;9.31;5.0;989.2;35.546;35.958344;-83.9244;752.52;NaN;;2.09;364.6217;9.3;0 / 18;89006;2022-10-26 21:30:51:466
-1.0295;2.6575;10.0026;-1.043;1.6922;9.6031;-0.2655;1.4113;0.5826;0.2743;0.2973;1.2051;2.0;45.49;-27.73;-14.81;240.73;-9.94;6.2;5.0;989.23;43.661;35.958344;-83.9244;752.52;NaN;;2.09;364.6217;9.3;0 / 18;89506;2022-10-26 21:30:51:966
-2.8226;-2.467;15.358;-1.6022;2.1779;9.4266;0.2156;-0.9995;-2.5197;0.4406;0.4751;0.1434;0.0;31.59;-30.24;-20.04;228.29;-8.29;6.57;5.0;989.32;47.059;35.958344;-83.9244;752.52;NaN;;2.09;364.6217;9.3;0 / 18;90006;2022-10-26 21:30:52:466
-0.4968;2.1858;7.2374;-0.761;1.7695;9.6156;-2.1428;-2.2183;-1.8713;0.2639;-0.2537;-0.0625;0.0;15.24;-31.69;-28.52;208.67;-9.84;0.97;5.0;989.23;46.993;35.958344;-83.9244;752.52;NaN;;2.09;364.6217;9.3;0 / 18;90506;2022-10-26 21:30:52:966
0.8429;2.2086;10.8069;-0.9607;1.7653;9.5985;0.3655;1.6234;-0.9346;-0.3125;0.112;-1.3942;1.0;7.43;-27.53;-34.76;189.34;-10.37;5.72;5.0;989.33;49.126;35.958344;-83.9244;752.52;NaN;;2.09;364.6217;9.3;0 / 18;91006;2022-10-26 21:30:53:466
-2.9806;0.6643;9.7846;-1.7157;1.1171;9.5906;-0.209;-1.3235;6.2827;-0.448;0.7187;0.802;1.0;6.32;-20.06;-40.65;175.05;-6.54;10.14;5.0;989.35;43.891;35.958344;-83.9244;752.52;NaN;;2.09;364.6217;9.3;0 / 18;91506;2022-10-26 21:30:53:966
-0.0514;2.1212;9.3921;-1.3245;1.088;9.6557;-1.0938;0.5215;0.1115;-0.3903;-0.1295;0.1862;3.0;6.49;-17.55;-42.86;167.88;-9.29;10.99;5.0;989.4;51.814;35.958344;-83.9244;752.52;NaN;;2.09;364.6217;9.3;0 / 18;92006;2022-10-26 21:30:54:466
-7.1189;1.8075;13.3675;-2.2218;1.2457;9.4701;-2.4936;0.0284;0.428;0.2424;0.8486;2.0581;23.0;8.87;-12.58;-47.23;163.87;-7.3;13.2;5.0;989.44;51.954;35.958344;-83.9244;752.52;NaN;;2.09;364.6217;9.3;0 / 18;92506;2022-10-26 21:30:54:966
-5.3231;0.7325;7.7725;-2.6526;4.9324;8.0502;2.1267;-1.2172;-0.5812;-1.0331;0.718;-1.7961;24.0;11.57;-35.25;-42.06;168.11;-30.2;18.24;5.0;989.38;42.977;35.958344;-83.9244;752.52;NaN;;2.09;364.6217;9.3;0 / 18;93006;2022-10-26 21:30:55:466
-4.4471;0.7887;12.6853;-2.9754;2.0983;9.1057;-1.135;2.1429;1.7655;0.1904;0.621;1.1672;11.0;19.09;-38.01;-36.81;193.05;-12.36;18.1;5.0;989.4;36.774;35.958344;-83.9244;752.52;NaN;;2.09;364.6217;9.3;0 / 18;93506;2022-10-26 21:30:55:966
-2.2636;1.7991;7.3116;-2.9361;4.0667;8.4268;0.974;-2.1152;-0.611;0.0766;0.1913;-0.3082;11.0;10.31;-37.37;-32.55;179.15;-24.32;17.34;5.0;989.36;35.602;35.958344;-83.9244;752.52;NaN;;2.09;364.6217;9.3;0 / 18;94006;2022-10-26 21:30:56:466
0.3281;0.195;11.0752;0.411;2.2269;9.5416;-0.9677;-2.4298;1.9238;0.8536;0.1627;2.6101;30.0;7.52;-44.01;-21.6;188.73;-5.24;4.08;5.0;989.42;38.273;35.958344;-83.9244;752.52;NaN;;2.09;364.6217;9.3;0 / 18;94506;2022-10-26 21:30:56:966
1.5179;2.8765;9.1262;0.4043;3.4538;9.1694;0.1494;-1.1028;-1.442;0.0488;0.4066;0.8402;31.0;-45.36;-41.47;-14.74;126.18;-20.62;-2.52;5.0;989.36;31.183;35.958344;-83.9244;752.52;NaN;;2.09;364.6217;9.3;0 / 18;95006;2022-10-26 21:30:57:466
-0.7457;2.5642;9.7343;-0.1275;2.5289;9.4741;-0.1447;0.6576;0.6217;-0.1579;-0.0328;-0.3064;14.0;-53.19;-41.93;-15.09;124.74;-14.94;0.77;5.0;989.35;38.573;35.958344;-83.9244;752.52;NaN;;2.09;364.6217;9.3;0 / 18;95506;2022-10-26 21:30:57:966
0.3461;3.3063;5.7434;-0.2871;3.5378;9.1418;1.9753;-0.0659;-0.3962;-0.0936;0.8091;0.0629;8.0;-54.84;-45.13;-9.71;124.51;-21.22;-2.42;5.0;989.41;35.816;35.958344;-83.9244;752.52;NaN;;2.09;364.6217;9.3;0 / 18;96006;2022-10-26 21:30:58:466
-1.0164;1.9956;9.0748;0.3006;1.6519;9.6618;-0.1936;0.7552;2.3107;-1.4089;-0.3443;-0.7781;4.0;-60.94;-49.26;-8.21;125.42;-19.79;-0.05;5.0;989.48;44.826;35.958344;-83.9244;752.52;NaN;;2.09;364.6217;9.3;0 / 18;96506;2022-10-26 21:30:58:966
-2.1236;1.427;9.8315;-1.7572;2.6837;9.2672;5.921;0.5733;6.2898;0.2843;0.2649;-0.2028;4.0;-55.76;-50.66;-17.44;129.13;-15.88;10.74;5.0;989.45;50.659;35.958344;-83.9244;752.52;NaN;;2.09;364.6217;9.3;0 / 18;97006;2022-10-26 21:30:59:466
-1.8577;0.3269;9.0497;-1.1041;1.1029;9.6817;-1.2215;1.331;-3.2191;-0.4913;0.3749;0.81;5.0;-46.33;-34.22;-25.48;123.05;-6.46;6.51;5.0;989.47;51.831;35.958344;-83.9244;752.52;NaN;;2.09;364.6217;9.3;0 / 18;97506;2022-10-26 21:30:59:966
-2.0255;3.128;11.9046;-1.9405;1.017;9.5588;-2.6003;0.8289;0.5497;-0.2537;-1.8896;0.8178;5.0;-37.01;-2.91;-37.46;89.1;-10.48;22.1;5.0;989.51;52.515;35.958344;-83.9244;752.52;NaN;;2.09;364.6217;9.3;0 / 18;98006;2022-10-26 21:31:00:466
-1.9546;2.3043;7.0878;0.145;1.7547;9.6473;-0.7014;-0.3693;-2.9091;-0.378;-1.2929;-1.8922;4.0;-34.46;11.34;-39.64;61.58;-10.31;-0.86;5.0;989.51;52.424;35.958344;-83.9244;752.52;NaN;;2.09;364.6217;9.3;0 / 18;98506;2022-10-26 21:31:00:966
-3.3948;1.3394;5.6046;-2.7986;2.5224;9.054;1.0201;-2.9906;2.5;1.4841;1.274;1.3517;7.0;-29.61;-11.14;-26.83;99.72;-14.9;17.18;5.0;989.53;51.013;35.958344;-83.9244;752.52;NaN;;2.09;364.6217;9.3;0 / 18;99006;2022-10-26 21:31:01:466
-3.408;2.9985;8.1377;-2.8696;3.198;8.8153;-1.4144;0.4734;-0.9453;-0.1484;0.9432;1.4022;9.0;-19.69;-14.25;-17.16;112.35;-19.03;18.03;5.0;989.56;51.899;35.958344;-83.9244;752.52;NaN;;2.09;364.6217;9.3;0 / 18;99506;2022-10-26 21:31:01:966