ACCELEROMETER X (m/s²);ACCELEROMETER Y (m/s²);ACCELEROMETER Z (m/s²);GRAVITY X (m/s²);GRAVITY Y (m/s²);GRAVITY Z (m/s²);LINEAR ACCELERATION X (m/s²);LINEAR ACCELERATION Y (m/s²);LINEAR ACCELERATION Z (m/s²);GYROSCOPE X (rad/s);GYROSCOPE Y (rad/s);GYROSCOPE Z (rad/s);LIGHT (lux);MAGNETIC FIELD X (μT);MAGNETIC FIELD Y (μT);MAGNETIC FIELD Z (μT);ORIENTATION Z (azimuth °);ORIENTATION X (pitch °);ORIENTATION Y (roll °);PROXIMITY (i);ATMOSPHERIC PRESSURE (hPa);SOUND LEVEL (dB);LOCATION Latitude : ;LOCATION Longitude : ;LOCATION Altitude ( m);LOCATION Altitude-google ( m);LOCATION Altitude-atmospheric pressure ( m);LOCATION Speed ( Kmh);LOCATION Accuracy ( m);LOCATION ORIENTATION (°);Satellites in range;Time since start in ms ;YYYY-MO-DD HH-MI-SS_SSS
-3.1747;2.7497;9.938;-2.7018;1.6887;9.2746;-0.5384;0.9993;0.2231;-0.4397;-0.4789;-0.4245;60.0;-28.57;11.04;-56.47;66.74;-9.92;16.24;5.0;992.95;46.058;35.95829;-83.92439;835.9;NaN;;0.0;19.281912;;9 / 14;9;2022-10-28 14:31:27:702
-0.7014;1.2508;8.3447;-1.0763;0.049;9.7473;-0.3889;0.8644;-1.2115;0.0546;0.0438;-0.9253;59.0;-38.03;9.81;-53.89;77.1;-2.35;15.59;5.0;992.86;47.781;35.958286;-83.924385;837.14;NaN;;0.0;15.437897;;10 / 15;510;2022-10-28 14:31:28:203
3.0739;0.9817;12.4792;0.3962;1.3851;9.7002;0.1328;0.4683;-1.6603;0.2611;-0.3281;-0.6351;35.0;-47.34;-18.84;-40.65;105.73;-8.12;-2.34;5.0;992.94;46.217;35.958286;-83.924385;837.14;NaN;;0.0;15.437897;;10 / 15;1010;2022-10-28 14:31:28:703
0.8979;-0.6009;7.3056;2.7104;-0.191;9.4227;-1.5177;-1.1428;-0.3915;-0.5534;-0.0531;-0.5349;22.0;-50.42;-21.45;-31.71;117.22;0.66;-12.67;5.0;992.96;46.573;35.9583;-83.92434;836.57;NaN;;0.0;13.624885;;10 / 15;1510;2022-10-28 14:31:29:203
10.8512;-1.2413;1.1288;8.4601;2.3092;4.3891;-2.6246;-0.9081;2.8123;0.7652;-2.7178;0.4862;18.0;-51.26;-12.92;-10.46;93.49;-13.62;-62.58;5.0;993.03;48.97;35.9583;-83.92434;836.57;NaN;;0.0;13.624885;;10 / 15;2009;2022-10-28 14:31:29:702
9.8973;-1.2126;-0.0299;9.2506;-3.1436;-0.8448;2.3557;0.9778;2.9873;0.0771;-0.0321;0.0996;41.0;-31.61;-1.16;17.57;127.9;18.7;-95.22;5.0;993.02;48.839;35.95829;-83.92434;833.87;NaN;;0.0;12.503478;;10 / 15;2508;2022-10-28 14:31:30:201
6.9009;-2.5786;-0.0957;9.7048;-1.4076;0.076;3.9561;-2.4473;-1.4049;0.4012;0.2618;-0.663;62.0;-27.0;-7.73;20.12;120.21;8.25;-89.55;5.0;993.07;50.612;35.95829;-83.92434;833.87;NaN;;0.0;12.503478;;10 / 15;3010;2022-10-28 14:31:30:703
8.5624;-1.2066;-0.9589;9.2326;-3.2042;-0.8144;4.0251;0.4614;-0.5488;0.3169;0.191;0.0229;64.0;-23.31;-11.25;32.89;121.4;19.07;-95.04;5.0;993.07;50.336;35.95829;-83.92434;833.87;NaN;;0.0;12.503478;;10 / 15;3509;2022-10-28 14:31:31:202
8.1003;-1.8613;0.1974;9.4893;-2.363;-0.7351;-0.9892;-0.6502;-0.0063;-6.0E-4;-0.5078;-0.168;57.0;-36.77;-5.21;42.68;110.86;16.05;-92.97;5.0;993.09;48.28;35.95829;-83.92434;833.87;NaN;;0.0;12.503478;;10 / 15;4008;2022-10-28 14:31:31:701
12.4289;-4.9475;-0.8859;9.1386;-3.4261;-0.9587;0.709;4.0285;-0.1162;2.0521;-1.8855;-0.9054;46.0;-42.09;4.56;37.03;109.15;20.45;-95.99;5.0;993.13;48.917;35.95829;-83.92434;833.87;NaN;;0.0;12.503478;;10 / 15;4508;2022-10-28 14:31:32:201
10.5509;3.7193;1.2353;9.6529;1.0962;-1.3381;2.9656;1.6216;3.1347;-0.8912;0.1787;0.6021;43.0;-39.51;-2.16;27.04;81.04;-7.68;-95.2;5.0;993.16;52.12;35.95829;-83.92434;833.87;NaN;;0.0;12.503478;;10 / 15;5009;2022-10-28 14:31:32:702
6.7585;0.2357;-0.4298;8.2206;5.0686;-1.7031;1.2954;-4.5449;2.7052;1.528;0.3766;-1.6905;34.0;-45.71;-14.77;32.81;58.83;-31.12;-101.7;5.0;993.17;53.962;35.95829;-83.92434;833.87;NaN;;0.0;12.503478;;10 / 15;5509;2022-10-28 14:31:33:202
8.6282;5.9937;-1.3238;8.4422;4.4063;-2.3416;0.5312;1.1586;0.5371;1.3371;0.7014;-0.8752;24.0;-61.8;-9.58;15.77;356.67;-26.7;-105.5;5.0;993.15;47.694;35.95829;-83.92434;833.87;NaN;;0.0;12.503478;;10 / 15;6009;2022-10-28 14:31:33:702
7.7055;4.2401;-0.7564;6.9293;6.8437;-1.1483;0.5553;-2.8101;-0.0217;-0.7042;0.6102;-0.2024;40.0;-44.64;-14.72;-5.91;305.24;-42.24;-111.46;5.0;993.15;46.79;35.95829;-83.92434;833.87;NaN;;0.0;12.503478;;10 / 15;6510;2022-10-28 14:31:34:203
7.9938;6.9751;2.3151;8.3791;5.0944;-0.0888;-1.8307;1.6974;0.7461;1.2219;0.4066;-0.0231;65.0;-37.26;-11.08;-21.97;297.59;-35.01;-91.29;5.0;993.15;47.112;35.95829;-83.92434;833.87;NaN;;0.0;12.503478;;10 / 15;7009;2022-10-28 14:31:34:702
6.6927;3.8844;0.2728;6.853;7.0136;0.1294;0.7976;-2.9218;0.353;1.0532;0.8642;-0.6338;64.0;-17.85;-10.82;-23.59;278.31;-42.75;-91.92;5.0;993.14;44.154;35.95829;-83.92434;833.87;NaN;;0.0;12.503478;;10 / 15;7509;2022-10-28 14:31:35:202
6.6066;6.2366;2.4335;7.8241;5.7384;1.4229;-0.9432;0.0436;-0.052;-0.1279;0.0829;0.4152;67.0;-12.24;-8.76;-27.26;275.7;-35.81;-79.69;5.0;993.17;42.585;35.95829;-83.92434;833.87;NaN;;0.0;12.503478;;10 / 15;8009;2022-10-28 14:31:35:702
7.3415;3.3984;1.7417;7.2857;5.8885;2.9009;2.3067;-1.1612;0.3861;0.834;0.6356;-0.1884;67.0;-15.47;-7.57;-27.43;292.19;-36.9;-68.29;5.0;993.16;42.424;35.95829;-83.92434;833.87;NaN;;0.0;12.503478;;10 / 15;8510;2022-10-28 14:31:36:203
6.3754;7.1967;4.3286;7.2699;5.4302;3.7191;-2.2142;-0.7489;-0.4011;-0.5507;-0.0147;0.5524;65.0;-16.5;-15.56;-30.9;276.69;-33.62;-62.91;5.0;993.15;43.101;35.95829;-83.92434;833.87;NaN;;0.0;12.503478;;10 / 15;9010;2022-10-28 14:31:36:703
4.9822;4.9463;4.4853;6.8446;5.5537;4.2986;2.3554;0.1392;0.9974;0.0882;0.927;0.0176;63.0;-18.92;-11.87;-33.64;296.86;-34.49;-57.87;5.0;993.17;41.994;35.95829;-83.92434;833.87;NaN;;0.0;12.503478;;10 / 15;9510;2022-10-28 14:31:37:203
5.2729;6.16;4.5691;6.6054;4.8115;5.4211;-0.5462;1.2623;0.2766;0.2804;0.443;0.6741;66.0;-12.51;-8.64;-38.14;294.53;-29.48;-49.15;5.0;993.2;44.93;35.95829;-83.92434;833.87;NaN;;0.0;12.503478;;10 / 15;10009;2022-10-28 14:31:37:702
3.3649;4.0268;3.026;5.6594;5.0939;6.1801;1.1184;-0.8124;0.9339;0.4287;0.2088;-0.8166;89.0;2.81;-1.88;-38.91;293.1;-31.29;-42.48;5.0;993.23;44.613;35.95829;-83.92434;833.87;NaN;;0.0;12.503478;;10 / 15;10508;2022-10-28 14:31:38:201
3.2812;2.648;6.9571;5.9778;4.2703;6.4962;2.1082;-0.4956;-0.362;0.6909;-0.3686;-0.3625;128.0;6.38;10.03;-38.93;300.57;-25.95;-45.85;5.0;993.26;48.388;35.95829;-83.92434;833.87;NaN;;0.0;12.503478;;10 / 15;11009;2022-10-28 14:31:38:702
1.64;4.4698;6.9009;3.5136;2.8056;8.7151;0.4151;-0.3533;0.8468;0.966;1.0541;0.8949;179.0;11.21;16.05;-33.11;315.47;-16.62;-21.96;5.0;993.29;47.905;35.958286;-83.92435;833.77;NaN;;0.0;16.389336;;9 / 15;11509;2022-10-28 14:31:39:202
1.713;4.276;7.4611;2.6082;3.7742;8.6674;0.9864;-0.7083;1.1612;-0.6653;0.5511;0.3298;112.0;19.5;-3.21;-18.37;273.87;-22.64;-16.75;5.0;993.29;47.239;35.958286;-83.92435;833.77;NaN;;0.0;16.389336;;9 / 15;12009;2022-10-28 14:31:39:702
1.8147;2.1595;5.916;3.2088;3.813;8.446;-1.2253;-2.0117;-1.3459;0.5595;1.1516;0.0434;141.0;10.29;-23.57;-11.72;212.91;-14.15;-23.44;5.0;993.35;47.554;35.958286;-83.92435;833.77;NaN;;0.0;16.389336;;7 / 15;12509;2022-10-28 14:31:40:202
3.6978;2.4275;8.1075;4.8931;2.6186;8.0852;0.4035;-0.2115;1.6591;0.7824;0.7015;1.2926;189.0;4.14;-24.47;-24.84;224.09;-17.35;-32.16;5.0;993.35;46.811;35.958286;-83.92435;833.77;NaN;;0.0;16.389336;;7 / 15;13009;2022-10-28 14:31:40:702
4.5392;2.4419;10.0612;4.2684;4.3632;7.6755;0.0083;-1.1703;-0.0045;0.7937;0.9122;1.2787;283.0;-18.47;-32.01;-37.59;188.14;-23.09;-27.87;5.0;993.3;45.502;35.958286;-83.92435;833.77;NaN;;0.0;16.389336;;7 / 15;13509;2022-10-28 14:31:41:202
4.8182;2.5077;11.4748;4.9168;2.8327;7.9983;-0.7981;1.1023;-1.8604;-0.4668;0.7016;0.6858;154.0;-19.61;-37.99;-25.95;172.77;-16.79;-31.58;5.0;993.34;41.826;35.958286;-83.92435;833.77;NaN;;0.0;16.389336;;7 / 15;14010;2022-10-28 14:31:41:703
0.1831;-0.262;9.9583;0.1471;1.1668;9.7359;1.2349;0.4084;0.3017;-0.533;0.3746;2.2189;199.0;-26.21;-31.56;-33.86;137.37;-6.83;-0.87;5.0;993.33;41.3;35.958286;-83.92435;833.77;NaN;;0.0;16.389336;;5 / 15;14510;2022-10-28 14:31:42:203
1.2939;0.0407;9.9535;1.3279;0.2836;9.7122;0.4033;0.8489;-2.19;0.3425;0.0722;-0.5923;258.0;-31.61;-11.87;-44.55;112.45;-1.66;-7.79;5.0;993.35;42.924;35.958286;-83.92435;833.77;NaN;;0.0;16.389336;;5 / 15;15009;2022-10-28 14:31:42:702
0.4011;-0.3126;10.0863;1.4342;4.0E-4;9.7012;-0.3014;-0.247;-0.4117;0.2803;0.4417;1.6833;475.0;-25.54;-4.41;-45.06;101.8;0.0;-8.41;5.0;993.32;54.023;35.958286;-83.92435;833.77;NaN;;0.0;16.389336;;5 / 15;15509;2022-10-28 14:31:43:202
0.1507;0.3544;7.9316;-1.5193;0.3293;9.6826;1.3026;-0.0399;-1.4004;-0.1942;0.56;1.3966;736.0;-5.76;1.54;-48.77;72.96;-1.63;5.87;5.0;993.32;62.79;35.958286;-83.92435;833.77;NaN;;0.0;16.389336;;5 / 15;16009;2022-10-28 14:31:43:702
-8.2992;-2.5005;7.6588;-5.4088;-1.3983;8.0598;-0.8015;0.1925;2.3746;-1.1217;1.241;-0.3939;842.0;18.47;-0.39;-34.63;140.73;8.2;33.87;5.0;993.36;39.522;35.958286;-83.92435;833.77;NaN;;0.0;16.389336;;6 / 15;16510;2022-10-28 14:31:44:203
-4.8661;0.3449;2.9243;-6.4788;-1.9267;7.1051;0.8761;0.3567;0.1798;0.6407;-0.3993;-0.278;464.0;31.56;2.03;-16.35;234.95;15.32;46.93;5.0;993.37;43.423;35.958286;-83.92435;833.77;NaN;;0.0;16.389336;;6 / 15;17010;2022-10-28 14:31:44:703
-5.7757;-1.4533;6.5623;-6.4097;-2.2163;7.0834;1.6483;0.2058;-0.6123;-0.3479;-0.2401;0.4904;96.0;30.99;2.72;-15.34;251.63;13.06;42.14;5.0;993.4;43.028;35.958286;-83.92435;833.77;NaN;;0.0;16.389336;;8 / 15;17509;2022-10-28 14:31:45:202
-6.3072;-1.3717;7.672;-5.5401;-1.9776;7.8465;0.8314;1.5331;-0.934;0.3848;1.2861;-0.3386;61.0;23.42;8.04;-20.64;284.29;11.63;35.22;5.0;993.44;47.81;35.958286;-83.92435;833.77;NaN;;0.0;16.389336;;8 / 15;18009;2022-10-28 14:31:45:702
-5.0791;-1.148;6.8136;-5.9565;-1.6178;7.6205;-2.6092;-2.2392;1.7978;-1.8202;-0.053;0.6098;56.0;18.26;16.31;-23.32;3.71;6.67;39.64;5.0;993.45;47.696;35.958286;-83.92435;833.77;NaN;;0.0;16.389336;;8 / 15;18509;2022-10-28 14:31:46:202
-3.6835;-1.2772;7.2206;-6.1708;-1.6627;7.4382;-4.9161;-2.4281;2.2247;-0.4162;0.1264;0.2869;54.0;17.23;22.03;-22.67;7.77;9.87;41.07;5.0;993.46;45.507;35.958286;-83.92435;833.77;NaN;;0.0;16.389336;;8 / 15;19009;2022-10-28 14:31:46:702
-4.2015;0.3843;3.7158;-6.1441;-2.1859;7.3241;2.4046;2.0607;-2.3316;1.5713;0.0926;-0.6229;53.0;14.98;30.24;-23.03;6.73;13.28;38.76;5.0;993.48;45.591;35.958286;-83.92435;833.77;NaN;;0.0;16.389336;;9 / 15;19509;2022-10-28 14:31:47:202
-3.973;-0.7277;8.5732;-5.0311;-1.1974;8.3322;0.7969;0.3214;-0.1011;0.1916;-0.6725;0.2627;55.0;0.06;31.43;-35.32;33.72;7.01;31.12;5.0;993.51;45.588;35.958286;-83.92435;833.77;NaN;;0.0;16.389336;;9 / 15;20009;2022-10-28 14:31:47:702
-6.5886;4.7127;4.41;-4.6656;3.1891;8.0145;2.1114;-2.08;1.7066;1.7214;-0.9738;-0.2588;54.0;-16.95;17.1;-46.72;55.34;-18.98;30.21;5.0;993.56;41.89;35.958286;-83.92435;833.77;NaN;;0.0;16.389336;;9 / 15;20508;2022-10-28 14:31:48:201
-5.4562;-5.6225;15.2001;-4.8402;0.3363;8.5223;0.731;2.805;-6.3852;-3.5181;-2.1298;1.1479;48.0;-10.05;-1.69;-48.62;91.23;-1.97;29.59;5.0;993.59;53.362;35.958286;-83.92435;833.77;NaN;;0.0;16.389336;;9 / 15;21010;2022-10-28 14:31:48:703
-7.0807;-3.268;12.7726;-4.3842;-1.0223;8.7123;1.274;0.7862;0.0025;0.4326;1.6087;0.1619;64.0;4.95;21.39;-36.82;35.26;5.98;26.71;5.0;993.56;42.604;35.958286;-83.92435;833.77;NaN;;0.0;16.389336;;9 / 15;21508;2022-10-28 14:31:49:201
-7.0388;-2.9267;8.4667;-6.023;-1.1316;7.6559;-0.0346;0.2587;-1.0648;-1.2166;0.2401;1.5367;63.0;25.69;17.25;-28.07;351.85;2.96;39.66;5.0;993.56;40.912;35.958286;-83.92435;833.77;NaN;;0.0;16.389336;;9 / 15;22009;2022-10-28 14:31:49:702
-7.2362;-0.9278;6.0236;-6.3859;-0.0716;7.4421;0.7601;0.2385;-1.2578;-0.2284;0.1969;-0.0284;54.0;33.81;10.63;-25.52;320.32;0.42;40.63;5.0;993.59;44.292;35.958286;-83.92435;833.77;NaN;;0.0;16.389336;;8 / 15;22509;2022-10-28 14:31:50:202
-9.1071;-1.4222;8.7386;-5.2529;-0.311;8.2753;-3.0798;-0.7045;-0.5462;-0.0629;-0.3867;1.4986;51.0;36.06;5.57;-26.91;307.61;-1.92;40.69;5.0;993.61;43.723;35.958286;-83.92435;833.77;NaN;;0.0;16.389336;;8 / 15;23009;2022-10-28 14:31:50:702
-4.5799;0.9003;4.0831;-4.966;-0.0458;8.4562;-4.3507;-2.8227;2.1357;1.0338;-0.4302;-0.0515;91.0;35.01;-4.27;-29.7;254.33;0.27;30.42;5.0;993.63;41.255;35.958286;-83.92435;833.77;NaN;;0.0;16.389336;;6 / 15;23509;2022-10-28 14:31:51:202
-10.4827;3.8749;5.9925;-6.7119;4.5707;5.4982;0.7572;0.3295;-2.4223;-1.6652;-0.3348;0.5262;80.0;28.99;-31.67;-16.22;204.56;-27.78;50.68;5.0;993.6;41.492;35.958286;-83.92435;833.77;NaN;;0.0;16.389336;;6 / 15;24010;2022-10-28 14:31:51:703
-5.3976;-0.2512;8.5564;-5.7202;1.1579;7.8809;-3.8894;-1.2763;1.8018;-1.3871;-0.9847;-0.8002;25.0;20.06;-31.07;-31.01;163.9;-11.85;43.14;5.0;993.63;38.375;35.958286;-83.92435;833.77;NaN;;0.0;16.389336;;6 / 15;24510;2022-10-28 14:31:52:203
-2.8047;-0.3413;8.7218;-5.4521;1.3047;8.0463;-2.4833;0.6248;-1.5491;-0.9932;0.3712;1.598;38.0;19.24;-22.14;-38.42;160.56;-5.21;35.21;5.0;993.61;40.345;35.958286;-83.92435;833.77;NaN;;0.0;16.389336;;6 / 15;25009;2022-10-28 14:31:52:702
-10.2526;-1.8709;8.1772;-6.645;0.432;7.1992;1.3873;0.2871;0.4667;0.3169;-0.0049;-0.9118;65.0;17.01;-26.23;-34.93;159.3;-3.72;39.09;5.0;993.63;42.84;35.958286;-83.92435;833.77;NaN;;0.0;16.389336;;5 / 15;25509;2022-10-28 14:31:53:202
-7.8491;-3.6233;9.131;-6.9053;-2.5398;6.4835;2.4722;-0.6107;2.1101;-0.2672;0.7834;0.1497;72.0;22.44;-20.53;-34.87;161.16;15.01;46.8;5.0;993.66;45.788;35.958286;-83.92435;833.77;NaN;;0.0;16.389336;;5 / 15;26010;2022-10-28 14:31:53:703
-7.733;-1.2796;6.3347;-7.7418;-1.6384;5.7923;-0.3631;-2.3123;-0.2715;-0.0773;0.3866;-0.0844;83.0;30.15;-16.74;-27.66;169.32;9.62;53.2;5.0;993.72;44.988;35.958286;-83.92435;833.77;NaN;;0.0;16.389336;;5 / 14;26509;2022-10-28 14:31:54:202
-8.377;0.2345;4.5894;-8.133;-1.5164;5.2655;0.1137;-0.2481;2.7273;1.4487;0.928;-0.641;64.0;32.46;-16.78;-22.03;177.3;8.9;57.08;5.0;993.74;46.336;35.958286;-83.92435;833.77;NaN;;0.0;16.389336;;5 / 14;27009;2022-10-28 14:31:54:702
-6.8626;0.4573;3.6233;-8.6514;0.1081;4.6165;0.6468;-0.4441;-0.4288;-0.1596;-0.1101;0.435;58.0;38.64;-14.29;-9.58;215.11;-0.63;61.91;5.0;993.74;44.386;35.958286;-83.92435;833.77;NaN;;0.0;16.389336;;5 / 15;27509;2022-10-28 14:31:55:202
-15.6586;-4.3585;5.0719;-6.8157;-1.7773;6.8233;-6.2454;-2.0644;-1.8115;-0.3499;-1.2855;-1.0032;63.0;35.74;-6.99;-20.19;198.8;5.93;55.63;5.0;993.74;43.128;35.958286;-83.92435;833.77;NaN;;0.0;16.389336;;5 / 15;28009;2022-10-28 14:31:55:702
-5.1461;0.7708;7.2649;-6.3804;-2.4507;7.0324;-0.6008;-0.1412;-0.6519;0.184;-1.1217;-0.9254;80.0;17.4;8.55;-41.42;96.59;14.47;42.22;5.0;993.79;41.458;35.958286;-83.92435;833.77;NaN;;0.0;16.389336;;6 / 15;28510;2022-10-28 14:31:56:203
-6.2342;0.7421;3.0153;-6.1476;-0.2983;7.6347;-0.8266;-0.1384;-0.2616;-0.2463;-0.4994;0.3761;112.0;9.13;17.36;-48.36;66.82;8.85;39.98;5.0;993.83;48.927;35.958286;-83.92435;833.77;NaN;;0.0;16.389336;;6 / 15;29008;2022-10-28 14:31:56:701
-4.4698;-2.2253;8.7589;-7.0759;-1.6527;6.5857;2.0118;0.6681;-0.0305;-1.8359;-0.7466;0.9548;131.0;23.63;8.49;-52.97;92.96;9.7;47.06;5.0;993.81;42.81;35.958286;-83.92435;833.77;NaN;;0.0;16.389336;;8 / 15;29508;2022-10-28 14:31:57:201
-5.9865;-1.0104;5.3004;-5.6244;-1.321;7.9241;-0.2847;-0.1318;-3.2168;-0.6457;0.0993;1.1343;489.0;14.68;1.86;-61.2;104.31;7.74;35.37;5.0;993.8;41.271;35.958286;-83.92435;833.77;NaN;;0.0;16.389336;;8 / 15;30009;2022-10-28 14:31:57:702
-4.6325;-1.3131;4.6959;-6.425;-1.7326;7.2033;1.692;0.4097;-2.6206;-0.5766;-0.2288;0.9803;965.0;3.88;1.73;-68.44;97.84;8.51;42.15;5.0;993.82;39.332;35.958286;-83.92435;833.77;NaN;;0.0;16.389336;;8 / 15;30509;2022-10-28 14:31:58:202
-8.3674;-3.5527;8.2693;-5.7268;-2.3046;7.6199;-1.5051;-0.5691;0.7233;0.0515;-0.5627;0.793;1294.0;0.54;11.81;-64.58;92.47;14.87;38.02;5.0;993.83;41.914;35.958286;-83.92435;833.77;NaN;;0.0;16.389336;;8 / 15;31009;2022-10-28 14:31:58:702
-6.4113;-1.6723;5.0169;-5.9879;-1.6495;7.5891;-1.1679;-2.2621;2.6864;-1.4291;-0.2914;1.0119;1054.0;5.83;11.79;-57.54;86.87;11.81;38.92;5.0;993.8;44.87;35.958286;-83.92435;833.77;NaN;;0.0;16.389336;;8 / 15;31508;2022-10-28 14:31:59:201
-6.0643;-1.5479;9.1801;-6.1027;-1.7744;7.4685;1.0499;0.9618;-0.9337;0.5187;-0.5614;0.0158;545.0;14.93;15.56;-54.34;74.03;10.42;39.25;5.0;993.83;36.704;35.958286;-83.92435;833.77;NaN;;0.0;16.389336;;8 / 15;32009;2022-10-28 14:31:59:702
-6.4388;2.6192;8.2454;-4.7751;0.6564;8.5404;0.5768;0.6477;0.7545;-0.2262;0.6954;1.59;370.0;4.39;-5.87;-54.88;96.46;-3.84;29.21;5.0;993.84;40.951;35.958286;-83.92435;833.77;NaN;;0.0;16.389336;;8 / 15;32508;2022-10-28 14:32:00:201
-7.8287;-1.1216;8.8056;-6.4071;0.586;7.401;-0.9669;-1.3588;1.7016;0.0754;-0.219;-0.4911;236.0;6.28;-0.53;-50.32;88.01;-2.5;37.42;5.0;993.88;45.509;35.958286;-83.92435;833.77;NaN;;0.0;16.389336;;8 / 15;33009;2022-10-28 14:32:00:702
-3.8115;1.7931;4.5846;-6.8571;2.7579;6.4455;2.4892;-1.3003;-0.679;-1.6333;0.3973;-0.6706;49.0;13.13;0.6;-42.17;61.64;-16.33;46.77;5.0;993.88;42.468;35.958286;-83.92435;833.77;NaN;;0.0;16.389336;;8 / 15;33509;2022-10-28 14:32:01:202
-5.916;1.7237;4.7019;-7.9805;0.4073;5.6847;2.4923;0.5681;0.4513;-0.2757;-0.4552;0.449;42.0;19.24;8.96;-33.06;58.9;-1.23;55.01;5.0;993.9;45.303;35.958286;-83.92435;833.77;NaN;;0.0;16.389336;;8 / 15;34010;2022-10-28 14:32:01:703
-5.1832;0.3485;7.2924;-7.35;-0.2828;6.4859;1.2366;0.7511;0.9067;-0.0026;-0.804;-0.5566;45.0;24.84;19.71;-27.99;13.25;1.65;48.57;5.0;993.94;45.281;35.958286;-83.92435;833.77;NaN;;0.0;16.389336;;7 / 15;34508;2022-10-28 14:32:02:201
-7.2075;-2.3294;5.5795;-7.8343;-1.1769;5.78;1.3598;0.368;-0.5294;-0.3547;-0.16;0.6745;47.0;23.68;25.73;-32.72;28.04;4.24;53.53;5.0;993.98;45.528;35.958286;-83.92435;833.77;NaN;;0.0;16.389336;;7 / 15;35010;2022-10-28 14:32:02:703
-11.2654;-1.6998;2.0363;-7.0891;-1.2151;6.6662;-1.0129;-0.3557;0.4839;0.6007;0.9916;-0.1966;54.0;18.23;31.71;-35.62;27.17;7.12;46.76;5.0;993.98;42.733;35.958286;-83.92435;833.77;NaN;;0.0;16.389336;;5 / 15;35510;2022-10-28 14:32:03:203
-7.745;-0.2213;6.4845;-6.747;-3.6129;6.1315;-2.0374;-1.2385;3.5356;0.6907;0.744;-0.0474;56.0;7.8;27.45;-39.88;61.76;21.62;47.74;5.0;994.02;39.609;35.958286;-83.92435;833.77;NaN;;0.0;16.389336;;5 / 15;36009;2022-10-28 14:32:03:702
-5.8343;-1.0929;4.1668;-5.7392;-0.4537;7.9389;-0.4926;-1.1473;-3.0699;1.1201;-0.6819;0.5208;57.0;-6.45;24.47;-28.54;49.95;13.75;36.81;5.0;994.01;43.131;35.958286;-83.92435;833.77;NaN;;0.0;16.389336;;5 / 15;36510;2022-10-28 14:32:04:203
-3.0105;0.6272;6.111;-6.156;0.418;7.6223;1.9387;0.4145;-3.2771;-0.9732;0.3497;0.9997;56.0;-6.41;28.09;-22.42;33.43;-0.71;39.34;5.0;994.05;43.367;35.958286;-83.92435;833.77;NaN;;0.0;16.389336;;5 / 15;37009;2022-10-28 14:32:04:702
-6.0787;-0.8342;5.2095;-6.4111;0.2586;7.4163;0.4919;-1.5329;-1.7519;0.1029;-0.2243;0.3024;56.0;11.87;35.89;0.71;344.49;0.3;38.76;5.0;994.02;40.649;35.958286;-83.92435;833.77;NaN;;0.0;16.389336;;5 / 15;37509;2022-10-28 14:32:05:202
-7.0663;-0.6846;3.8282;-5.8154;1.0524;7.8259;0.1541;-0.9265;-0.0851;-1.1203;0.4817;0.4052;54.0;25.09;27.06;16.67;311.77;-6.16;36.62;5.0;994.04;40.069;35.958286;-83.92435;833.77;NaN;;0.0;16.389336;;5 / 15;38009;2022-10-28 14:32:05:702
-8.6856;-1.7094;8.2418;-5.5887;-0.1647;8.0566;-0.0384;-0.0654;-1.9082;-0.1613;0.5753;0.4579;105.0;23.12;7.16;23.34;282.5;0.96;34.75;5.0;994.05;39.287;35.958286;-83.92435;833.77;NaN;;0.0;16.389336;;5 / 14;38509;2022-10-28 14:32:06:202
-9.6757;-3.2261;9.1932;-6.7012;-1.2098;7.057;-1.9679;-2.9713;4.1469;-1.3387;0.3046;1.1834;190.0;16.73;-2.66;17.81;264.08;6.9;38.11;5.0;994.12;47.756;35.958286;-83.92435;833.77;NaN;;0.0;16.389336;;5 / 14;39010;2022-10-28 14:32:06:703
-7.5377;-2.4849;7.8981;-6.031;-1.2532;7.6307;-3.8299;-2.6253;2.3764;-0.4413;0.0231;0.5608;190.0;6.49;-11.92;6.11;215.59;7.34;38.32;5.0;994.09;45.273;35.958286;-83.92435;833.77;NaN;;0.0;16.389336;;5 / 15;39510;2022-10-28 14:32:07:203
-5.5543;-0.583;6.7513;-6.4594;-1.2398;7.2739;-0.2182;-0.6793;0.0626;0.3716;-0.5421;0.3067;54.0;0.36;-16.91;-5.16;169.28;11.0;41.21;5.0;994.07;42.837;35.958286;-83.92435;833.77;NaN;;0.0;16.389336;;5 / 15;40010;2022-10-28 14:32:07:703
-8.6904;-2.5714;7.8431;-6.1706;-0.9072;7.5678;-0.9467;-1.1243;0.5662;-0.0911;0.7847;-0.1795;22.0;-7.13;-15.6;-15.58;137.02;5.31;39.19;5.0;994.12;38.744;35.958286;-83.92435;833.77;NaN;;0.0;16.389336;;5 / 15;40509;2022-10-28 14:32:08:202
-10.9484;-5.1185;9.2761;-6.3353;-1.7986;7.2663;1.6814;0.2082;0.0598;-0.7702;-0.3363;0.4248;21.0;-5.76;-12.41;-19.48;126.4;5.2;43.34;5.0;994.13;39.686;35.958286;-83.92435;833.77;NaN;;0.0;16.389336;;5 / 15;41011;2022-10-28 14:32:08:704
-6.737;-3.5707;7.0244;-6.5767;-1.3635;7.1455;0.2336;-0.1463;-0.429;-0.8298;0.8098;0.5101;21.0;0.34;-1.48;-18.21;103.08;7.99;42.63;5.0;994.13;43.396;35.958286;-83.92435;833.77;NaN;;0.0;16.389336;;5 / 15;41510;2022-10-28 14:32:09:203
-5.9064;-0.9829;3.3589;-6.8365;-1.9496;6.7551;-2.3628;-2.5326;3.3201;0.1732;0.3083;-0.6429;20.0;10.2;1.31;-8.57;200.33;11.47;45.34;5.0;994.13;44.717;35.958286;-83.92435;833.77;NaN;;0.0;16.389336;;5 / 15;42009;2022-10-28 14:32:09:702
-6.5145;-2.205;5.6261;-9.6791;-1.2748;0.9272;2.373;-1.5512;4.943;-0.3697;2.0799;0.9143;21.0;14.76;0.96;-6.41;227.6;12.06;59.02;5.0;994.19;46.52;35.958286;-83.92435;833.77;NaN;;0.0;16.389336;;6 / 15;42510;2022-10-28 14:32:10:203
-9.3574;-4.6624;-1.8517;-9.5014;-2.2902;0.8052;-0.0795;-1.4856;1.7782;2.1519;2.427;-0.6864;21.0;20.53;0.9;-6.79;157.1;12.89;75.89;5.0;994.22;47.795;35.958286;-83.92435;833.77;NaN;;0.0;16.389336;;6 / 15;43009;2022-10-28 14:32:10:702
-8.2813;-3.1663;0.3042;-8.2783;-5.243;0.3887;-1.8449;1.331;0.1501;-0.353;0.0093;-0.4778;12.0;22.46;2.25;-7.22;146.63;30.39;88.1;5.0;994.24;44.479;35.958286;-83.92435;833.77;NaN;;0.0;16.389336;;6 / 15;43509;2022-10-28 14:32:11:202
-6.2725;-2.2576;-1.2317;-8.9845;-3.9284;-0.1283;1.3803;-0.2993;0.664;0.0241;0.3845;0.2684;6.0;19.2;3.9;-6.09;121.95;23.61;90.82;5.0;994.29;48.346;35.958286;-83.92435;833.77;NaN;;0.0;16.389336;;6 / 15;44009;2022-10-28 14:32:11:702
-10.0804;-7.66;-1.7058;-8.8685;-4.134;-0.6558;-4.7466;-1.7122;-2.0033;-0.5533;-0.5027;1.5025;8.0;20.61;8.79;-10.46;91.77;24.93;94.23;5.0;994.29;44.979;35.958286;-83.92435;833.77;NaN;;0.0;16.389336;;4 / 15;44508;2022-10-28 14:32:12:201
-7.5437;-1.5658;-1.7142;-9.4493;-1.9503;-1.7541;-0.5456;-0.4574;-0.4479;-1.6095;-0.0511;-0.5167;14.0;35.78;-3.94;-25.52;104.03;6.54;97.69;5.0;994.35;59.039;35.958286;-83.92435;833.77;NaN;;0.0;16.389336;;4 / 15;45010;2022-10-28 14:32:12:703
-12.9676;-4.7234;0.577;-9.2221;-3.3296;-0.1941;-4.7704;1.9868;-0.1051;1.6374;-0.0939;1.9086;20.0;40.24;10.37;-33.19;96.64;19.85;91.21;5.0;994.3;42.557;35.958286;-83.92435;833.77;NaN;;0.0;16.389336;;5 / 15;45509;2022-10-28 14:32:13:202
-14.0785;-6.1421;-2.8777;-9.0933;-3.365;-1.4692;-2.4269;-2.4018;-0.6674;-1.6236;0.3099;-2.7293;28.0;42.15;-7.14;-40.71;100.21;1.73;95.93;5.0;994.31;52.236;35.958286;-83.92435;833.77;NaN;;0.0;16.389336;;5 / 15;46009;2022-10-28 14:32:13:702
-9.7283;-6.5611;-2.3198;-7.6085;-6.0797;-1.1484;-5.7285;0.3939;1.1904;0.7536;-0.7532;1.8868;41.0;21.83;30.24;-24.92;66.17;38.31;98.58;5.0;994.33;44.377;35.958286;-83.92435;833.77;NaN;;0.0;16.389336;;5 / 14;46508;2022-10-28 14:32:14:201
-9.3873;-2.7173;1.6603;-9.74;-1.0076;0.5363;-3.0618;-2.1429;-1.9714;-3.2957;0.7729;-0.5134;107.0;21.08;29.63;-13.74;29.55;7.82;93.63;5.0;994.35;49.855;35.958286;-83.92435;833.77;NaN;;0.0;16.389336;;5 / 14;47009;2022-10-28 14:32:14:702
-8.4607;-1.9092;5.4;-8.4249;0.0466;5.0189;1.0748;1.1357;-0.3899;0.1643;-0.3112;-0.3676;380.0;30.09;17.34;4.5;311.05;-0.27;59.22;5.0;994.3;40.074;35.958286;-83.92435;833.77;NaN;;0.0;16.389336;;4 / 14;47509;2022-10-28 14:32:15:202
-7.4384;0.917;3.6018;-9.1963;0.8542;3.2967;0.9916;-0.4352;-0.2483;-1.2132;-0.19;0.2855;458.0;31.52;6.19;5.23;298.6;-5.0;70.28;5.0;994.33;40.169;35.958286;-83.92435;833.77;NaN;;0.0;16.389336;;4 / 14;48009;2022-10-28 14:32:15:702
-11.2343;-2.3091;3.7277;-9.4092;0.0714;2.7627;-0.1018;-1.7311;0.9608;1.7305;0.1835;-0.3831;271.0;27.26;-1.52;7.8;262.69;1.38;62.85;5.0;994.35;52.938;35.958286;-83.92435;833.77;NaN;;0.0;16.389336;;4 / 15;48509;2022-10-28 14:32:16:202
-8.3339;1.4521;4.2628;-8.6523;0.2937;4.6068;-0.3317;-0.6268;0.1527;0.7673;-0.782;-0.1971;101.0;27.73;-0.34;1.67;281.73;-5.98;67.44;5.0;994.39;42.87;35.958286;-83.92435;833.77;NaN;;0.0;16.389336;;4 / 15;49010;2022-10-28 14:32:16:703
-7.2817;1.9741;0.7732;-9.3165;1.3748;2.7357;0.0033;0.6764;-1.5378;-0.4626;0.6505;0.509;9.0;31.91;2.51;-9.88;6.62;-3.06;73.6;5.0;994.4;45.298;35.958286;-83.92435;833.77;NaN;;0.0;16.389336;;4 / 15;49510;2022-10-28 14:32:17:203
-11.0201;-0.3843;1.2389;-9.6648;0.7074;1.5038;0.5108;-2.3957;1.3157;-1.4121;-0.9837;0.0437;8.0;38.66;4.54;-15.6;51.01;-4.14;81.16;5.0;994.44;45.994;35.958286;-83.92435;833.77;NaN;;0.0;16.389336;;4 / 15;50010;2022-10-28 14:32:17:703
-10.9484;-2.6133;6.5515;-6.728;0.3423;7.1265;-0.7749;1.3191;-4.8072;-0.5506;0.4726;1.0462;9.0;35.21;8.16;-25.74;321.32;-2.0;43.35;5.0;994.45;48.358;35.958286;-83.92435;833.77;NaN;;0.0;16.389336;;5 / 15;50510;2022-10-28 14:32:18:203
-4.5248;-0.285;9.5261;-4.3178;-2.2114;8.5227;-0.134;1.2519;0.6361;0.114;0.1355;-0.8676;25.0;22.65;16.82;-34.73;336.28;13.79;29.37;5.0;994.47;47.47;35.958286;-83.92435;833.77;NaN;;0.0;16.389336;;5 / 15;51009;2022-10-28 14:32:18:702
-5.2621;-0.2584;5.8367;-5.5644;-2.7823;7.5806;0.8691;0.915;0.8301;0.4013;0.3481;0.5501;56.0;11.94;27.92;-32.14;27.87;16.48;36.28;5.0;994.53;44.104;35.958286;-83.92435;833.77;NaN;;0.0;16.389336;;5 / 15;51510;2022-10-28 14:32:19:203
-6.8842;-5.5161;8.0345;-5.822;-6.1905;4.8941;1.5179;2.188;2.048;0.3992;-0.0517;-0.7153;53.0;8.74;35.72;-17.72;28.42;38.13;54.32;5.0;994.54;47.584;35.958286;-83.92435;833.77;NaN;;0.0;16.389336;;5 / 15;52009;2022-10-28 14:32:19:702
-8.2286;-10.194;-0.9338;-8.2777;-4.6322;-2.4885;5.0186;-0.3908;1.237;-2.5272;-0.9635;-1.8771;18.0;20.48;32.27;-8.01;33.54;28.19;106.73;5.0;994.55;48.726;35.958286;-83.92435;833.77;NaN;;0.0;16.389336;;5 / 15;52510;2022-10-28 14:32:20:203
-10.6992;-10.3472;-0.5471;-6.8536;-6.9899;-0.5829;-1.5946;0.7223;-1.3211;-0.7177;-1.0685;0.4876;2.0;11.68;35.21;2.49;352.47;51.84;91.88;5.0;994.57;39.587;35.958286;-83.92435;833.77;NaN;;0.0;16.389336;;5 / 15;53010;2022-10-28 14:32:20:703
-7.2159;-5.6189;2.278;-8.9372;-3.7468;1.5028;5.9847;-2.1453;-2.4656;-0.5778;2.5311;0.1483;3.0;27.23;24.6;3.66;327.43;22.46;80.46;5.0;994.58;44.891;35.958286;-83.92435;833.77;NaN;;0.0;16.389336;;6 / 15;53508;2022-10-28 14:32:21:201
-7.168;-2.5702;-0.8429;-7.3155;-6.5198;0.3821;-0.0539;3.9468;-1.2235;0.2937;-0.5338;0.1193;3.0;26.1;18.26;11.53;246.15;42.97;92.22;5.0;994.59;42.161;35.958286;-83.92435;833.77;NaN;;0.0;16.389336;;6 / 15;54008;2022-10-28 14:32:21:701
-5.1485;-3.3386;-0.8955;-8.9275;-4.0204;0.5542;2.4612;-0.1901;0.1058;-0.067;-0.3923;0.3085;1.0;25.76;15.79;5.55;298.39;24.2;86.45;5.0;994.61;43.813;35.958286;-83.92435;833.77;NaN;;0.0;16.389336;;6 / 15;54509;2022-10-28 14:32:22:202
-9.8145;-4.0472;1.2879;-7.9042;-5.7449;0.8311;1.0056;4.4394;-1.6706;-0.606;-0.4253;-0.5371;1.0;30.66;14.7;2.16;240.77;31.81;82.66;5.0;994.6;53.879;35.958286;-83.92435;833.77;NaN;;0.0;16.389336;;6 / 15;55009;2022-10-28 14:32:22:702
-7.0579;-4.7294;-1.4605;-9.5182;-2.2329;0.767;2.8159;-2.3791;-1.572;0.0579;0.3805;1.091;1.0;38.59;10.73;1.26;294.46;13.16;85.39;5.0;994.62;47.416;35.958286;-83.92435;833.77;NaN;;0.0;16.389336;;6 / 15;55510;2022-10-28 14:32:23:203
-11.9189;-4.721;-0.0227;-9.5239;-2.2471;0.646;1.2795;1.8221;0.7769;0.7661;-0.1051;0.0789;1.0;47.72;2.25;2.01;210.24;13.25;86.12;5.0;994.63;39.242;35.958286;-83.92435;833.77;NaN;;0.0;16.389336;;6 / 15;56009;2022-10-28 14:32:23:702
-7.9651;-1.7106;0.7804;-9.4892;-2.4702;0.1512;1.7704;-0.534;-0.4188;-0.4716;-0.0086;-0.2413;2.0;48.73;4.63;2.18;200.35;14.59;89.09;5.0;994.61;41.964;35.958286;-83.92435;833.77;NaN;;0.0;16.389336;;5 / 15;56509;2022-10-28 14:32:24:202
-7.5532;-0.6715;-0.5614;-9.1325;-3.5723;-0.0823;-2.9555;-0.8887;-0.8852;-0.0828;-0.1054;-0.1898;2.0;45.09;8.36;6.86;217.47;19.7;91.41;5.0;994.63;40.731;35.958286;-83.92435;833.77;NaN;;0.0;16.389336;;5 / 15;57008;2022-10-28 14:32:24:701
-8.2609;-2.4299;-0.6392;-9.2256;-3.3105;-0.3155;2.2792;0.0724;1.0516;0.764;0.884;-0.2252;2.0;41.81;10.28;11.87;254.72;17.64;90.31;5.0;994.68;46.048;35.958286;-83.92435;833.77;NaN;;0.0;16.389336;;4 / 15;57510;2022-10-28 14:32:25:203
-7.6816;-1.9451;-0.486;-9.0268;-3.8286;0.1694;0.8292;1.7662;-2.2008;-0.2843;-0.514;-0.1652;3.0;42.92;10.07;9.92;235.22;22.98;88.92;5.0;994.7;49.036;35.958286;-83.92435;833.77;NaN;;0.0;16.389336;;4 / 15;58010;2022-10-28 14:32:25:703
-9.0425;-5.4622;-0.2477;-8.9359;-4.0322;-0.2473;0.017;-0.6142;-0.7926;-1.3487;-0.5842;-0.1862;2.0;41.03;16.58;-0.53;122.19;24.28;91.59;5.0;994.71;48.601;35.958286;-83.92435;833.77;NaN;;0.0;16.389336;;3 / 15;58510;2022-10-28 14:32:26:203
-9.714;-5.31;-0.839;-8.7877;-4.3458;-0.2464;-3.0443;-3.8433;0.1015;0.4025;1.2054;0.108;2.0;38.51;20.81;-8.44;79.72;26.31;91.61;5.0;994.75;46.946;35.958286;-83.92435;833.77;NaN;;0.0;16.389336;;3 / 15;59009;2022-10-28 14:32:26:702
-6.9081;-2.5295;-0.492;-8.3226;-5.1614;0.514;0.5792;1.816;-1.7662;0.5253;-0.1308;-0.4102;2.0;38.85;21.51;-12.62;88.89;29.04;89.48;5.0;994.78;45.75;35.958286;-83.92435;833.77;NaN;;0.0;16.389336;;4 / 15;59510;2022-10-28 14:32:27:203
-8.2382;-6.3706;-0.6404;-8.2589;-5.2845;-0.1896;0.3462;-0.6713;-0.3253;-1.861;-0.7208;-0.9995;1.0;34.48;13.52;-8.92;111.63;27.33;88.7;5.0;994.81;46.901;35.958286;-83.92435;833.77;NaN;;0.0;16.389336;;4 / 15;60008;2022-10-28 14:32:27:701
-10.0756;-6.8447;-3.5145;-8.1994;-5.3762;0.1897;-2.169;0.6607;-1.5856;-0.3819;-0.3544;1.0469;1.0;26.96;-1.05;-6.75;157.93;33.25;88.67;5.0;994.84;48.654;35.958286;-83.92435;833.77;NaN;;0.0;16.389336;;4 / 15;60509;2022-10-28 14:32:28:202
-6.7645;-5.7517;-0.6488;-8.4426;-4.9872;0.146;-0.8243;-1.2864;0.0711;-0.8419;-0.5942;-0.212;6.0;19.44;-7.95;-14.59;135.82;24.16;89.2;5.0;994.82;51.259;35.958286;-83.92435;833.77;NaN;;0.0;16.389336;;4 / 15;61010;2022-10-28 14:32:28:703
-8.0907;-6.4774;-0.7421;-6.9153;-6.9335;-0.5247;-7.1286;-1.3774;0.8233;0.4841;0.5904;-0.0694;11.0;14.23;1.88;-22.24;107.56;44.99;94.34;5.0;994.84;40.614;35.958286;-83.92435;833.77;NaN;;0.0;16.389336;;4 / 15;61509;2022-10-28 14:32:29:202
-11.7586;-5.1748;-2.4586;-9.227;-3.3074;-0.3057;1.556;-3.1327;0.2706;-0.0257;-0.0904;-1.0424;12.0;28.14;-4.58;-22.07;121.24;19.71;91.9;5.0;994.81;59.402;35.958286;-83.92435;833.77;NaN;;0.0;16.389336;;4 / 15;62009;2022-10-28 14:32:29:702
-8.6222;-6.0655;0.6045;-7.7498;-5.9844;-0.5455;-4.2589;-0.635;0.5473;-0.8945;-0.8825;1.0053;27.0;31.28;8.14;-14.19;126.47;37.61;94.03;5.0;994.83;44.567;35.958286;-83.92435;833.77;NaN;;0.0;16.389336;;5 / 15;62510;2022-10-28 14:32:30:203
-6.2689;-2.6815;3.3709;-7.4981;-1.7247;6.0807;-2.8178;-1.6637;-2.4036;-0.6514;-4.6172;1.0671;95.0;31.13;10.93;-10.39;52.71;12.63;80.67;5.0;994.81;40.176;35.958286;-83.92435;833.77;NaN;;0.0;16.389336;;5 / 15;63009;2022-10-28 14:32:30:702
-5.6883;-0.7289;7.9173;-6.2445;-0.2123;7.5586;0.9742;-0.2358;-0.3453;-0.2889;0.9897;0.0573;263.0;21.49;4.39;-28.78;347.0;-0.65;34.28;5.0;994.83;39.588;35.958286;-83.92435;833.77;NaN;;0.0;16.389336;;5 / 14;63510;2022-10-28 14:32:31:203
0.3389;5.4072;5.9411;-4.2003;4.4816;7.6448;-1.2069;-3.5606;1.3132;2.0944;-0.5391;1.9148;310.0;18.68;-5.53;-27.28;339.3;-27.19;28.79;5.0;994.77;39.862;35.958286;-83.92435;833.77;NaN;;0.0;16.389336;;5 / 14;64010;2022-10-28 14:32:31:703
-4.2927;3.8809;9.9619;-3.6802;3.5809;8.3548;0.86;1.3087;-2.433;-0.4178;-0.0334;-0.2572;215.0;7.11;-18.86;-22.82;162.29;-21.42;23.77;5.0;994.84;42.909;35.958286;-83.92435;833.77;NaN;;0.0;16.389336;;5 / 14;64509;2022-10-28 14:32:32:202
-7.235;4.034;5.7541;-6.5388;3.4834;6.425;2.4282;0.0225;-1.5758;-0.293;0.5134;0.0143;120.0;4.8;-17.44;-18.84;134.56;-20.81;45.5;5.0;994.87;41.123;35.958286;-83.92435;833.77;NaN;;0.0;16.389336;;5 / 14;65010;2022-10-28 14:32:32:703
-9.7247;2.0602;8.2705;-6.6878;3.4989;6.261;0.3117;-0.3597;0.174;0.5217;-0.757;0.0144;29.0;3.02;-13.89;-20.36;121.82;-18.88;50.36;5.0;994.88;45.338;35.958286;-83.92435;833.77;NaN;;0.0;16.389336;;4 / 14;65509;2022-10-28 14:32:33:202
-10.0026;3.8725;12.3512;-6.1998;2.8156;7.0573;-2.6433;1.1659;4.578;0.6333;-0.1977;-0.1873;7.0;-0.86;-7.67;-25.57;94.21;-19.47;42.14;5.0;994.92;47.384;35.958286;-83.92435;833.77;NaN;;0.0;16.389336;;4 / 14;66009;2022-10-28 14:32:33:702
-6.7681;3.6775;5.2382;-6.7011;3.4554;6.271;-3.0216;-0.6244;0.3715;-0.8765;-0.4687;0.1389;7.0;0.28;1.63;-29.57;67.45;-20.63;46.9;5.0;994.92;46.892;35.958286;-83.92435;833.77;NaN;;0.0;16.389336;;5 / 14;66509;2022-10-28 14:32:34:202
-3.705;3.8067;2.849;-7.5821;2.5972;5.6513;1.8095;1.0112;-2.2893;0.0424;-0.243;-0.0226;8.0;8.46;8.12;-29.79;54.93;-15.13;54.73;5.0;994.93;44.849;35.958286;-83.92435;833.77;NaN;;0.0;16.389336;;5 / 14;67009;2022-10-28 14:32:34:702
-5.5041;3.7923;5.5125;-6.6124;2.6707;6.7316;0.2366;-1.4514;-0.7544;-0.8227;-0.0235;0.625;10.0;8.06;18.11;-33.28;34.59;-15.8;44.49;5.0;994.93;45.671;35.958286;-83.92435;833.77;NaN;;0.0;16.389336;;5 / 14;67510;2022-10-28 14:32:35:203
-2.5893;-0.6033;11.7048;-2.1025;3.0252;9.0883;0.1273;-2.1802;0.2092;1.1261;-1.1986;-0.543;16.0;2.93;24.43;-39.37;9.58;-17.97;13.03;5.0;995.0;43.119;35.958286;-83.92435;833.77;NaN;;0.0;16.389336;;5 / 14;68008;2022-10-28 14:32:35:701
-2.7879;1.2915;9.1777;-4.4055;1.9621;8.5388;1.9145;-0.5464;-2.2999;-0.7537;-0.5362;0.5946;16.0;-13.39;25.46;-42.37;45.04;-11.54;27.29;5.0;995.01;44.171;35.958286;-83.92435;833.77;NaN;;0.0;16.389336;;4 / 14;68510;2022-10-28 14:32:36:203
-9.5441;-1.8625;11.968;-3.4612;-0.1831;9.1737;1.7085;2.3486;-1.245;-0.1871;0.2174;-0.3263;39.0;-9.96;32.91;-33.13;32.35;0.83;19.93;5.0;995.06;38.711;35.958286;-83.92435;833.77;NaN;;0.0;16.389336;;4 / 14;69009;2022-10-28 14:32:36:702
-8.6605;-4.2075;6.2892;-6.7065;-1.7741;6.9315;-1.65;-4.7592;4.7633;-0.5296;-0.6124;1.1618;48.0;12.28;26.57;-16.44;3.78;5.55;41.6;5.0;995.06;48.558;35.958286;-83.92435;833.77;NaN;;0.0;16.389336;;4 / 14;69510;2022-10-28 14:32:37:203
-8.4416;-2.7209;11.0608;-5.8691;-1.5277;7.7065;-0.7189;-0.2614;2.3541;0.8827;-0.285;-0.2031;27.0;26.85;11.63;-3.06;294.43;8.96;37.29;5.0;995.05;36.946;35.958286;-83.92435;833.77;NaN;;0.0;16.389336;;4 / 14;70010;2022-10-28 14:32:37:703
-6.8387;-3.3661;13.5242;-5.8604;-0.0656;7.8627;-1.1287;-1.1428;-1.1812;-1.494;0.1133;0.9194;28.0;24.32;-2.23;-19.01;254.43;0.38;36.7;5.0;995.07;39.731;35.958286;-83.92435;833.77;NaN;;0.0;16.389336;;4 / 14;70509;2022-10-28 14:32:38:202
-9.1968;-2.144;8.5624;-7.176;-1.447;6.5254;1.9035;0.6689;1.8622;0.0367;-0.4742;0.0761;37.0;26.61;-9.71;-18.37;198.34;8.49;47.72;5.0;995.06;35.259;35.958286;-83.92435;833.77;NaN;;0.0;16.389336;;4 / 14;71009;2022-10-28 14:32:38:702
-5.0432;-0.868;5.9638;-5.4801;1.5771;7.9782;-1.6037;-3.1502;-1.7192;-0.0608;-0.1567;1.7201;19.0;34.35;-2.19;-12.36;267.09;-1.89;37.13;5.0;995.03;37.152;35.958286;-83.92435;833.77;NaN;;0.0;16.389336;;4 / 14;71508;2022-10-28 14:32:39:201
-5.54;2.0578;8.9013;-5.473;1.354;8.0239;0.5075;0.8061;0.5409;-0.4235;0.2766;1.1567;5.0;34.93;-10.07;-15.09;252.35;-6.06;33.98;5.0;995.04;37.8;35.958286;-83.92435;833.77;NaN;;0.0;16.389336;;4 / 14;72009;2022-10-28 14:32:39:702
-4.9199;2.3462;7.18;-4.7585;2.9373;8.056;-1.0217;-0.9864;-1.0126;0.2046;-0.2671;0.0556;4.0;34.2;-22.07;-12.04;241.24;-17.43;30.57;5.0;995.03;34.385;35.958286;-83.92435;833.77;NaN;;0.0;16.389336;;2 / 14;72510;2022-10-28 14:32:40:203
-2.8932;2.4275;11.3982;-4.4814;3.0436;8.1746;1.5522;-0.2482;-2.2108;-0.7709;-0.4726;0.2461;4.0;38.7;-25.09;-6.54;241.48;-17.43;32.7;5.0;995.05;32.085;35.958286;-83.92435;833.77;NaN;;0.0;16.389336;;2 / 14;73009;2022-10-28 14:32:40:702
-3.6066;2.8202;5.6034;-5.5773;2.9184;7.5198;-3.6389;-0.0698;0.4954;-0.4767;0.4616;0.0404;4.0;44.33;-24.3;-1.57;246.8;-17.31;36.56;5.0;995.1;44.002;35.958286;-83.92435;833.77;NaN;;0.0;16.389336;;2 / 14;73508;2022-10-28 14:32:41:201
-2.825;2.5965;5.5388;-4.4763;1.6451;8.569;-0.6393;-0.5496;0.6892;1.0891;0.5507;-0.4899;4.0;40.29;-21.3;-7.01;242.8;-9.66;27.58;5.0;995.09;44.715;35.958286;-83.92435;833.77;NaN;;0.0;16.389336;;2 / 14;74008;2022-10-28 14:32:41:701
-5.3821;1.0654;6.093;-4.6923;-0.2864;8.6064;-0.4327;-1.5531;1.0011;0.2608;0.1177;0.7896;7.0;29.55;-13.82;-11.42;235.11;1.67;28.6;5.0;995.14;43.963;35.958286;-83.92435;833.77;NaN;;0.0;16.389336;;2 / 14;74510;2022-10-28 14:32:42:203
-9.9248;-3.7636;9.4149;-4.9214;-1.1872;8.3989;0.0032;0.9317;-0.6148;0.8531;-0.4644;-0.8914;10.0;21.45;-8.31;-10.84;226.07;9.07;33.1;5.0;995.17;44.296;35.958286;-83.92435;833.77;NaN;;0.0;16.389336;;2 / 14;75009;2022-10-28 14:32:42:702
-7.436;-2.4634;11.4664;-6.1031;-0.7454;7.6398;0.0959;-1.5624;2.0576;0.1586;0.4212;0.1548;10.0;22.78;-2.76;-4.59;255.75;3.85;33.98;5.0;995.17;41.036;35.9583;-83.9243;834.8;NaN;;1.69;433.01215;280.1;1 / 14;75509;2022-10-28 14:32:43:202
-5.6249;-2.3258;9.259;-6.228;-0.6264;7.5492;-3.5736;-0.3789;-1.2449;-0.9345;-0.151;0.6309;11.0;31.65;-4.46;4.28;259.4;3.66;39.52;5.0;995.2;40.95;35.9583;-83.9243;834.8;NaN;;1.69;433.01215;280.1;1 / 14;76009;2022-10-28 14:32:43:702
-5.9435;0.9147;7.7246;-6.6115;-0.3459;7.2346;0.4789;2.2964;-2.6165;-0.5745;-0.7113;-0.7171;14.0;32.98;-4.5;17.96;263.26;2.02;42.42;5.0;995.23;42.671;35.9583;-83.9243;834.8;NaN;;1.69;433.01215;280.1;1 / 14;76508;2022-10-28 14:32:44:201
-5.5938;1.8194;4.8398;-6.0534;0.216;7.7124;0.6692;0.0471;-0.4027;0.2853;-0.3461;0.1145;17.0;25.8;-3.07;22.22;264.92;-1.26;38.13;5.0;995.27;43.362;35.9583;-83.9243;834.8;NaN;;1.69;433.01215;280.1;1 / 14;77010;2022-10-28 14:32:44:703
-12.1202;-2.388;8.8211;-6.5928;-1.2039;7.1593;-1.6104;-2.0667;3.4659;0.2957;-0.5236;-0.9591;25.0;15.08;-3.9;7.89;256.01;1.75;41.57;5.0;995.28;40.87;35.958286;-83.92435;832.21;NaN;;0.0;576.42554;;0 / 14;77510;2022-10-28 14:32:45:203
-8.6821;-2.205;5.7434;-7.2944;-0.0458;6.5544;-2.2169;-2.3294;0.3155;-0.5876;-0.0328;1.0029;27.0;5.59;11.16;-7.05;7.06;3.62;48.63;5.0;995.3;42.954;35.958286;-83.92435;832.21;NaN;;0.0;576.42554;;0 / 14;78009;2022-10-28 14:32:45:702
-8.7613;-0.8366;7.302;-6.8074;0.4237;7.0463;-3.8515;-1.2611;2.2841;0.7097;-0.3024;0.2588;17.0;11.74;4.44;-9.62;340.18;-2.48;44.01;5.0;995.28;37.556;35.958286;-83.92435;832.21;NaN;;0.0;576.42554;;2 / 14;78508;2022-10-28 14:32:46:201
-8.5421;-0.9099;5.0157;-6.8847;0.7362;6.9448;-4.6056;-2.7242;3.5001;0.068;-0.8948;0.8849;19.0;5.49;-7.93;-22.91;116.17;-3.91;47.5;5.0;995.31;36.086;35.958286;-83.92435;832.21;NaN;;0.0;576.42554;;2 / 14;79009;2022-10-28 14:32:46:702
-10.3555;-0.7361;9.2459;-6.8095;0.3644;7.0476;0.0771;1.5708;-0.4102;-0.7753;0.0552;0.1729;26.0;-15.43;-20.76;-56.19;111.8;-2.13;44.02;5.0;995.28;35.128;35.958286;-83.92435;832.21;NaN;;0.0;576.42554;;2 / 14;79510;2022-10-28 14:32:47:203
-6.0141;2.3653;4.3131;-5.8699;3.0656;7.233;1.1818;0.3249;-1.4679;-0.7061;0.6861;0.441;15.0;-17.94;-38.76;-56.94;118.2;-18.22;39.06;5.0;995.28;33.445;35.958286;-83.92435;832.21;NaN;;0.0;576.42554;;2 / 14;80009;2022-10-28 14:32:47:702
-5.3426;1.7883;7.5688;-6.8142;1.5589;6.878;1.5525;-0.5682;-2.7183;-0.9419;0.2957;0.0288;5.0;-0.08;-22.86;-57.04;112.08;-9.15;44.73;5.0;995.29;38.185;35.958286;-83.92435;832.21;NaN;;0.0;576.42554;;2 / 13;80509;2022-10-28 14:32:48:202
-5.3028;-0.1161;3.3099;-7.0424;2.447;6.3708;-1.266;-3.3118;-1.3631;0.5146;-0.1112;0.7979;5.0;12.36;-11.21;-56.06;97.52;-8.0;47.9;5.0;995.3;41.411;35.958286;-83.92435;832.21;NaN;;0.0;576.42554;;2 / 13;81009;2022-10-28 14:32:48:702
-7.4934;1.2377;8.8846;-7.8942;1.2392;5.6848;0.2068;-0.2991;2.8317;0.1785;-0.3019;-0.9805;5.0;25.13;-12.13;-50.23;92.04;-12.67;55.36;5.0;995.29;37.654;35.958286;-83.92435;832.21;NaN;;0.0;576.42554;;3 / 14;81509;2022-10-28 14:32:49:202
-9.5991;-0.1256;4.3406;-8.1323;1.9607;5.1178;-0.4293;-1.8275;-2.0249;0.0867;1.6368;-0.0505;6.0;34.29;-1.41;-44.61;64.41;-11.53;57.82;5.0;995.34;41.341;35.958286;-83.92435;832.21;NaN;;0.0;576.42554;;3 / 14;82010;2022-10-28 14:32:49:703
-6.7597;2.3426;3.6643;-8.0896;0.2194;5.539;-0.8793;1.7057;-0.2823;-0.0129;0.768;1.0582;7.0;38.59;9.94;-35.61;34.47;-1.28;55.6;5.0;995.33;42.109;35.958286;-83.92435;832.21;NaN;;0.0;576.42554;;4 / 14;82510;2022-10-28 14:32:50:203
-3.6595;2.8143;6.099;-7.0416;2.887;6.1848;-0.2616;-0.2525;-1.5156;-0.8262;-0.4768;1.311;18.0;37.65;12.43;-30.71;356.06;-17.12;48.71;5.0;995.39;46.048;35.958286;-83.92435;832.21;NaN;;0.0;576.42554;;4 / 14;83010;2022-10-28 14:32:50:703
-14.7476;0.268;6.5121;-7.0643;1.6362;6.6022;-0.9914;-0.758;-0.0206;0.676;1.3054;0.0331;29.0;30.69;10.46;-24.54;332.49;-3.35;41.88;5.0;995.41;44.839;35.958286;-83.92435;832.21;NaN;;0.0;576.42554;;4 / 14;83509;2022-10-28 14:32:51:202
-8.6749;2.6575;5.048;-7.5689;1.5856;6.0306;-0.6548;1.1272;-0.8006;-0.0095;0.934;0.3318;45.0;31.2;13.82;-15.58;330.13;-6.38;45.84;5.0;995.44;42.306;35.958286;-83.92435;832.21;NaN;;0.0;576.42554;;4 / 14;84010;2022-10-28 14:32:51:703
-6.4519;3.1926;3.711;-7.3452;2.0532;6.1647;0.6784;0.9828;-0.9262;-0.0245;0.079;-0.1545;66.0;37.07;20.78;-11.1;331.21;-12.09;49.99;5.0;995.47;50.848;35.958286;-83.92435;832.21;NaN;;0.0;576.42554;;2 / 14;84509;2022-10-28 14:32:52:202
-6.2916;1.5622;6.3407;-7.4471;0.7604;6.335;2.3852;0.9606;-1.131;-0.843;0.2153;0.3664;62.0;40.09;22.97;-9.28;324.12;-6.23;49.12;5.0;995.45;42.34;35.958286;-83.92435;832.21;NaN;;0.0;576.42554;;2 / 14;85009;2022-10-28 14:32:52:702
-5.4144;1.331;4.544;-6.6746;1.4648;7.0338;-0.7241;-1.3074;-1.107;-0.2252;-0.3487;0.86;31.0;43.48;21.71;-7.29;315.6;-8.59;43.5;5.0;995.45;40.223;35.958286;-83.92435;832.21;NaN;;0.0;576.42554;;2 / 14;85510;2022-10-28 14:32:53:203
-6.4726;2.2457;6.9488;-6.8305;1.3672;6.9026;2.5846;0.8372;-1.9074;-0.9629;0.211;0.4976;32.0;55.05;3.71;-3.45;284.63;-8.01;44.7;5.0;995.46;42.21;35.958286;-83.92435;832.21;NaN;;0.0;576.42554;;2 / 14;86009;2022-10-28 14:32:53:702
-4.7728;1.4785;4.3848;-6.1539;2.0011;7.3686;-3.1729;-1.578;-0.9011;-0.3302;0.4265;0.8381;53.0;52.33;-10.18;-7.44;266.94;-11.77;39.87;5.0;995.45;40.875;35.958527;-83.924286;834.02;NaN;;4.25;703.58575;16.8;2 / 14;86509;2022-10-28 14:32:54:202
-7.9388;-0.7433;7.9531;-6.297;0.8545;7.4692;-2.6748;-0.7601;0.4863;-1.5764;-1.0382;0.4838;35.0;43.22;-25.76;-16.76;228.39;-11.95;44.46;5.0;995.45;35.809;35.958527;-83.924286;834.02;NaN;;4.25;703.58575;16.8;2 / 14;87010;2022-10-28 14:32:54:703
-6.5587;0.2261;8.6402;-5.6736;0.043;7.9987;-1.0196;0.1093;0.7617;-0.2159;0.1704;-0.224;3.0;27.19;-38.81;-30.22;187.64;-0.94;34.66;5.0;995.44;31.762;35.958527;-83.924286;834.02;NaN;;4.25;703.58575;16.8;2 / 14;87509;2022-10-28 14:32:55:202
-5.4706;0.7768;6.3682;-6.0969;1.012;7.6141;0.579;-0.8843;-1.2469;0.0583;0.1586;0.3718;2.0;28.54;-54.13;-17.01;193.39;-5.92;38.69;5.0;995.44;35.05;35.958527;-83.924286;834.02;NaN;;4.25;703.58575;16.8;2 / 14;88009;2022-10-28 14:32:55:702
-3.6401;1.835;4.532;-6.7869;1.1912;6.9777;2.6609;0.3211;-1.3469;1.5047;0.8937;-0.226;2.0;23.96;-58.59;-9.19;191.09;-6.98;44.21;5.0;995.45;42.654;35.958527;-83.924286;834.02;NaN;;4.25;703.58575;16.8;0 / 14;88509;2022-10-28 14:32:56:202
-4.7871;1.4174;4.7378;-7.286;1.9757;6.2594;0.6461;-1.256;0.7002;-0.7352;0.1341;0.7182;1.0;28.74;-51.49;-1.5;201.78;-11.62;49.33;5.0;995.53;44.928;35.958527;-83.924286;834.02;NaN;;4.25;703.58575;16.8;0 / 14;89009;2022-10-28 14:32:56:702
-7.5162;0.8752;6.4508;-7.0412;1.8974;6.5568;0.0966;-0.2122;-0.8673;0.7329;-0.6311;-0.4354;1.0;21.21;-44.59;-9.77;188.86;-10.58;48.94;5.0;995.53;46.107;35.958527;-83.924286;834.02;NaN;;4.25;703.58575;16.8;0 / 14;89509;2022-10-28 14:32:57:202
-8.3865;-0.6823;9.0329;-7.5797;-0.4002;6.2095;-0.5978;-0.0018;2.5178;-0.8058;-0.4401;-0.5947;0.0;21.28;-36.64;-21.62;171.19;-5.0;53.72;5.0;995.58;45.735;35.958527;-83.924286;834.02;NaN;;4.25;703.58575;16.8;0 / 14;90010;2022-10-28 14:32:57:703
-7.8179;-1.6747;7.43;-7.4789;1.2454;6.2198;-2.3558;-2.4463;-0.8007;-0.0483;0.321;0.304;2.0;22.11;-26.16;-31.89;153.4;-7.3;50.25;5.0;995.57;44.831;35.958527;-83.924286;834.02;NaN;;4.25;703.58575;16.8;0 / 14;90509;2022-10-28 14:32:58:202
-6.4618;3.0248;2.5618;-8.262;2.2628;4.7739;-0.5355;1.0626;-0.0515;1.2599;0.7878;-0.0621;2.0;25.29;-25.82;-30.28;156.52;-8.5;52.72;5.0;995.6;44.614;35.958527;-83.924286;834.02;NaN;;4.25;703.58575;16.8;0 / 14;91010;2022-10-28 14:32:58:703
-7.296;2.9052;2.9614;-8.7102;3.0977;3.2721;-1.6058;-0.1851;-1.224;-1.5415;-0.2053;0.3718;1.0;34.8;-24.13;-18.64;152.02;-18.41;69.41;5.0;995.63;41.565;35.958527;-83.924286;834.02;NaN;;4.25;703.58575;16.8;0 / 14;91509;2022-10-28 14:32:59:202
-10.7662;2.5077;5.467;-8.4131;2.5639;4.3379;1.7172;0.9625;0.0716;-0.0326;0.9076;-0.3962;3.0;35.08;-19.89;-23.7;147.47;-15.16;62.72;5.0;995.65;43.742;35.958527;-83.924286;834.02;NaN;;4.25;703.58575;16.8;0 / 14;92010;2022-10-28 14:32:59:703
-10.8033;-0.213;7.4599;-8.4104;1.7291;4.7377;-1.417;-0.9771;-1.7772;-0.6556;0.3309;0.8098;11.0;33.62;-19.69;-29.44;144.33;-10.16;60.61;5.0;995.64;47.43;35.958527;-83.924286;834.02;NaN;;4.25;703.58575;16.8;0 / 14;92510;2022-10-28 14:33:00:203
-8.231;0.711;3.1496;-8.228;1.8104;5.0192;-1.9764;0.2597;2.2239;-0.0272;0.6843;-0.075;23.0;32.08;-20.55;-33.51;138.86;-9.82;57.31;5.0;995.64;43.96;35.958527;-83.924286;834.02;NaN;;4.25;703.58575;16.8;0 / 14;93009;2022-10-28 14:33:00:702
-12.0879;0.687;10.0923;-7.0592;2.3516;6.3881;-4.2153;-1.4041;-1.2655;-2.2483;-1.7877;0.7;7.0;25.39;-35.66;-28.56;148.66;-19.73;61.01;5.0;995.63;42.932;35.958527;-83.924286;834.02;NaN;;4.25;703.58575;16.8;0 / 14;93509;2022-10-28 14:33:01:202
-7.2613;2.144;9.9212;-4.3694;3.6189;7.9989;-0.4129;0.031;-0.6714;0.4367;-0.7607;0.418;16.0;-1.84;-33.88;-42.51;128.87;-21.66;28.65;5.0;995.63;33.015;35.958527;-83.924286;834.02;NaN;;4.25;703.58575;16.8;0 / 14;94009;2022-10-28 14:33:01:702
-4.174;2.9411;8.7972;-4.7934;2.8495;8.0669;0.8846;0.1154;0.0918;-0.6089;0.3173;0.4599;35.0;-23.03;-42.75;-39.02;131.25;-16.89;30.72;5.0;995.63;36.198;35.958527;-83.924286;834.02;NaN;;4.25;703.58575;16.8;0 / 14;94510;2022-10-28 14:33:02:203
-5.8259;2.6192;6.4702;-5.7464;2.3783;7.5824;-0.5881;-0.6357;-0.7089;-0.6586;0.2937;0.7468;33.0;-29.34;-37.07;-47.53;120.64;-14.04;37.16;5.0;995.63;33.41;35.958527;-83.924286;834.02;NaN;;4.25;703.58575;16.8;0 / 14;95009;2022-10-28 14:33:02:702
-5.2908;1.4004;6.0248;-5.6806;2.3957;7.6264;-0.8583;-1.3836;0.5446;0.0407;-0.1842;0.0478;8.0;-34.67;-22.82;-58.71;104.06;-14.14;36.68;5.0;995.63;38.573;35.958527;-83.924286;834.02;NaN;;4.25;703.58575;16.8;0 / 14;95509;2022-10-28 14:33:03:202
-6.1373;2.8561;8.158;-5.1058;2.2648;8.0605;-0.9754;0.4211;0.415;-0.9025;-0.1117;0.3215;7.0;-39.07;-21.67;-58.48;102.36;-16.91;37.3;5.0;995.64;32.019;35.958527;-83.924286;834.02;NaN;;4.25;703.58575;16.8;0 / 14;96009;2022-10-28 14:33:03:702
-2.7879;2.3928;7.7115;-1.8345;3.4582;8.9914;-1.7976;-0.8857;-0.1275;0.9496;-0.4859;-0.0957;5.0;-60.64;-12.79;-51.79;88.77;-20.65;11.53;5.0;995.67;39.585;35.958527;-83.924286;834.02;NaN;;4.25;703.58575;16.8;0 / 12;96510;2022-10-28 14:33:04:203
-0.5435;4.5846;9.361;-1.4817;4.3082;8.6842;0.4261;-0.4248;-0.4747;1.0523;-1.6912;-0.0415;4.0;-78.75;-22.5;-39.34;101.27;-18.81;19.41;5.0;995.68;58.79;35.958527;-83.924286;834.02;NaN;;4.25;703.58575;16.8;0 / 12;97009;2022-10-28 14:33:04:702
1.1073;0.571;15.0218;0.5851;1.8498;9.6128;-1.1269;0.2499;-0.9994;-0.5669;-0.1155;-0.5118;4.0;-84.54;-21.77;-34.16;99.75;-10.87;-3.48;5.0;995.73;44.689;35.958527;-83.924286;834.02;NaN;;4.25;703.58575;16.8;0 / 14;97509;2022-10-28 14:33:05:202
0.0742;3.7792;11.5469;-0.4623;2.3411;9.5119;-0.592;-0.5011;0.1273;-0.0883;-1.1974;-0.0809;4.0;-72.99;-19.29;-34.73;99.06;-14.92;8.93;5.0;995.76;44.523;35.958527;-83.924286;834.02;NaN;;4.25;703.58575;16.8;0 / 14;98010;2022-10-28 14:33:05:703
-0.9673;-0.699;10.6561;-2.1937;-0.8169;9.5232;0.5411;-1.3785;0.7945;0.1035;0.0701;1.2647;4.0;-50.77;8.1;-43.44;84.77;4.78;12.97;5.0;995.78;43.106;35.958527;-83.924286;834.02;NaN;;4.25;703.58575;16.8;0 / 13;98509;2022-10-28 14:33:06:202
-2.2851;-0.1842;7.8455;-1.8404;1.1883;9.5588;-0.2558;-2.8686;-2.6382;1.1175;0.179;0.4742;6.0;-29.16;20.34;-36.69;56.37;-6.96;10.9;5.0;995.77;44.923;35.958527;-83.924286;834.02;NaN;;4.25;703.58575;16.8;0 / 13;99009;2022-10-28 14:33:06:702
-2.1236;0.3532;10.0026;-1.8995;1.0007;9.5687;-0.0442;-0.4357;0.3828;0.5127;-0.2636;0.5359;7.0;-24.77;7.95;-32.87;74.82;-1.53;13.59;5.0;995.8;42.233;35.958527;-83.924286;834.02;NaN;;4.25;703.58575;16.8;0 / 13;99509;2022-10-28 14:33:07:202
-2.0112;1.5144;10.7758;-2.178;0.761;9.5314;-1.018;-0.2669;0.5563;0.6086;0.5597;0.0815;9.0;-16.63;4.99;-25.84;73.42;-4.45;12.87;5.0;995.83;38.232;35.958527;-83.924286;834.02;NaN;;4.25;703.58575;16.8;0 / 13;100009;2022-10-28 14:33:07:702