ACCELEROMETER X (m/s²);ACCELEROMETER Y (m/s²);ACCELEROMETER Z (m/s²);GRAVITY X (m/s²);GRAVITY Y (m/s²);GRAVITY Z (m/s²);LINEAR ACCELERATION X (m/s²);LINEAR ACCELERATION Y (m/s²);LINEAR ACCELERATION Z (m/s²);GYROSCOPE X (rad/s);GYROSCOPE Y (rad/s);GYROSCOPE Z (rad/s);LIGHT (lux);MAGNETIC FIELD X (μT);MAGNETIC FIELD Y (μT);MAGNETIC FIELD Z (μT);ORIENTATION Z (azimuth °);ORIENTATION X (pitch °);ORIENTATION Y (roll °);PROXIMITY (i);ATMOSPHERIC PRESSURE (hPa);SOUND LEVEL (dB);LOCATION Latitude : ;LOCATION Longitude : ;LOCATION Altitude ( m);LOCATION Altitude-google ( m);LOCATION Altitude-atmospheric pressure ( m);LOCATION Speed ( Kmh);LOCATION Accuracy ( m);LOCATION ORIENTATION (°);Satellites in range;Time since start in ms ;YYYY-MO-DD HH-MI-SS_SSS
1.7895;3.335;9.3431;-0.6791;2.9154;9.3386;1.0107;1.3633;-0.8441;-0.5698;-0.1465;-1.1362;601.0;-13.84;-40.54;-29.29;152.49;-17.29;4.16;2.0;987.65;25.581;35.95823;-83.92461;766.03;NaN;;0.0;31.57406;;0 / 16;10;2022-10-22 18:53:21:752
0.3724;1.6735;9.125;1.187;2.0214;9.5224;-0.8676;-0.1894;-0.2168;0.4704;-0.076;0.0773;630.0;-8.81;-37.63;-33.26;171.87;-7.89;-7.34;2.0;987.64;44.101;35.958225;-83.92461;766.72;NaN;;0.0;25.109997;;9 / 16;510;2022-10-22 18:53:22:252
-1.1587;0.2874;8.5648;0.0803;0.6645;9.7838;0.7107;-0.6387;1.5973;1.2069;-0.0821;0.4035;538.0;-4.46;-35.36;-35.55;173.49;-3.89;-0.47;2.0;987.62;51.509;35.958225;-83.92461;766.72;NaN;;0.0;25.109997;;9 / 16;1010;2022-10-22 18:53:22:752
-2.4012;4.2365;7.4013;-2.2477;4.0251;8.6555;0.2876;-1.1395;2.082;0.4611;1.2053;-0.1915;458.0;-4.2;-36.24;-30.04;158.93;-19.63;10.37;2.0;987.68;57.313;35.95823;-83.92459;768.04;NaN;;0.0;20.316816;;13 / 16;1510;2022-10-22 18:53:23:252
-2.1308;3.7217;8.6845;-2.5367;3.7461;8.7007;-0.4237;1.8776;0.4554;-0.0874;-0.3015;0.2232;256.0;-6.02;-39.75;-20.96;158.74;-22.46;16.25;2.0;987.68;48.464;35.95823;-83.92459;768.04;NaN;;0.0;20.316816;;13 / 16;2010;2022-10-22 18:53:23:752
-2.2804;2.9913;10.6418;-2.7272;3.806;8.6167;0.195;0.1997;0.1235;-0.1116;0.5616;-0.0231;181.0;-21.77;-34.86;-23.94;133.86;-24.71;12.89;2.0;987.7;46.532;35.95823;-83.92459;768.04;NaN;;0.0;20.316816;;14 / 16;2510;2022-10-22 18:53:24:252
-2.6743;1.5897;11.7945;-1.8131;1.8724;9.454;0.0059;0.0679;1.4879;-1.3743;0.0206;2.1167;73.0;-26.89;-26.17;-34.2;117.76;-14.82;17.15;2.0;987.71;53.393;35.958225;-83.924576;770.21;NaN;;0.0;17.135168;;14 / 16;3010;2022-10-22 18:53:24:752
0.3999;3.1723;8.9575;-0.9245;0.7146;9.7368;1.0216;-0.0716;0.1103;0.4383;0.0107;1.8799;65.0;-25.01;18.69;-39.82;54.44;-2.44;5.59;2.0;987.75;42.577;35.958225;-83.924576;770.21;NaN;;0.0;17.135168;;14 / 16;3510;2022-10-22 18:53:25:252
1.1599;3.4199;7.5293;2.0612;5.4886;7.8611;-2.6208;-0.3935;1.8202;-1.06;-0.3938;-0.7777;59.0;14.53;35.27;-43.74;333.15;-34.03;-14.69;2.0;987.72;42.269;35.958225;-83.924576;770.21;NaN;;0.0;17.135168;;14 / 16;4010;2022-10-22 18:53:25:752
0.0778;6.4364;10.5341;0.9264;4.8166;8.4919;0.0298;0.0462;1.2664;0.3162;0.4798;0.1623;41.0;13.03;17.81;-55.57;329.59;-28.99;-11.7;2.0;987.72;43.143;35.958225;-83.92457;768.01;NaN;;0.0;16.709612;;14 / 16;4510;2022-10-22 18:53:26:252
0.3389;6.8471;10.7375;1.9036;4.5687;8.466;-0.5509;0.5482;-0.0303;-0.3972;-0.3556;-0.9183;25.0;22.54;13.88;-49.27;314.23;-27.77;-12.67;2.0;987.75;55.064;35.958225;-83.92457;768.01;NaN;;0.0;16.709612;;14 / 16;5010;2022-10-22 18:53:26:752
3.6488;3.1448;6.9224;1.8981;5.7874;7.6859;0.3326;-0.7544;2.4971;2.2684;-0.4268;1.6023;26.0;10.07;15.45;-46.89;325.29;-29.69;-17.16;2.0;987.77;66.345;35.958225;-83.92457;768.01;NaN;;0.0;16.709612;;14 / 16;5510;2022-10-22 18:53:27:252
2.7939;2.4861;4.6911;3.4133;2.2453;8.9151;-0.8642;0.0677;-3.8505;-0.4709;0.0718;0.265;21.0;0.81;-0.06;-35.85;303.7;-16.42;-21.37;2.0;987.78;48.22;35.958225;-83.92457;768.01;NaN;;0.0;16.709612;;14 / 16;6011;2022-10-22 18:53:27:753
2.5283;2.557;6.4412;1.807;2.9813;9.1661;1.043;-0.4429;-2.5025;-0.7143;0.527;-0.088;23.0;-1.5;5.34;-27.11;345.22;-17.33;-9.28;2.0;987.78;43.865;35.958225;-83.92457;768.01;NaN;;0.0;16.709612;;14 / 16;6511;2022-10-22 18:53:28:253
4.0173;7.4216;10.6992;1.9889;5.0033;8.1964;0.6617;-3.1864;-1.5784;0.1558;-0.1238;0.7284;21.0;3.9;-5.06;-22.65;302.57;-24.48;-8.27;2.0;987.8;47.611;35.958225;-83.92457;768.01;NaN;;0.0;16.709612;;14 / 16;7010;2022-10-22 18:53:28:752
2.4299;10.9878;7.7797;4.2594;5.7073;6.742;-1.9496;-2.0427;-2.1244;1.2693;1.7624;-0.7651;20.0;5.33;-19.12;-26.16;252.35;-31.52;-22.21;2.0;987.84;45.685;35.958225;-83.92457;768.01;NaN;;0.0;16.709612;;14 / 16;7511;2022-10-22 18:53:29:253
2.3593;5.4096;5.875;0.3652;5.0084;8.4233;-0.0535;5.8036;3.219;-0.2039;0.9997;-0.0078;30.0;17.64;-19.01;-43.78;286.04;-30.71;-2.48;2.0;987.84;46.798;35.958225;-83.92457;768.01;NaN;;0.0;16.709612;;14 / 16;8011;2022-10-22 18:53:29:753
1.6711;2.2193;5.1951;2.7634;3.7426;8.6329;-0.1441;-1.866;-3.1307;0.0812;0.0368;0.6862;75.0;12.94;-1.95;-53.85;304.02;-25.36;-16.53;2.0;987.93;48.504;35.958225;-83.92457;768.01;NaN;;0.0;16.709612;;14 / 16;8511;2022-10-22 18:53:30:253
3.2632;1.9499;5.4945;1.7431;3.5938;8.9564;-1.4892;4.676;2.8199;1.0529;-0.3805;0.8702;196.0;11.59;-1.61;-55.27;307.47;-21.5;-11.01;2.0;987.88;48.34;35.958225;-83.92457;768.01;NaN;;0.0;16.709612;;14 / 16;9010;2022-10-22 18:53:30:752
1.7154;3.6978;7.2003;2.2574;3.9602;8.6828;-0.4455;2.0291;0.5173;0.351;0.276;0.7619;312.0;13.86;-13.31;-49.95;283.94;-23.8;-13.86;2.0;987.91;46.562;35.958225;-83.92457;768.01;NaN;;0.0;16.709612;;13 / 16;9510;2022-10-22 18:53:31:252
3.0703;6.1756;5.8798;2.5147;5.9588;7.3715;-0.5939;1.6649;0.243;0.5466;0.679;0.8498;236.0;6.54;-29.87;-32.27;248.16;-37.42;-18.84;2.0;987.88;43.017;35.958225;-83.92457;768.01;NaN;;0.0;16.709612;;13 / 16;10010;2022-10-22 18:53:31:752
2.7712;6.9679;7.436;2.6288;5.4559;7.7131;-0.199;2.5204;0.1916;-0.6422;-0.6031;0.9955;87.0;3.66;-38.79;-15.36;198.57;-38.8;-13.25;2.0;987.9;44.42;35.958225;-83.92457;768.01;NaN;;0.0;16.709612;;13 / 16;10511;2022-10-22 18:53:32:253
3.4977;8.1027;6.0823;2.7957;6.8954;6.3881;0.3684;1.4569;0.0319;0.5427;0.8914;0.5313;21.0;-10.14;-36.13;-3.6;159.49;-44.68;-23.64;2.0;987.91;39.669;35.958225;-83.92457;768.01;NaN;;0.0;16.709612;;13 / 16;11010;2022-10-22 18:53:32:752
3.5025;8.3483;8.2848;3.2238;5.9277;7.1162;0.5051;1.2408;0.8746;0.0335;0.1399;0.7919;3.0;-19.8;-30.54;2.76;137.03;-38.7;-23.06;2.0;987.93;39.18;35.958225;-83.92457;768.01;NaN;;0.0;16.709612;;12 / 16;11511;2022-10-22 18:53:33:253
2.1739;7.241;7.2817;2.8322;5.9242;7.2837;0.3993;0.4542;0.1659;1.0338;1.9517;-0.3112;2.0;-27.47;-26.08;1.26;123.0;-31.44;-31.16;2.0;987.92;37.614;35.958225;-83.92457;768.01;NaN;;0.0;16.709612;;12 / 16;12010;2022-10-22 18:53:33:752
1.0606;9.0461;8.2478;2.0677;5.9682;7.5017;-0.0012;-1.9553;-0.3489;0.1544;-0.46;-0.7006;2.0;-27.07;-26.42;-3.99;118.18;-37.06;-20.44;2.0;987.9;37.161;35.958225;-83.92457;768.01;NaN;;0.0;16.709612;;10 / 16;12511;2022-10-22 18:53:34:253
1.9896;4.7859;7.1357;2.3563;6.4846;6.9691;-0.7661;-1.1318;0.017;0.1296;-0.0443;0.3302;2.0;-20.4;-31.71;-14.23;126.77;-41.47;-16.87;2.0;987.93;48.047;35.958225;-83.92457;768.01;NaN;;0.0;16.709612;;10 / 16;13010;2022-10-22 18:53:34:752
1.3011;10.5365;9.6123;1.9872;6.3325;7.2194;1.9435;-1.7241;-1.5984;-0.3853;-0.9566;0.1971;2.0;-16.61;-31.93;-16.89;125.01;-43.95;-13.34;2.0;987.92;49.3;35.958225;-83.92457;768.01;NaN;;0.0;16.709612;;7 / 16;13511;2022-10-22 18:53:35:253
0.9159;9.21;11.6689;1.497;5.8571;7.7217;3.6441;-2.5041;-0.4681;-0.4683;1.4569;-1.1428;3.0;-21.11;-25.37;-19.39;110.99;-36.67;-10.97;2.0;988.01;43.966;35.958225;-83.92457;768.01;NaN;;0.0;16.709612;;7 / 16;14011;2022-10-22 18:53:35:753
1.8254;5.4263;7.363;-1.1642;6.5962;7.1628;1.6585;2.0841;1.0757;-0.4374;1.154;-0.4185;3.0;-22.67;-22.95;-9.04;116.76;-37.99;-6.58;2.0;988.06;60.351;35.958225;-83.92457;768.01;NaN;;0.0;16.709612;;6 / 16;14511;2022-10-22 18:53:36:253
3.8043;5.7984;2.1583;1.5387;8.4156;4.7938;-2.9376;-0.8869;3.7287;0.5546;-1.5115;-0.3359;4.0;-14.33;-34.09;23.64;148.25;-59.11;-17.8;2.0;988.0;54.672;35.958225;-83.92457;768.01;NaN;;0.0;16.709612;;6 / 16;15010;2022-10-22 18:53:36:752
0.8656;7.0567;5.3342;1.3476;7.8449;5.7281;-0.6192;-1.3659;-0.1401;0.3272;-0.304;0.4952;4.0;12.17;-29.4;4.95;192.39;-53.31;-4.41;2.0;988.03;43.277;35.958225;-83.92457;768.01;NaN;;0.0;16.709612;;6 / 16;15510;2022-10-22 18:53:37:252
-3.1998;9.7343;9.3873;-0.0927;6.8962;6.9717;0.2987;0.9383;-0.9838;0.148;-0.5318;0.0288;7.0;10.89;-18.84;-22.76;284.51;-44.69;0.76;2.0;988.09;42.97;35.958225;-83.92457;768.01;NaN;;0.0;16.709612;;6 / 16;16010;2022-10-22 18:53:37:752
-4.1752;14.9118;9.7068;-0.0103;6.7014;7.1597;-0.9932;3.9326;2.5006;0.2803;0.7767;1.1642;11.0;-11.02;-6.04;-41.76;32.4;-37.63;2.79;2.0;988.14;44.091;35.958225;-83.92457;768.01;NaN;;0.0;16.709612;;5 / 16;16510;2022-10-22 18:53:38:252
-1.2891;6.6544;6.8818;-0.5745;6.4367;7.3762;-3.3192;4.8474;3.3794;-0.7265;0.5374;0.4848;40.0;-15.52;-14.02;-24.11;76.35;-41.02;4.45;2.0;988.1;46.999;35.958225;-83.92457;768.01;NaN;;0.0;16.709612;;5 / 16;17010;2022-10-22 18:53:38:752
0.9529;6.8088;6.7011;0.4506;6.6019;7.2375;-2.7096;0.2535;-0.1877;0.568;1.4695;0.5283;49.0;-11.51;-16.39;-35.12;46.79;-38.14;-6.45;2.0;988.11;42.202;35.958225;-83.92457;768.01;NaN;;0.0;16.709612;;5 / 16;17511;2022-10-22 18:53:39:253
1.2042;6.0428;5.9985;1.7247;6.3493;7.272;-0.6983;0.5582;-1.5435;-0.956;-0.6647;0.4565;43.0;-4.35;-17.33;-35.74;355.82;-44.96;-7.91;2.0;988.09;39.167;35.958225;-83.92457;768.01;NaN;;0.0;16.709612;;5 / 16;18010;2022-10-22 18:53:39:752
1.2915;8.7027;6.3311;2.438;7.4522;5.89;0.0409;0.2015;-0.3274;0.2441;1.1124;0.3094;50.0;-11.19;-9.11;-41.51;341.57;-43.28;-24.74;2.0;988.08;34.797;35.958225;-83.92457;768.01;NaN;;0.0;16.709612;;7 / 16;18511;2022-10-22 18:53:40:253
0.3377;8.8678;6.6281;2.0373;6.7257;6.8399;-0.8043;1.0341;0.9874;-0.0992;0.5064;0.5759;43.0;-0.06;-17.23;-46.33;328.15;-45.18;-15.26;2.0;988.1;35.407;35.958225;-83.92457;768.01;NaN;;0.0;16.709612;;7 / 16;19010;2022-10-22 18:53:40:752
1.8218;7.0149;5.8893;2.3192;6.9972;6.4677;-1.2384;0.0628;-0.4825;0.5052;1.1418;0.6264;23.0;2.96;-20.06;-43.69;306.43;-42.17;-18.71;2.0;988.05;41.32;35.958225;-83.92457;768.01;NaN;;0.0;16.709612;;8 / 16;19510;2022-10-22 18:53:41:252
2.0375;8.7649;6.7669;2.5243;7.3227;6.0147;-0.3428;1.3467;0.4681;0.5509;-0.5847;0.4697;20.0;4.97;-34.03;-31.54;263.2;-48.31;-22.77;2.0;988.09;42.482;35.958225;-83.92457;768.01;NaN;;0.0;16.709612;;8 / 16;20011;2022-10-22 18:53:41:753
1.1539;0.8752;10.6202;1.0648;3.8072;8.9745;0.1748;6.154;0.8736;-2.6919;-0.806;-1.3998;19.0;0.77;-35.7;-28.29;232.98;-45.29;-15.39;2.0;988.11;51.218;35.958225;-83.92457;768.01;NaN;;0.0;16.709612;;8 / 16;20511;2022-10-22 18:53:42:253
-4.398;-1.4438;14.2735;-2.7968;0.4212;9.3899;4.2494;5.9;-1.4459;0.4817;-1.1201;0.111;14.0;-0.39;-23.25;-31.56;157.13;-2.46;16.59;2.0;988.2;40.951;35.958225;-83.92457;768.01;NaN;;0.0;16.709612;;8 / 16;21010;2022-10-22 18:53:42:752
-3.6835;0.9553;12.3775;-3.0238;1.4463;9.2161;0.7491;-2.8365;-0.521;-0.4872;1.5508;0.5724;14.0;5.08;-15.3;-30.04;197.11;-9.77;3.86;2.0;988.14;42.612;35.958225;-83.92457;768.01;NaN;;0.0;16.709612;;7 / 16;21510;2022-10-22 18:53:43:252
0.5267;8.2597;7.5485;0.3295;7.024;6.8356;-0.7085;2.4543;2.6348;-0.2401;0.4587;-0.033;16.0;8.83;-21.13;-21.09;270.34;-45.75;-2.76;2.0;988.21;61.635;35.958225;-83.92457;768.01;NaN;;0.0;16.709612;;7 / 16;22011;2022-10-22 18:53:43:753
2.0997;3.3003;3.705;0.6644;6.8098;7.0253;0.9681;-2.2235;-0.5257;0.4754;-0.5155;-1.0776;16.0;6.64;-26.61;-18.32;207.33;-35.1;3.28;2.0;988.22;53.452;35.958225;-83.92457;768.01;NaN;;0.0;16.709612;;8 / 16;22510;2022-10-22 18:53:44:252
0.0694;9.7199;6.3897;2.0778;7.7224;5.676;-0.9237;-1.5378;-0.5165;0.1681;0.9101;0.5098;13.0;14.31;-26.16;-19.71;255.91;-51.95;-20.11;2.0;988.25;49.127;35.958225;-83.92457;768.01;NaN;;0.0;16.709612;;8 / 16;23010;2022-10-22 18:53:44:752
0.7457;6.6185;4.4243;0.8793;7.3038;6.4847;0.4821;-0.3876;-0.8766;-0.4045;-0.5766;1.1982;15.0;20.36;-27.64;-20.4;256.34;-51.14;-12.74;2.0;988.3;58.047;35.958225;-83.92457;768.01;NaN;;0.0;16.709612;;9 / 16;23511;2022-10-22 18:53:45:253
-2.1009;5.0324;7.5497;-0.3742;5.3008;8.2421;-1.9598;0.2728;-0.887;-0.5807;-0.2566;-0.0081;26.0;34.01;-22.76;-26.31;267.08;-34.36;8.94;2.0;988.29;54.913;35.958225;-83.92457;768.01;NaN;;0.0;16.709612;;9 / 16;24010;2022-10-22 18:53:45:752
-2.63;6.4388;5.8319;-0.3013;6.5197;7.3194;-0.2855;-0.331;-1.0786;0.4894;0.4899;0.5054;36.0;48.79;-13.52;-31.76;289.22;-41.59;8.36;2.0;988.31;46.236;35.958225;-83.92457;768.01;NaN;;0.0;16.709612;;6 / 16;24510;2022-10-22 18:53:46:252
-3.5982;8.3722;5.9399;-1.8897;6.8489;6.7596;-1.8923;4.9984;0.7992;0.0749;-0.3526;0.27;41.0;42.04;-12.52;-28.01;302.77;-45.96;18.85;2.0;988.33;41.833;35.958225;-83.92457;768.01;NaN;;0.0;16.709612;;6 / 16;25011;2022-10-22 18:53:46:753
-1.6902;6.6114;7.2613;-1.0166;6.6897;7.0983;-1.0396;0.194;-0.8906;0.067;1.3802;0.7319;33.0;30.3;-23.25;-17.59;267.83;-45.02;6.97;2.0;988.35;56.062;35.958225;-83.92457;768.01;NaN;;0.0;16.709612;;4 / 16;25510;2022-10-22 18:53:47:252
1.9259;10.5772;4.2784;0.8702;7.9633;5.6568;-1.8128;-1.3466;2.9144;1.817;-0.7421;1.0623;30.0;13.78;-38.74;-10.11;223.01;-54.29;-8.75;2.0;988.34;35.515;35.958225;-83.92457;768.01;NaN;;0.0;16.709612;;4 / 16;26010;2022-10-22 18:53:47:752
-2.2349;2.473;4.0484;0.8527;7.5676;6.1786;-2.658;-4.6225;-1.5854;0.9349;-1.0591;1.5745;29.0;5.89;-38.79;-14.25;189.56;-39.24;9.88;2.0;988.33;49.691;35.958225;-83.92457;768.01;NaN;;0.0;16.709612;;4 / 16;26510;2022-10-22 18:53:48:252
2.1009;9.2219;6.5061;-0.1695;7.5317;6.2782;1.3094;-1.6947;-0.1265;-1.315;-0.4778;-0.5839;14.0;3.0;-39.62;-15.62;190.95;-50.18;1.55;2.0;988.36;43.086;35.958225;-83.92457;768.01;NaN;;0.0;16.709612;;4 / 16;27011;2022-10-22 18:53:48:753
-4.276;6.0153;8.5325;-0.0609;4.9473;8.4671;-1.9637;1.2097;-0.7577;0.0023;1.7853;2.1454;2.0;5.12;-38.78;-20.64;195.42;-30.45;-3.83;2.0;988.38;42.957;35.958225;-83.92457;768.01;NaN;;0.0;16.709612;;4 / 15;27510;2022-10-22 18:53:49:252
-1.3059;4.1237;9.2507;-1.9781;4.9693;8.2197;1.6263;-1.0425;1.1913;0.9903;-0.0177;1.2527;3.0;-9.37;-30.82;-30.84;128.04;-30.45;13.53;2.0;988.39;36.016;35.958225;-83.92457;768.01;NaN;;0.0;16.709612;;4 / 15;28010;2022-10-22 18:53:49:752
0.3066;7.0567;6.8806;0.5073;6.4944;7.3305;-0.522;0.1603;-0.5077;0.3728;0.3515;0.8776;2.0;-14.06;-25.86;-34.31;75.42;-40.38;-4.75;2.0;988.37;35.988;35.958225;-83.92457;768.01;NaN;;0.0;16.709612;;3 / 16;28510;2022-10-22 18:53:50:252
0.5662;4.7521;5.869;-0.485;6.8582;6.9929;0.7703;-1.138;-0.9476;-0.2652;-0.0241;-0.352;0.0;-12.51;-26.03;-36.98;66.97;-44.37;3.97;2.0;988.37;45.374;35.958225;-83.92457;768.01;NaN;;0.0;16.709612;;3 / 16;29010;2022-10-22 18:53:50:752
-1.6113;8.2621;4.1548;-0.5123;7.0249;6.8234;0.1426;-1.7351;0.8922;0.2526;0.4911;1.3064;1.0;-13.42;-29.89;-31.95;88.56;-44.8;4.9;2.0;988.39;48.217;35.958225;-83.92457;768.01;NaN;;0.0;16.709612;;3 / 15;29511;2022-10-22 18:53:51:253
-1.4402;6.8195;6.1816;-1.2246;6.6411;7.111;0.3891;-1.1381;-0.771;0.4589;-0.7584;0.0408;2.0;-17.57;-30.0;-26.1;111.2;-41.19;16.73;2.0;988.42;59.186;35.958225;-83.92457;768.01;NaN;;0.0;16.709612;;3 / 15;30010;2022-10-22 18:53:51:752
-0.0957;7.4204;8.0967;-0.5813;6.7682;7.0728;-0.5017;-1.5715;1.5398;-0.0698;-0.2146;0.1704;2.0;-20.23;-31.44;-18.86;115.47;-46.77;14.55;2.0;988.43;56.539;35.958225;-83.92457;768.01;NaN;;0.0;16.709612;;7 / 15;30510;2022-10-22 18:53:52:252
0.376;5.2513;6.5145;0.9916;6.1807;7.5489;-1.6214;0.3319;-1.7933;-0.2856;-0.2812;-0.2796;2.0;-22.71;-28.63;-16.14;114.85;-42.48;0.49;2.0;988.48;54.399;35.958225;-83.92457;768.01;NaN;;0.0;16.709612;;7 / 15;31010;2022-10-22 18:53:52:752
-2.2026;9.9799;12.3966;-0.9966;3.8961;8.9441;1.1041;1.3069;-1.8041;1.009;-0.9448;-0.9963;3.0;-20.01;-28.22;-19.29;126.39;-29.5;5.01;2.0;988.5;50.663;35.958225;-83.92457;768.01;NaN;;0.0;16.709612;;8 / 16;31510;2022-10-22 18:53:53:252
-4.745;6.5551;10.2993;-2.5302;5.9017;7.4121;0.2653;2.7034;0.7792;-1.6464;2.944;0.5143;6.0;-6.52;-29.19;-25.86;122.88;-37.0;18.85;2.0;988.55;51.869;35.958225;-83.92457;768.01;NaN;;0.0;16.709612;;8 / 16;32011;2022-10-22 18:53:53:753
1.1013;2.4168;4.9403;0.6753;6.3191;7.4689;-1.492;-1.9134;-2.4376;0.7543;-0.057;2.0563;19.0;0.9;-20.25;-39.34;300.47;-30.16;-4.08;2.0;988.57;47.495;35.958225;-83.92457;768.01;NaN;;0.0;16.709612;;7 / 15;32510;2022-10-22 18:53:54:252
1.0881;6.2115;5.8499;-0.383;7.9293;5.7577;0.2698;-2.1277;-1.9406;-1.8596;0.3303;0.2747;51.0;14.19;-21.9;-58.01;343.7;-53.96;3.81;2.0;988.57;51.99;35.958225;-83.92457;768.01;NaN;;0.0;16.709612;;7 / 15;33010;2022-10-22 18:53:54:752
-2.7329;4.7486;7.6481;-2.843;4.1705;8.408;0.6609;0.2345;-1.3031;-0.5843;0.392;0.5348;52.0;7.59;-28.97;-61.26;100.63;-27.82;18.01;2.0;988.57;51.58;35.958225;-83.92457;768.01;NaN;;0.0;16.709612;;8 / 16;33511;2022-10-22 18:53:55:253
0.565;-0.5865;8.5816;-0.8988;2.1489;9.526;0.6895;0.963;-1.2263;-1.3116;0.1056;1.0252;46.0;2.48;-3.99;-72.49;21.94;-12.66;5.39;2.0;988.58;38.55;35.958225;-83.92457;768.01;NaN;;0.0;16.709612;;8 / 16;34011;2022-10-22 18:53:55:753
-0.303;1.9175;8.0501;-1.0129;0.1623;9.7528;0.1429;1.6443;-1.6494;-0.2926;0.0921;1.1505;33.0;2.27;28.52;-63.66;10.25;-1.09;6.68;2.0;988.57;46.412;35.958233;-83.92456;769.19;NaN;;0.0;40.42482;;8 / 16;34511;2022-10-22 18:53:56:253
1.9283;-0.1603;8.5229;0.3664;1.1579;9.7312;-1.8787;-1.9985;0.4278;0.1867;-0.0467;1.4173;15.0;7.82;33.36;-55.99;345.6;-6.78;-2.16;2.0;988.56;39.577;35.958233;-83.92456;769.19;NaN;;0.0;40.42482;;8 / 16;35011;2022-10-22 18:53:56:753
0.4011;1.8817;7.0149;0.7227;2.55;9.4417;-0.7883;0.9124;-0.3851;0.1658;0.0173;0.4557;12.0;12.41;22.22;-58.29;332.73;-14.41;-6.22;2.0;988.58;37.867;35.958233;-83.92456;769.19;NaN;;0.0;40.42482;;8 / 16;35511;2022-10-22 18:53:57:253
-1.5203;1.9295;11.476;-1.85;1.4906;9.5145;1.0255;0.3107;1.8811;-0.0349;1.1169;-0.2766;11.0;11.16;14.42;-56.23;347.91;-8.66;6.29;2.0;988.59;42.262;35.958233;-83.92456;769.19;NaN;;0.0;40.42482;;8 / 16;36010;2022-10-22 18:53:57:752
-2.8549;4.4207;10.6741;-1.909;2.079;9.3917;-0.5098;1.1354;1.7611;-0.4763;2.1009;0.734;5.0;16.93;17.08;-49.56;332.03;-7.58;5.04;2.0;988.62;36.867;35.958233;-83.92456;769.19;NaN;;0.0;40.42482;;4 / 16;36510;2022-10-22 18:53:58:252
-0.9266;2.2241;6.3168;-5.2354;3.8347;7.3523;-0.4464;0.6915;3.2268;1.4357;0.4889;-0.5083;4.0;29.96;10.31;-34.71;348.1;-20.03;34.02;2.0;988.65;48.081;35.958233;-83.92456;769.19;NaN;;0.0;40.42482;;4 / 16;37010;2022-10-22 18:53:58:752
-6.0595;3.1675;5.8475;-6.183;4.0001;6.4761;0.3146;0.6699;1.1131;-0.3138;-0.3214;-0.1986;8.0;34.48;2.12;-24.67;325.41;-26.15;35.16;2.0;988.68;47.767;35.958233;-83.92456;769.19;NaN;;0.0;40.42482;;2 / 16;37510;2022-10-22 18:53:59:252
-3.032;3.1531;7.3558;-5.6727;2.9711;7.4272;1.7728;0.5417;0.1255;-0.0875;0.0932;-0.2718;12.0;34.73;0.28;-18.17;302.53;-17.64;37.37;2.0;988.7;43.928;35.958233;-83.92456;769.19;NaN;;0.0;40.42482;;2 / 16;38010;2022-10-22 18:53:59:752
0.8967;3.9778;8.0596;-3.3668;4.0256;8.2843;2.6985;-0.7534;-0.4109;0.5417;-1.2137;-1.4774;14.0;35.53;4.01;-19.72;313.25;-23.06;33.31;2.0;988.72;42.463;35.958233;-83.92456;769.19;NaN;;0.0;40.42482;;3 / 16;38510;2022-10-22 18:54:00:252
-3.329;1.1061;7.8503;-5.0665;2.0532;8.1416;-3.5066;-0.4297;8.0E-4;-0.4253;1.1414;-0.4439;14.0;36.24;11.89;-24.73;319.27;-12.09;31.89;2.0;988.76;55.172;35.958233;-83.92456;769.19;NaN;;0.0;40.42482;;3 / 16;39010;2022-10-22 18:54:00:752
-2.4132;2.1942;7.156;-4.1543;3.1598;8.3023;2.7929;0.3477;-1.5938;0.2688;-0.0769;-0.1124;24.0;39.04;16.43;-25.22;319.09;-18.18;26.27;2.0;988.76;43.832;35.958233;-83.92456;769.19;NaN;;0.0;40.42482;;3 / 16;39510;2022-10-22 18:54:01:252
-2.5161;2.7772;8.4571;-0.888;4.0594;8.8827;-0.1797;1.3504;0.8198;-0.5902;0.4325;0.4414;26.0;32.34;13.03;-33.15;313.12;-24.45;5.71;2.0;988.79;44.365;35.958233;-83.92456;769.19;NaN;;0.0;40.42482;;3 / 16;40010;2022-10-22 18:54:01:752
-0.5961;3.1962;9.5297;-0.6324;3.0658;9.2936;1.1272;0.4141;-0.7496;-0.1968;0.0912;0.2638;26.0;27.84;8.34;-32.91;309.65;-22.38;4.84;2.0;988.82;46.123;35.958233;-83.92456;769.19;NaN;;0.0;40.42482;;4 / 16;40510;2022-10-22 18:54:02:252
-1.9534;2.187;9.3;-0.4366;3.1126;9.2893;-1.6619;-0.2105;-0.7333;0.2166;0.3079;1.1277;36.0;39.02;5.93;-15.94;286.54;-18.51;2.69;2.0;988.8;41.87;35.958233;-83.92456;769.19;NaN;;0.0;40.42482;;4 / 16;41010;2022-10-22 18:54:02:752
-0.4573;3.4319;8.9707;-1.6615;4.1624;8.7226;0.7749;0.4674;-0.3541;-0.0072;0.2346;0.8886;40.0;43.05;-14.79;1.8;264.93;-23.23;11.05;2.0;988.78;39.949;35.958233;-83.92456;769.19;NaN;;0.0;40.42482;;4 / 16;41510;2022-10-22 18:54:03:252
-1.9175;3.9742;8.3997;-1.3067;3.8282;8.9335;-2.618;0.7266;0.7757;-0.0242;0.3284;-0.1519;28.0;33.11;-31.76;10.48;226.88;-22.27;7.12;2.0;988.8;34.188;35.958233;-83.92456;769.19;NaN;;0.0;40.42482;;4 / 16;42010;2022-10-22 18:54:03:752
-1.0558;3.1077;8.4021;-1.7813;4.031;8.7606;-0.6698;-0.4043;-0.865;0.1212;-0.1426;0.4649;30.0;24.06;-37.5;12.39;215.19;-23.68;11.33;2.0;988.79;37.823;35.958233;-83.92456;769.19;NaN;;0.0;40.42482;;5 / 16;42510;2022-10-22 18:54:04:252
0.6272;2.6587;7.0256;-1.8782;3.7392;8.8691;0.6438;0.0327;-0.0396;0.7408;-0.4;-0.073;32.0;7.89;-36.75;14.68;195.6;-22.41;11.96;2.0;988.82;40.769;35.958233;-83.92456;769.19;NaN;;0.0;40.42482;;5 / 16;43010;2022-10-22 18:54:04:752
-3.8713;5.1544;9.07;-3.25;3.4698;8.5772;-0.14;2.7919;2.3955;-0.3702;0.1965;0.6418;25.0;-1.37;-30.51;12.0;184.15;-22.36;6.95;2.0;988.87;43.997;35.958233;-83.92456;769.19;NaN;;0.0;40.42482;;5 / 16;43510;2022-10-22 18:54:05:252
-6.7968;5.1987;12.6781;-4.824;3.0424;7.9776;-3.248;1.6195;3.5701;-0.7187;1.3275;0.5455;10.0;-8.96;-19.03;3.58;164.69;-18.07;31.16;2.0;988.86;41.512;35.958233;-83.92456;769.19;NaN;;0.0;40.42482;;5 / 16;44010;2022-10-22 18:54:05:752
-6.6377;4.7019;9.0341;-4.1657;2.8067;8.4226;-2.0841;1.6916;0.0881;0.0841;-0.0635;0.0279;3.0;-10.59;-10.87;-1.89;136.42;-18.8;25.32;2.0;988.86;38.876;35.958233;-83.92456;769.19;NaN;;0.0;40.42482;;4 / 16;44511;2022-10-22 18:54:06:253
-4.8876;3.5444;8.7182;-3.6351;3.1929;8.5301;0.6825;1.4023;-0.579;0.0428;0.1371;1.0203;3.0;-14.53;-4.07;-6.02;103.57;-19.0;23.08;2.0;988.87;40.712;35.958233;-83.92456;769.19;NaN;;0.0;40.42482;;4 / 16;45010;2022-10-22 18:54:06:752
-3.4738;3.4881;9.2677;-3.6253;3.2801;8.5011;0.1393;0.1835;0.7559;0.1519;-0.2082;-0.2402;3.0;-11.72;6.15;-9.6;64.38;-19.75;23.03;2.0;988.86;41.625;35.958233;-83.92456;769.19;NaN;;0.0;40.42482;;4 / 16;45511;2022-10-22 18:54:07:253
-3.609;2.9602;8.3303;-3.2677;3.214;8.6697;0.016;-0.4825;-0.9666;0.0264;0.1931;0.2796;3.0;-4.16;10.69;-13.61;31.4;-19.13;20.65;2.0;988.86;40.932;35.958233;-83.92456;769.19;NaN;;0.0;40.42482;;4 / 16;46010;2022-10-22 18:54:07:752
-1.3645;4.9475;8.9025;-1.9796;4.4475;8.513;-0.6905;-0.7576;0.0572;0.2986;-0.5064;0.0499;3.0;1.03;10.78;-15.21;15.78;-22.0;17.06;2.0;988.87;39.529;35.958233;-83.92456;769.19;NaN;;0.0;40.42482;;3 / 16;46511;2022-10-22 18:54:08:253
-3.4367;7.8897;9.6302;-1.9015;5.066;8.1786;0.1491;1.7987;-1.4129;0.4976;0.6022;-0.0212;2.0;5.48;4.29;-14.53;352.74;-31.1;13.09;2.0;988.91;44.55;35.958233;-83.92456;769.19;NaN;;0.0;40.42482;;3 / 16;47011;2022-10-22 18:54:08:753
-0.4322;7.1931;9.1956;-1.6951;6.3657;7.2646;-1.06;0.5393;2.0423;0.0778;0.1586;-0.1668;2.0;5.18;-3.82;-11.14;318.46;-36.74;8.51;2.0;988.92;37.125;35.958233;-83.92456;769.19;NaN;;0.0;40.42482;;3 / 16;47510;2022-10-22 18:54:09:252
-1.2508;5.5986;8.7864;-2.7694;5.9879;7.2558;0.182;1.2992;0.4879;0.2165;0.6198;-0.5107;2.0;1.41;-12.28;-5.76;175.37;-36.83;14.02;2.0;988.94;49.295;35.958233;-83.92456;769.19;NaN;;0.0;40.42482;;3 / 16;48011;2022-10-22 18:54:09:753
-1.1743;2.7305;7.247;-3.1698;5.0392;7.7929;0.4195;1.3686;1.6137;-0.126;-0.1352;-0.7096;4.0;-1.54;-14.68;-5.92;160.42;-36.32;11.36;2.0;988.99;55.275;35.958233;-83.92456;769.19;NaN;;0.0;40.42482;;2 / 14;48510;2022-10-22 18:54:10:252
-3.8533;3.5611;7.3666;-2.8902;6.4341;6.8132;-0.7386;-0.835;-0.909;0.3067;-0.17;1.0039;7.0;3.77;-9.28;-12.22;81.87;-36.97;28.21;2.0;988.98;45.238;35.958233;-83.92456;769.19;NaN;;0.0;40.42482;;2 / 14;49010;2022-10-22 18:54:10:752
-3.7911;7.3223;7.1584;-3.4278;6.3583;6.6327;2.2413;-1.3284;0.075;-0.1209;-0.7952;-0.5446;18.0;7.22;-10.01;-14.34;11.32;-43.31;29.09;2.0;989.01;47.509;35.958233;-83.92456;769.19;NaN;;0.0;40.42482;;2 / 15;49510;2022-10-22 18:54:11:252
-2.8202;4.9762;4.2233;-3.3279;6.496;6.5496;0.3213;-1.7324;-1.2914;0.4842;-0.0649;0.6469;25.0;7.22;-8.57;-19.82;21.47;-41.48;26.94;2.0;989.02;44.475;35.958233;-83.92456;769.19;NaN;;0.0;40.42482;;2 / 15;50010;2022-10-22 18:54:11:752
-3.9562;8.5098;10.43;-3.3866;5.6638;7.2542;-0.7549;0.962;1.8369;-0.0969;-1.5311;0.1461;45.0;13.73;-4.24;-22.74;16.09;-36.07;39.01;2.0;989.09;42.354;35.958233;-83.92456;769.19;NaN;;0.0;40.42482;;2 / 15;50511;2022-10-22 18:54:12:253
-6.6688;7.8766;5.0719;-4.1369;4.6604;7.5721;-0.6998;4.0887;-2.4537;0.2466;1.2751;1.4457;54.0;13.29;11.01;-44.46;17.36;-28.37;28.65;2.0;989.09;44.768;35.958233;-83.92456;769.19;NaN;;0.0;40.42482;;2 / 15;51010;2022-10-22 18:54:12:752
-7.4013;5.3414;8.3542;-5.6422;4.5194;6.6265;-2.0864;0.6559;1.3688;-1.6361;0.6991;0.3474;46.0;25.91;19.24;-47.01;15.7;-31.6;42.13;2.0;989.07;41.073;35.958233;-83.92456;769.19;NaN;;0.0;40.42482;;2 / 16;51511;2022-10-22 18:54:13:253
-1.0487;4.9618;5.8283;-3.0605;5.6558;7.4038;-1.6136;1.8692;-1.1061;0.0699;0.8262;0.4461;32.0;52.93;23.14;-22.35;316.12;-35.22;22.46;2.0;989.06;44.256;35.958233;-83.92456;769.19;NaN;;0.0;40.42482;;2 / 16;52010;2022-10-22 18:54:13:752
-4.7895;7.4324;5.7888;-3.9192;5.4051;7.183;-1.3094;-0.0839;-0.2686;-0.374;-0.3773;-0.5455;28.0;51.83;5.29;-18.36;307.91;-32.33;31.77;2.0;989.08;35.514;35.958233;-83.92456;769.19;NaN;;0.0;40.42482;;3 / 16;52510;2022-10-22 18:54:14:252
-2.8406;5.9997;7.5281;-3.0801;5.8641;7.2316;-0.0607;1.0392;-0.6946;-0.3757;0.211;0.8817;17.0;40.44;-16.8;-8.91;271.2;-36.72;23.07;2.0;989.06;33.892;35.958233;-83.92456;769.19;NaN;;0.0;40.42482;;3 / 16;53012;2022-10-22 18:54:14:754
-2.2995;4.2497;5.5244;-0.6717;4.8291;8.5087;-1.4539;0.5447;-0.4156;0.0193;0.1872;-0.0148;11.0;23.12;-32.68;-4.43;222.18;-31.1;8.61;2.0;989.06;37.883;35.958233;-83.92456;769.19;NaN;;0.0;40.42482;;3 / 16;53510;2022-10-22 18:54:15:252
-1.0008;5.103;9.5489;-0.2562;5.8887;7.8376;-0.418;-1.5823;0.8289;0.2187;0.484;0.5094;10.0;3.84;-31.09;-12.62;189.36;-35.05;4.68;2.0;989.07;30.888;35.958233;-83.92456;769.19;NaN;;0.0;40.42482;;3 / 16;54011;2022-10-22 18:54:15:753
0.8019;10.8404;9.6936;2.3641;5.6667;7.6466;-0.9563;-0.1878;-3.4544;0.285;-1.8458;-0.8071;9.0;-5.61;-27.88;-8.96;161.28;-43.28;-8.31;2.0;989.1;45.702;35.958233;-83.92456;769.19;NaN;;0.0;40.42482;;4 / 16;54511;2022-10-22 18:54:16:253
3.1591;7.7234;7.5305;2.7779;6.7271;6.5727;0.4966;-1.6342;0.4084;0.889;1.2125;0.9067;7.0;-13.2;-23.51;-3.0;140.72;-40.88;-26.45;2.0;989.12;49.824;35.958233;-83.92456;769.19;NaN;;0.0;40.42482;;4 / 16;55010;2022-10-22 18:54:16:752
0.583;7.3427;7.3738;2.4977;5.9737;7.3653;-0.9929;-1.0481;-1.3972;0.9703;1.012;-1.9071;4.0;-11.7;-23.23;-7.07;136.92;-42.47;-17.08;2.0;989.1;53.537;35.958233;-83.92456;769.19;NaN;;0.0;40.42482;;4 / 16;55510;2022-10-22 18:54:17:252
-4.4016;11.2893;7.9747;-2.0516;7.686;5.7347;0.5786;1.2628;0.2285;-0.5012;1.0387;0.4453;6.0;3.94;-30.15;-9.99;182.23;-51.61;19.68;2.0;989.21;39.049;35.958233;-83.92456;769.19;NaN;;0.0;40.42482;;4 / 16;56010;2022-10-22 18:54:17:752
-2.0387;8.4643;5.528;-2.1393;7.4542;6.0024;-0.1747;2.1721;0.4476;0.4359;1.3381;0.2975;14.0;13.89;-32.08;-14.21;228.94;-50.3;13.37;2.0;989.21;43.86;35.958233;-83.92456;769.19;NaN;;0.0;40.42482;;4 / 15;56511;2022-10-22 18:54:18:253
-0.486;5.8992;7.1022;-2.1946;6.5332;6.9764;0.1835;0.9494;1.3558;0.4791;-1.0072;-0.074;18.0;18.53;-31.52;-18.37;235.86;-41.77;17.46;2.0;989.21;50.852;35.958233;-83.92456;769.19;NaN;;0.0;40.42482;;4 / 15;57011;2022-10-22 18:54:18:753
-0.2838;3.323;6.7765;-0.8894;5.8412;7.8269;0.559;-2.5355;-1.1416;-0.2998;-0.4172;0.2611;27.0;21.86;-24.97;-23.81;259.42;-36.82;13.51;2.0;989.23;47.545;35.958233;-83.92456;769.19;NaN;;0.0;40.42482;;4 / 16;57511;2022-10-22 18:54:19:253
3.8605;-0.3473;9.775;1.8623;2.2642;9.3582;0.8535;-0.6467;-3.1741;-0.554;-0.416;-0.5052;25.0;15.77;-11.72;-33.75;258.12;-13.35;-11.25;2.0;989.28;46.853;35.958233;-83.92456;769.19;NaN;;0.0;40.42482;;4 / 16;58010;2022-10-22 18:54:19:752
-6.0918;9.8133;12.2626;-2.5021;4.4689;8.363;0.1494;1.1054;3.7859;-0.8265;1.2502;-0.1491;16.0;14.76;-4.86;-37.16;322.24;-29.37;5.8;2.0;989.3;43.684;35.958233;-83.92456;769.19;NaN;;0.0;40.42482;;3 / 16;58510;2022-10-22 18:54:20:252
-1.7596;6.0667;6.6197;-1.7026;5.0899;8.2076;-3.62;3.2216;4.5292;-0.1226;0.2049;0.7497;42.0;30.66;-15.86;-28.01;278.81;-31.27;11.72;2.0;989.28;49.193;35.958233;-83.92456;769.19;NaN;;0.0;40.42482;;3 / 16;59010;2022-10-22 18:54:20:752
-0.3891;6.9918;6.4738;0.3864;6.8213;7.035;-1.6386;1.7601;-1.4115;-0.1503;1.1084;1.4402;31.0;21.79;-39.69;-28.5;255.34;-47.06;1.9;2.0;989.31;39.913;35.958233;-83.92456;769.19;NaN;;0.0;40.42482;;3 / 16;59510;2022-10-22 18:54:21:252
0.1699;8.0536;8.5624;1.0566;6.542;7.2288;-0.2568;-1.3197;-1.4181;-0.7119;-0.2956;-0.1829;27.0;-8.94;-48.49;-28.76;163.34;-41.84;-8.32;2.0;989.28;43.381;35.958233;-83.92456;769.19;NaN;;0.0;40.42482;;3 / 16;60010;2022-10-22 18:54:21:752
1.0487;7.101;7.5688;0.7231;7.3516;6.4499;-2.0539;-2.4593;0.2653;0.8196;0.2369;1.4143;35.0;-11.64;-42.06;-32.78;130.79;-42.23;-3.83;2.0;989.29;34.889;35.958233;-83.92456;769.19;NaN;;0.0;40.42482;;2 / 16;60510;2022-10-22 18:54:22:252
1.7441;6.8399;5.9351;0.9346;7.3359;6.4406;0.1537;-3.4715;-0.9306;-0.2594;0.1073;0.0744;27.0;-13.22;-37.95;-28.88;111.33;-46.71;-2.9;2.0;989.32;36.92;35.958233;-83.92456;769.19;NaN;;0.0;40.42482;;2 / 16;61010;2022-10-22 18:54:22:752
-0.2596;13.5912;9.5142;1.1974;7.5447;6.1493;0.9708;-2.756;0.9171;-0.2979;-0.0026;1.098;6.0;-11.72;-34.63;-28.93;97.35;-47.69;-11.55;2.0;989.33;43.625;35.95855;-83.92494;785.27;NaN;;7.34;533.46924;294.5;1 / 16;61512;2022-10-22 18:54:23:254
6.3024;5.4921;7.3331;4.5928;5.0244;7.0592;0.1262;-0.5757;0.2031;0.5346;-1.1938;0.9795;3.0;-22.59;-26.61;-32.38;71.16;-39.33;-21.42;2.0;989.36;48.856;35.95855;-83.92494;785.27;NaN;;7.34;533.46924;294.5;1 / 16;62010;2022-10-22 18:54:23:752
3.6185;4.6146;10.0277;4.326;4.0386;7.8196;0.5672;-0.5574;-1.9881;-0.0651;0.5503;0.1697;3.0;-32.01;-23.57;-36.94;83.32;-27.68;-30.08;2.0;989.35;49.902;35.95855;-83.92494;785.27;NaN;;7.34;533.46924;294.5;1 / 16;62510;2022-10-22 18:54:24:252
4.2616;2.5391;8.286;3.1866;3.8554;8.4351;1.9028;-0.322;-1.317;-0.4351;0.2338;-0.1136;4.0;-37.03;-18.34;-45.77;73.3;-23.15;-20.7;2.0;989.33;34.245;35.95855;-83.92494;785.27;NaN;;7.34;533.46924;294.5;1 / 16;63011;2022-10-22 18:54:24:753
1.2485;1.6795;8.4045;2.0776;2.9277;9.1259;-0.722;-0.5198;-1.1832;-0.7284;0.2599;-0.437;4.0;-26.06;-17.78;-51.54;75.1;-20.25;-15.81;2.0;989.32;44.395;35.958233;-83.92456;769.22;NaN;;0.0;664.9369;;0 / 16;63510;2022-10-22 18:54:25:252
2.4227;3.8701;10.3771;2.6606;3.0913;8.9183;-0.028;-0.6741;-0.4313;0.4548;0.8245;0.5849;4.0;-19.71;-24.67;-52.11;145.33;-18.37;-16.61;2.0;989.35;43.778;35.958233;-83.92456;769.22;NaN;;0.0;664.9369;;0 / 16;64011;2022-10-22 18:54:25:753
1.4498;4.2724;12.9676;2.1411;3.7364;8.8105;-1.2024;1.134;3.8562;-0.2166;-0.4742;-0.5263;3.0;-24.04;-33.41;-43.89;128.04;-24.11;-13.27;2.0;989.41;42.226;35.958233;-83.92456;769.22;NaN;;0.0;664.9369;;1 / 16;64510;2022-10-22 18:54:26:252
2.6707;2.5845;9.9954;1.9476;1.8967;9.4223;-0.0829;-0.9193;-0.99;0.2924;0.6518;-0.6053;3.0;-26.63;-26.94;-40.35;134.23;-11.15;-11.68;2.0;989.39;38.522;35.958233;-83.92456;769.22;NaN;;0.0;664.9369;;1 / 16;65010;2022-10-22 18:54:26:752
0.3173;5.0121;9.2554;1.027;5.2139;8.242;-1.1581;0.3341;4.2827;1.42;0.9154;0.2217;4.0;-21.58;-22.93;-40.48;106.77;-22.9;-10.5;2.0;989.44;46.926;35.958233;-83.92456;769.22;NaN;;0.0;664.9369;;1 / 16;65510;2022-10-22 18:54:27:252
1.9116;6.0344;6.9846;-0.2578;7.9589;5.7236;1.8898;-1.7935;0.7596;0.2282;0.0562;-0.6158;2.0;-6.13;-31.35;-32.79;22.48;-53.87;-4.18;2.0;989.44;49.56;35.958233;-83.92456;769.22;NaN;;0.0;664.9369;;1 / 16;66010;2022-10-22 18:54:27:752
-1.0283;6.0894;5.9913;-0.7057;7.2507;6.565;1.5231;-0.5438;-3.4569;-0.3876;-0.2614;0.3881;4.0;5.96;-33.84;-30.02;303.62;-53.63;-0.02;2.0;989.47;53.059;35.958233;-83.92456;769.22;NaN;;0.0;664.9369;;0 / 16;66510;2022-10-22 18:54:28:252
-0.9565;8.3399;6.8794;-1.2857;7.4138;6.2891;3.1216;0.2996;1.0789;-0.13;-0.5056;-0.2861;4.0;12.0;-32.81;-31.88;290.72;-50.8;1.63;2.0;989.49;54.567;35.958233;-83.92456;769.22;NaN;;0.0;664.9369;;0 / 16;67011;2022-10-22 18:54:28:753
-4.8099;8.4021;7.6421;-3.6798;5.6655;7.1086;2.0042;-1.2035;0.4452;-0.6954;1.3862;0.4233;14.0;17.66;-27.6;-30.81;191.74;-28.77;27.71;2.0;989.54;41.199;35.958233;-83.92456;769.22;NaN;;0.0;664.9369;;0 / 16;67510;2022-10-22 18:54:29:252
-3.6894;5.6584;12.7511;0.7171;2.8918;9.3431;-0.9013;1.9019;-1.3843;-0.6019;-4.2398;0.8928;34.0;11.98;-10.78;-31.22;335.02;-20.68;20.0;2.0;989.58;42.151;35.958233;-83.92456;769.22;NaN;;0.0;664.9369;;0 / 16;68010;2022-10-22 18:54:29:752
1.5778;3.207;9.355;1.7368;2.5726;9.3025;-2.7248;2.9764;2.5534;0.8812;1.0296;2.0568;34.0;-23.21;0.81;-31.52;58.75;-12.13;-14.39;2.0;989.57;46.686;35.958233;-83.92456;769.22;NaN;;0.0;664.9369;;0 / 16;68511;2022-10-22 18:54:30:253
-1.5299;4.1297;9.9416;0.8971;2.0316;9.5519;1.8109;-1.3746;3.4449;-0.195;-0.4797;-0.2802;40.0;-10.31;8.81;-40.44;19.82;-11.96;-5.37;2.0;989.55;49.496;35.958233;-83.92456;769.22;NaN;;0.0;664.9369;;0 / 16;69010;2022-10-22 18:54:30:752
-1.386;4.5691;10.1689;1.1741;2.9945;9.2642;1.0401;1.9845;2.2602;1.317;0.4482;2.6713;35.0;-5.23;10.67;-42.52;355.5;-15.05;-8.91;2.0;989.56;39.536;35.958233;-83.92456;769.22;NaN;;0.0;664.9369;;2 / 16;69510;2022-10-22 18:54:31:252
2.7891;0.3281;9.4807;2.4012;0.5499;9.4922;1.1768;-0.7871;-1.251;-0.1568;-0.0092;-0.2349;34.0;6.96;6.09;-43.82;295.24;-3.21;-14.2;2.0;989.56;42.333;35.958233;-83.92456;769.22;NaN;;0.0;664.9369;;2 / 16;70011;2022-10-22 18:54:31:753
1.9295;2.4574;8.304;1.9179;1.4004;9.5148;-0.7238;1.2117;0.7121;0.3352;0.304;0.7515;13.0;5.72;6.19;-43.01;307.75;-8.93;-13.35;2.0;989.55;34.38;35.958233;-83.92456;769.22;NaN;;0.0;664.9369;;2 / 16;70511;2022-10-22 18:54:32:253
2.2349;4.2221;8.5552;1.53;3.1837;9.1484;0.3385;1.2285;-0.1307;0.544;0.1678;0.7483;9.0;7.01;-12.09;-40.84;275.86;-18.94;-9.49;2.0;989.54;33.93;35.958233;-83.92456;769.22;NaN;;0.0;664.9369;;2 / 16;71010;2022-10-22 18:54:32:752
1.4689;4.8601;7.6756;2.7559;3.722;8.6442;-1.4942;0.1258;-0.6436;0.0283;0.2718;0.3737;11.0;0.86;-21.9;-33.19;244.82;-26.89;-19.99;2.0;989.53;31.878;35.958233;-83.92456;769.22;NaN;;0.0;664.9369;;2 / 16;71510;2022-10-22 18:54:33:252
2.1488;2.9004;11.4497;2.3717;1.888;9.3264;-0.5203;-0.1166;0.851;-0.6994;-0.2425;-0.1732;11.0;-5.06;-17.18;-30.06;195.5;-17.55;-13.15;2.0;989.57;33.275;35.958233;-83.92456;769.22;NaN;;0.0;664.9369;;2 / 16;72010;2022-10-22 18:54:33:752
4.3597;0.9613;12.7223;3.3416;1.1927;9.1423;-2.0965;1.1905;0.3504;0.2789;0.2052;-0.625;10.0;-7.09;-9.67;-27.43;178.12;-9.88;-14.19;2.0;989.6;43.558;35.958233;-83.92456;769.22;NaN;;0.0;664.9369;;2 / 15;72511;2022-10-22 18:54:34:253
1.1803;2.2098;10.5975;2.3143;1.4161;9.4239;0.5833;-0.664;-0.2068;-0.0579;0.1426;-0.1723;11.0;-13.46;-1.97;-18.36;83.12;-7.99;-15.79;2.0;989.6;35.769;35.958233;-83.92456;769.22;NaN;;0.0;664.9369;;2 / 15;73010;2022-10-22 18:54:34:752
1.9104;2.3294;9.501;2.148;1.4136;9.4635;0.3944;0.2316;-1.4009;-0.5577;-0.254;-0.1632;7.0;-10.74;3.11;-16.11;48.52;-12.61;-11.1;2.0;989.58;42.108;35.958233;-83.92456;769.22;NaN;;0.0;664.9369;;0 / 16;73511;2022-10-22 18:54:35:253
2.6288;-0.195;8.4057;3.1617;0.7634;9.2515;-0.3994;-0.9797;-1.1;-0.0584;-0.6205;0.4526;4.0;-6.67;12.23;-12.99;13.7;-6.24;-15.43;2.0;989.63;37.257;35.958233;-83.92456;769.22;NaN;;0.0;664.9369;;0 / 16;74012;2022-10-22 18:54:35:754
2.971;0.9338;8.2884;2.5172;1.1795;9.4044;-0.9772;0.265;-1.4373;0.3767;-0.2135;0.018;6.0;-2.08;15.64;-13.65;356.55;-8.54;-12.5;2.0;989.63;42.866;35.958233;-83.92456;769.22;NaN;;0.0;664.9369;;0 / 16;74511;2022-10-22 18:54:36:253
1.014;2.6312;7.4731;2.355;3.7375;8.7553;-1.2126;-1.1333;-1.0533;0.077;0.4884;0.5836;6.0;6.88;15.92;-17.44;331.23;-22.4;-15.06;2.0;989.69;39.89;35.958233;-83.92456;769.22;NaN;;0.0;664.9369;;0 / 16;75010;2022-10-22 18:54:36:752
1.337;3.8809;8.3231;1.0891;3.6282;9.0455;-0.9395;-0.3298;-1.1287;-0.4671;-0.1067;-0.2366;5.0;18.49;6.53;-19.59;305.98;-23.87;-3.78;2.0;989.67;42.491;35.958233;-83.92456;769.22;NaN;;0.0;664.9369;;1 / 16;75511;2022-10-22 18:54:37:253
2.2983;3.1615;6.6233;1.6518;6.1086;7.4918;-1.8531;-0.2978;0.9484;-0.9606;1.2043;0.8679;5.0;28.01;-1.56;-18.28;280.22;-38.53;-12.43;2.0;989.68;36.832;35.958233;-83.92456;769.22;NaN;;0.0;664.9369;;1 / 16;76010;2022-10-22 18:54:37:752
-9.0712;5.1748;11.1625;-4.6154;1.8128;8.4606;-2.4301;0.3219;1.4364;-0.377;-1.0491;-2.2921;15.0;37.78;-8.74;-9.39;274.44;-24.55;27.0;2.0;989.75;48.554;35.958233;-83.92456;769.22;NaN;;0.0;664.9369;;1 / 16;76511;2022-10-22 18:54:38:253
2.8358;3.402;10.8595;1.676;3.4106;9.0404;-3.1443;0.312;-4.2375;-0.2569;0.7193;0.8093;35.0;36.62;15.45;-15.69;293.63;-20.35;-10.5;2.0;989.78;48.201;35.958233;-83.92456;769.22;NaN;;0.0;664.9369;;1 / 16;77010;2022-10-22 18:54:38:752
-0.6129;6.9619;13.9146;-0.1144;0.7268;9.779;2.9294;0.8657;4.1818;1.44;-0.2369;0.8039;31.0;20.87;3.06;-35.93;285.39;-7.18;-12.52;2.0;989.77;54.18;35.958233;-83.92456;769.22;NaN;;0.0;664.9369;;1 / 16;77511;2022-10-22 18:54:39:253
-1.6436;-1.4916;6.3526;-0.6504;3.3356;9.199;-1.4498;0.949;-0.3991;0.245;1.9311;1.4897;31.0;23.51;-9.49;-32.51;271.08;-17.0;-4.25;2.0;989.77;46.108;35.958233;-83.92456;769.22;NaN;;0.0;664.9369;;1 / 16;78011;2022-10-22 18:54:39:753
-0.4669;5.3581;6.585;-0.2675;4.5299;8.6936;-2.3686;3.8435;2.7471;-0.1429;-0.7164;0.7416;28.0;11.33;-26.53;-23.29;209.82;-29.19;10.49;2.0;989.79;40.762;35.958233;-83.92456;769.22;NaN;;0.0;664.9369;;1 / 16;78510;2022-10-22 18:54:40:252
-0.2764;6.0212;7.9543;0.5803;4.9455;8.4484;-1.3054;4.0119;-0.4848;0.4643;0.9712;1.8305;50.0;-6.02;-24.94;-24.24;151.23;-31.79;-3.23;2.0;989.79;39.941;35.958233;-83.92456;769.22;NaN;;0.0;664.9369;;1 / 16;79011;2022-10-22 18:54:40:753
1.8242;3.2309;9.6996;2.5157;3.1079;8.9545;-0.6738;-0.0048;0.6304;-0.5541;-0.1992;0.2594;31.0;-11.29;-23.14;-25.61;152.98;-23.83;-12.72;2.0;989.77;44.819;35.958233;-83.92456;769.22;NaN;;0.0;664.9369;;1 / 16;79511;2022-10-22 18:54:41:253
4.0699;4.0436;8.1159;2.5221;3.9379;8.6199;0.303;-0.133;-0.5683;0.5049;0.8732;0.8585;14.0;-15.56;-21.11;-29.72;143.41;-20.52;-18.11;2.0;989.77;39.324;35.958233;-83.92456;769.22;NaN;;0.0;664.9369;;1 / 16;80010;2022-10-22 18:54:41:752
2.0925;3.5216;9.8192;2.1866;3.5755;8.8659;0.6023;-0.3822;0.8559;-0.3699;0.0422;0.0452;9.0;-15.09;-23.03;-29.55;132.29;-23.77;-11.36;2.0;989.78;35.517;35.95838;-83.924355;787.09;NaN;;3.28;817.94275;86.2;1 / 16;80511;2022-10-22 18:54:42:253
1.8254;2.7915;8.2597;2.2424;3.8436;8.7389;-0.4894;-0.5703;-0.0998;0.605;-0.2512;0.2881;5.0;-19.43;-22.44;-24.19;126.72;-23.08;-14.39;2.0;989.75;36.421;35.95838;-83.924355;787.09;NaN;;3.28;817.94275;86.2;1 / 16;81010;2022-10-22 18:54:42:752
2.7377;5.0073;11.566;1.4406;3.65;8.9874;3.2516;-0.8177;1.5261;-0.373;0.4411;-0.5214;3.0;-24.99;-23.92;-17.64;125.43;-21.23;-15.76;2.0;989.76;55.718;35.95838;-83.924355;787.09;NaN;;3.28;817.94275;86.2;1 / 16;81510;2022-10-22 18:54:43:252
1.3478;5.0994;11.6545;2.0662;3.5312;8.9125;-0.4089;1.1972;-0.4012;0.5175;1.2077;-0.0521;3.0;-29.91;-36.36;-11.59;135.45;-21.11;-13.05;2.0;989.79;46.791;35.95838;-83.924355;787.09;NaN;;3.28;817.94275;86.2;1 / 16;82010;2022-10-22 18:54:43:752
4.4339;1.9681;8.6821;1.425;3.898;8.8851;1.7272;-0.7228;-0.4955;-0.6622;0.7279;0.0926;2.0;-27.99;-42.86;-8.94;142.02;-26.56;-16.89;2.0;989.79;46.153;35.95838;-83.924355;787.09;NaN;;3.28;817.94275;86.2;0 / 16;82511;2022-10-22 18:54:44:253
2.0399;4.4279;8.5564;1.7457;4.6222;8.471;-1.2348;-0.5457;3.6909;-0.1561;-0.3213;-0.3115;2.0;-22.11;-40.22;-16.44;144.62;-28.12;-11.64;2.0;989.85;49.977;35.95838;-83.924355;787.09;NaN;;3.28;817.94275;86.2;0 / 16;83011;2022-10-22 18:54:44:753
1.5718;4.4961;6.6054;0.9399;5.4828;8.0763;0.9473;-1.1054;-0.8426;-0.4039;-0.5868;-0.4781;2.0;-13.5;-34.82;-23.4;148.11;-29.63;-6.21;2.0;989.85;53.636;35.95838;-83.924355;787.09;NaN;;3.28;817.94275;86.2;0 / 16;83510;2022-10-22 18:54:45:252
1.7943;5.0288;5.4826;0.2308;5.4936;8.1202;0.8437;-0.0121;-2.1183;0.2427;-0.5688;0.4261;2.0;-7.37;-15.77;-29.72;53.16;-36.21;-0.94;2.0;989.91;49.76;35.95838;-83.924355;787.09;NaN;;3.28;817.94275;86.2;0 / 16;84010;2022-10-22 18:54:45:752
0.929;3.3386;9.6733;-0.9496;4.8823;8.4517;-0.632;0.1444;-0.6291;-0.3341;0.5078;-0.4219;4.0;-12.56;-24.17;-8.19;139.92;-33.78;11.51;2.0;989.95;45.403;35.95838;-83.924355;787.09;NaN;;3.28;817.94275;86.2;0 / 16;84510;2022-10-22 18:54:46:252
-4.0172;7.3331;10.7363;-3.0543;5.4707;7.544;-0.0329;0.5553;2.3191;-0.4064;1.0186;0.2265;9.0;3.84;-36.58;6.47;188.8;-35.25;11.67;2.0;989.98;44.673;35.95838;-83.924355;787.09;NaN;;3.28;817.94275;86.2;0 / 16;85010;2022-10-22 18:54:46:752
-2.5522;6.245;7.0304;-3.0899;5.833;7.2525;0.986;0.1333;0.8154;0.1352;0.0079;0.2443;23.0;5.38;-30.62;11.19;195.51;-35.59;19.59;2.0;990.01;41.755;35.95838;-83.924355;787.09;NaN;;3.28;817.94275;86.2;0 / 15;85511;2022-10-22 18:54:47:253
-0.1543;4.5464;6.6281;-2.349;4.7338;8.261;1.7182;0.422;-0.6363;0.2228;-0.482;0.0099;28.0;4.37;-22.65;13.99;198.14;-28.55;19.65;2.0;990.03;40.022;35.95838;-83.924355;787.09;NaN;;3.28;817.94275;86.2;0 / 15;86010;2022-10-22 18:54:47:752
-6.5276;9.3766;9.3574;-1.3343;7.413;6.2799;-3.8695;-1.0345;0.1222;0.0526;0.5162;2.3248;32.0;10.86;-8.03;2.4;244.19;-29.48;30.34;2.0;990.05;45.82;35.95838;-83.924355;787.09;NaN;;3.28;817.94275;86.2;0 / 16;86510;2022-10-22 18:54:48:252
-0.772;6.3371;7.3463;-2.0028;6.857;6.7187;1.8141;-0.1699;0.1138;-0.5359;0.4849;-0.0388;23.0;16.97;-14.57;1.78;242.8;-44.36;16.6;2.0;990.05;40.595;35.95838;-83.924355;787.09;NaN;;3.28;817.94275;86.2;0 / 16;87010;2022-10-22 18:54:48:752
-1.555;6.1612;6.5671;-0.8725;6.3831;7.3936;-0.4619;-0.3756;-1.098;-0.166;0.8244;0.8205;18.0;8.36;-22.41;-0.56;206.25;-39.01;7.15;2.0;990.06;46.333;35.95838;-83.924355;787.09;NaN;;3.28;817.94275;86.2;0 / 16;87510;2022-10-22 18:54:49:252
0.5279;5.2717;8.0871;0.1242;6.7592;7.1041;1.301;-0.6687;-1.4924;-0.7151;0.2266;-0.033;27.0;-7.42;-18.26;-18.53;88.83;-43.57;-1.0;2.0;990.03;42.337;35.95838;-83.924355;787.09;NaN;;3.28;817.94275;86.2;0 / 16;88010;2022-10-22 18:54:49:752
-0.3221;6.2127;7.0926;0.1402;6.1699;7.6212;-0.6175;-0.6401;-0.5207;0.0381;0.3467;0.7724;32.0;-13.01;-4.74;-43.18;33.5;-37.74;2.14;2.0;990.05;44.093;35.95838;-83.924355;787.09;NaN;;3.28;817.94275;86.2;0 / 16;88510;2022-10-22 18:54:50:252
-0.8354;6.1469;7.4264;-1.3152;6.9062;6.837;0.9532;-0.3748;-0.5647;-0.2841;0.5992;0.4557;21.0;-11.96;1.63;-59.27;29.44;-44.77;10.89;2.0;990.04;46.787;35.95838;-83.924355;787.09;NaN;;3.28;817.94275;86.2;0 / 16;89010;2022-10-22 18:54:50:752
-1.6519;6.154;6.8518;-1.3023;6.4874;7.238;-0.4096;-0.3493;-0.562;0.1942;0.2175;0.6864;6.0;2.46;0.6;-57.34;14.91;-40.96;12.11;2.0;990.04;36.574;35.95838;-83.924355;787.09;NaN;;3.28;817.94275;86.2;0 / 16;89512;2022-10-22 18:54:51:254
0.2548;6.7466;6.5527;-1.022;7.7161;5.9656;0.902;-0.7954;-0.0566;-0.4;0.5445;0.2018;5.0;6.28;-11.62;-53.94;4.01;-53.57;9.05;2.0;990.02;32.614;35.95838;-83.924355;787.09;NaN;;3.28;817.94275;86.2;0 / 16;90011;2022-10-22 18:54:51:753
-0.3652;6.0511;5.1473;-0.3164;7.577;6.2177;-1.6043;0.5986;0.3939;-0.2879;0.0445;-0.0334;5.0;10.46;-20.42;-51.81;347.34;-50.36;4.13;2.0;990.03;41.146;35.95838;-83.924355;787.09;NaN;;3.28;817.94275;86.2;0 / 16;90511;2022-10-22 18:54:52:253
0.1962;5.3088;8.2992;-2.3465;5.6797;7.6423;-0.6451;1.4941;2.7268;0.4872;0.5511;-1.2986;5.0;10.95;-20.23;-53.29;352.29;-32.73;9.94;2.0;990.02;62.393;35.95838;-83.924355;787.09;NaN;;3.28;817.94275;86.2;0 / 16;91010;2022-10-22 18:54:52:752
1.1037;4.4566;6.6078;-0.2472;6.2068;7.5885;-1.2605;1.8621;2.5628;-0.0281;1.2725;0.303;5.0;18.56;-13.65;-52.82;314.88;-31.52;2.88;2.0;990.09;62.883;35.95838;-83.924355;787.09;NaN;;3.28;817.94275;86.2;0 / 16;91511;2022-10-22 18:54:53:253
-1.7417;5.8199;7.8467;-1.1532;6.9304;6.8418;-0.6737;0.0024;1.5887;0.1638;0.4688;0.2939;7.0;23.19;-28.65;-39.98;309.85;-46.5;11.94;2.0;990.12;41.588;35.95838;-83.924355;787.09;NaN;;3.28;817.94275;86.2;0 / 16;92010;2022-10-22 18:54:53:752
-0.833;3.0476;5.4299;0.3475;6.8464;7.0126;-2.7556;-0.7211;0.2137;0.3336;-0.1946;1.3631;15.0;26.01;-30.07;-32.59;263.79;-37.99;6.68;2.0;990.13;43.605;35.95838;-83.924355;787.09;NaN;;3.28;817.94275;86.2;0 / 16;92511;2022-10-22 18:54:54:253
1.0977;6.5647;5.9112;-0.0424;6.782;7.0833;2.5472;-1.1578;-1.184;-1.0558;-0.1859;-0.1747;23.0;22.89;-31.07;-26.85;260.98;-43.75;0.34;2.0;990.15;52.219;35.95838;-83.924355;787.09;NaN;;3.28;817.94275;86.2;0 / 16;93011;2022-10-22 18:54:54:753
-5.4239;6.8889;10.0959;-4.3866;4.9394;7.2478;2.6835;0.0701;-0.9589;-1.2141;2.1913;-0.0239;39.0;22.82;-26.57;-19.72;245.39;-34.58;10.57;2.0;990.16;38.796;35.95838;-83.924355;787.09;NaN;;3.28;817.94275;86.2;0 / 16;93510;2022-10-22 18:54:55:252
-3.2788;8.056;9.8231;-2.2805;4.8572;8.2083;-4.8943;-1.5807;3.2245;0.5204;-1.4828;-0.3581;69.0;38.36;-15.41;-1.67;258.96;-29.69;15.53;2.0;990.23;47.686;35.95838;-83.924355;787.09;NaN;;3.28;817.94275;86.2;0 / 16;94010;2022-10-22 18:54:55:752
-3.1005;2.9387;7.8945;-3.1355;3.9599;8.4059;0.5626;-0.8858;0.2287;0.5295;2.36;2.4396;77.0;41.64;-9.13;-16.14;268.55;-18.86;10.42;2.0;990.21;51.716;35.95838;-83.924355;787.09;NaN;;3.28;817.94275;86.2;0 / 15;94511;2022-10-22 18:54:56:253
-2.1416;0.7301;6.6054;-3.2378;0.8318;9.2193;-2.6934;2.3194;0.726;-0.3094;-1.3249;3.5273;38.0;41.14;-22.07;-18.11;239.43;-4.87;19.35;2.0;990.22;50.715;35.95838;-83.924355;787.09;NaN;;3.28;817.94275;86.2;0 / 15;95010;2022-10-22 18:54:56:752
-0.5399;3.4953;7.611;-1.3108;4.0191;8.8487;0.3807;1.3278;0.7186;0.4726;0.3953;-0.5919;36.0;19.71;-40.33;-26.63;212.38;-20.55;5.44;2.0;990.18;44.803;35.95838;-83.924355;787.09;NaN;;3.28;817.94275;86.2;0 / 16;95510;2022-10-22 18:54:57:252
-3.2536;-0.2142;8.8726;-3.4263;-1.1376;9.1179;-3.129;-0.4016;-0.8563;0.1313;-0.419;-0.1887;43.0;6.99;-46.26;-27.77;171.28;6.74;29.12;2.0;990.21;34.697;35.95838;-83.924355;787.09;NaN;;3.28;817.94275;86.2;0 / 16;96010;2022-10-22 18:54:57:752
1.0331;2.7784;9.6613;1.4758;1.3449;9.6012;-0.4851;-0.303;0.4127;0.868;-0.4287;1.074;9.0;4.65;-27.54;-45.37;195.56;-1.88;-3.05;2.0;990.17;37.532;35.95838;-83.924355;787.09;NaN;;3.28;817.94275;86.2;0 / 16;96510;2022-10-22 18:54:58:252
1.1982;5.4491;11.785;2.476;2.5689;9.1346;0.7917;-0.9027;0.4237;-0.3053;0.1229;-0.228;8.0;-46.09;-26.57;-30.88;111.69;-16.16;-16.62;2.0;990.2;34.063;35.95838;-83.924355;787.09;NaN;;3.28;817.94275;86.2;0 / 16;97010;2022-10-22 18:54:58:752
0.4011;3.3529;6.5635;2.1392;3.2872;8.9883;-1.7027;0.0357;-2.06;0.0066;0.0262;0.6013;4.0;-56.94;-24.75;-22.54;103.71;-19.08;-11.74;2.0;990.19;46.526;35.95838;-83.924355;787.09;NaN;;3.28;817.94275;86.2;0 / 16;97510;2022-10-22 18:54:59:252
2.0614;2.5017;7.0448;1.3462;3.2939;9.1383;-0.046;0.63;-0.1943;0.308;-0.7227;0.2308;3.0;-60.34;-10.14;-21.06;90.79;-20.56;-3.23;2.0;990.21;40.689;35.95838;-83.924355;787.09;NaN;;3.28;817.94275;86.2;0 / 16;98010;2022-10-22 18:54:59:752
0.2453;3.3182;7.7342;0.8968;4.59;8.6196;-0.5045;-0.7381;-0.2131;0.032;-0.462;0.4232;3.0;-56.36;-10.29;-18.02;89.52;-24.33;-5.42;2.0;990.25;44.037;35.95838;-83.924355;787.09;NaN;;3.28;817.94275;86.2;0 / 16;98510;2022-10-22 18:55:00:252
0.2142;4.9187;10.989;0.7443;3.9642;8.9388;-0.1121;0.3474;-1.2933;0.2294;0.8172;-0.3953;2.0;-40.67;-9.39;-23.94;85.86;-23.84;-4.76;2.0;990.28;49.24;35.95838;-83.924355;787.09;NaN;;3.28;817.94275;86.2;0 / 16;99011;2022-10-22 18:55:00:753
0.2934;3.9407;8.0704;-0.8576;4.8919;8.456;-0.7001;0.7048;3.1756;-0.0364;1.285;0.4215;2.0;-29.46;-6.62;-30.54;75.55;-27.13;1.18;2.0;990.3;44.836;35.95838;-83.924355;787.09;NaN;;3.28;817.94275;86.2;0 / 16;99511;2022-10-22 18:55:01:253
-1.3131;4.0759;5.7709;-1.3097;4.4296;8.6507;-2.1703;1.3887;1.9888;0.7878;-0.7191;0.9901;2.0;-9.92;-2.38;-38.7;46.43;-26.85;8.61;2.0;990.32;51.991;35.95838;-83.924355;787.09;NaN;;3.28;817.94275;86.2;0 / 16;100010;2022-10-22 18:55:01:752
-4.4495;9.9858;9.6003;-2.8038;6.87;6.4119;2.7312;-2.7153;-1.6917;1.5322;-0.5132;-0.1843;8.0;-1.07;-8.19;-37.54;42.44;-37.06;19.62;2.0;990.36;47.473;35.95838;-83.924355;787.09;NaN;;3.28;817.94275;86.2;0 / 15;100510;2022-10-22 18:55:02:252
-4.2269;6.3969;9.1884;-2.2878;6.7775;6.7083;0.3675;-0.3249;-2.4655;-1.662;2.2254;0.3224;27.0;14.66;-24.32;-26.7;303.74;-43.72;18.83;2.0;990.4;48.689;35.95838;-83.924355;787.09;NaN;;3.28;817.94275;86.2;0 / 15;101010;2022-10-22 18:55:02:752
-0.1328;2.7245;4.3944;-1.5701;4.0464;8.7938;0.8225;0.818;-2.3937;-0.0103;-0.0864;0.9525;37.0;19.91;-13.37;-33.54;293.84;-28.35;9.96;2.0;990.4;45.226;35.95838;-83.924355;787.09;NaN;;3.28;817.94275;86.2;0 / 16;101510;2022-10-22 18:55:03:252
0.5231;3.0787;8.7589;-0.1852;4.888;8.4996;0.8413;-1.5897;-0.9566;-0.3496;0.5001;1.2728;32.0;6.13;-7.18;-48.54;350.12;-31.93;2.92;2.0;990.41;49.615;35.95838;-83.924355;787.09;NaN;;3.28;817.94275;86.2;0 / 16;102010;2022-10-22 18:55:03:752
0.5136;4.3705;6.9117;0.1648;4.2101;8.8554;-0.0429;1.3308;-1.6941;0.0982;0.4451;0.6872;19.0;4.16;-3.51;-51.52;345.21;-27.89;-1.62;2.0;990.41;46.61;35.95838;-83.924355;787.09;NaN;;3.28;817.94275;86.2;0 / 16;102510;2022-10-22 18:55:04:252
-0.0263;3.5157;7.3642;-1.2714;4.914;8.3909;1.3805;-0.5097;-0.9987;-0.3932;0.6265;1.0894;24.0;-2.4;6.41;-50.29;18.27;-31.62;9.44;2.0;990.41;46.467;35.95838;-83.924355;787.09;NaN;;3.28;817.94275;86.2;0 / 16;103010;2022-10-22 18:55:04:752
-3.0993;4.3525;6.8985;-2.0776;5.1897;8.0573;-0.1793;0.1752;-0.3623;-0.206;0.6918;0.8782;36.0;9.51;16.61;-51.21;358.1;-29.5;9.62;2.0;990.43;37.489;35.95838;-83.924355;787.09;NaN;;3.28;817.94275;86.2;0 / 16;103510;2022-10-22 18:55:05:252
-3.8402;5.6895;7.028;-4.0679;5.4931;7.032;0.2196;0.8257;0.5579;0.0598;0.7296;0.7662;21.0;36.0;32.06;-50.64;354.58;-32.72;29.94;2.0;990.42;33.488;35.95838;-83.924355;787.09;NaN;;3.28;817.94275;86.2;0 / 16;104010;2022-10-22 18:55:05:752
-4.5655;6.2127;6.5204;-4.3296;4.9149;7.2985;-0.179;0.9747;-0.9973;0.3047;3.0E-4;0.132;9.0;54.28;33.98;-35.21;334.97;-30.98;31.67;2.0;990.41;31.75;35.95838;-83.924355;787.09;NaN;;3.28;817.94275;86.2;0 / 16;104510;2022-10-22 18:55:06:252
-5.589;5.9877;7.9747;-3.0078;5.2133;7.7424;-0.4778;-0.9306;0.6461;-1.257;-1.5216;-0.5099;10.0;45.02;39.23;-35.42;333.63;-32.11;21.23;2.0;990.42;40.863;35.95838;-83.924355;787.09;NaN;;3.28;817.94275;86.2;0 / 16;105011;2022-10-22 18:55:06:753
1.7524;10.7052;14.9381;1.4347;4.9932;8.3174;-5.6302;3.9107;5.2398;0.3648;-2.3273;2.4665;7.0;36.66;45.98;-38.16;334.85;-28.86;11.11;2.0;990.45;43.681;35.95838;-83.924355;787.09;NaN;;3.28;817.94275;86.2;0 / 16;105511;2022-10-22 18:55:07:253
-1.622;2.5172;10.1821;0.9118;4.2805;8.7759;0.3034;-2.4889;-1.969;0.6745;-0.1577;0.897;4.0;36.24;45.24;-45.79;325.42;-25.88;-5.93;2.0;990.44;51.022;35.95838;-83.924355;787.09;NaN;;3.28;817.94275;86.2;0 / 16;106010;2022-10-22 18:55:07:752
8.5959;5.0025;5.8726;4.4748;4.3781;7.5485;0.3378;0.4233;-1.6822;-2.7076;-2.2733;0.9636;4.0;48.0;23.16;-45.24;293.03;-39.25;-30.06;2.0;990.45;42.359;35.95838;-83.924355;787.09;NaN;;3.28;817.94275;86.2;0 / 16;106510;2022-10-22 18:55:08:252
1.2449;0.5794;9.0724;-0.3416;3.4339;9.1794;3.8445;-0.3537;1.2005;0.3428;-0.4532;-0.9962;4.0;41.06;6.73;-34.74;295.99;-20.5;2.13;2.0;990.51;49.132;35.95838;-83.924355;787.09;NaN;;3.28;817.94275;86.2;0 / 16;107010;2022-10-22 18:55:08:752
0.0826;-0.3102;8.3554;1.5128;1.7985;9.5209;-5.2266;-0.7949;0.9283;0.6478;-1.6546;-0.4846;5.0;43.13;-5.42;-18.88;274.13;-19.35;5.67;2.0;990.54;43.562;35.95838;-83.924355;787.09;NaN;;3.28;817.94275;86.2;0 / 16;107510;2022-10-22 18:55:09:252
1.8769;2.8454;6.1995;2.773;2.1066;9.1675;-1.4921;-0.3583;-0.4504;-0.0309;-0.4107;-0.2774;6.0;37.13;-2.72;-34.39;273.44;-13.49;-14.2;2.0;990.52;51.437;35.95838;-83.924355;787.09;NaN;;3.28;817.94275;86.2;0 / 16;108010;2022-10-22 18:55:09:752
2.551;0.1711;7.2338;1.6718;1.0902;9.6014;-0.9505;-0.3221;-1.2334;0.4001;-0.2841;0.1677;6.0;30.75;16.97;-36.04;294.99;-7.07;-4.51;2.0;990.55;42.329;35.95838;-83.924355;787.09;NaN;;3.28;817.94275;86.2;0 / 16;108510;2022-10-22 18:55:10:252
2.7915;0.2082;6.8363;2.8576;1.5941;9.2446;-1.1015;-0.9049;-2.2593;-0.2943;-0.5683;-0.0838;7.0;20.85;20.7;-29.83;315.33;-13.02;-10.18;2.0;990.56;44.301;35.95838;-83.924355;787.09;NaN;;3.28;817.94275;86.2;0 / 16;109010;2022-10-22 18:55:10:752
2.1093;5.0312;11.7108;2.7727;2.0597;9.1782;-0.1061;-1.1525;-2.5642;0.7036;0.4152;-0.202;11.0;9.11;20.04;-21.82;327.79;-11.47;-15.92;2.0;990.61;42.276;35.95838;-83.924355;787.09;NaN;;3.28;817.94275;86.2;0 / 16;109514;2022-10-22 18:55:11:256
3.0811;4.3573;9.2315;-0.3151;2.8364;9.3822;-0.9255;0.202;-0.7344;-0.5163;0.1292;-1.423;17.0;4.22;22.73;-15.99;354.74;-17.34;5.43;2.0;990.62;39.768;35.95838;-83.924355;787.09;NaN;;3.28;817.94275;86.2;0 / 16;110010;2022-10-22 18:55:11:752
-0.498;4.0017;9.2327;-0.6172;5.0463;8.3859;0.3222;-0.8229;0.6363;-0.239;0.5166;0.0318;30.0;-14.89;21.99;-13.8;27.15;-26.59;-5.42;2.0;990.56;38.959;35.95838;-83.924355;787.09;NaN;;3.28;817.94275;86.2;0 / 16;110510;2022-10-22 18:55:12:252
-0.5662;4.5093;8.584;-0.804;4.4139;8.7202;-0.2506;-0.501;0.9586;-0.2518;0.0251;-0.1918;27.0;-27.77;15.75;-17.7;54.33;-26.75;5.27;2.0;990.61;35.966;35.95838;-83.924355;787.09;NaN;;3.28;817.94275;86.2;0 / 16;111010;2022-10-22 18:55:12:752
-4.4207;5.3952;4.5763;-3.9149;5.1392;7.3778;0.5482;0.1675;0.6011;0.2167;0.9934;-0.1886;28.0;-29.21;13.46;-17.72;65.65;-30.33;18.96;2.0;990.6;24.403;35.95838;-83.924355;787.09;NaN;;3.28;817.94275;86.2;0 / 16;111511;2022-10-22 18:55:13:253