sep=;
ACCELEROMETER X (m/s²);ACCELEROMETER Y (m/s²);ACCELEROMETER Z (m/s²);GRAVITY X (m/s²);GRAVITY Y (m/s²);GRAVITY Z (m/s²);LINEAR ACCELERATION X (m/s²);LINEAR ACCELERATION Y (m/s²);LINEAR ACCELERATION Z (m/s²);GYROSCOPE X (rad/s);GYROSCOPE Y (rad/s);GYROSCOPE Z (rad/s);LIGHT (lux);MAGNETIC FIELD X (μT);MAGNETIC FIELD Y (μT);MAGNETIC FIELD Z (μT);ORIENTATION Z (azimuth °);ORIENTATION X (pitch °);ORIENTATION Y (roll °);PROXIMITY (i);ATMOSPHERIC PRESSURE (hPa);SOUND LEVEL (dB);LOCATION Latitude : ;LOCATION Longitude : ;LOCATION Altitude ( m);LOCATION Altitude-google ( m);LOCATION Altitude-atmospheric pressure ( m);LOCATION Speed ( Kmh);LOCATION Accuracy ( m);LOCATION ORIENTATION (°);Satellites in range;Time since start in ms ;YYYY-MO-DD HH-MI-SS_SSS
-4.3214;4.264;6.5348;-2.9768;4.1782;8.3578;-0.096;0.0316;-0.0329;-0.2285;0.1021;0.3487;70.0;31.52;-30.67;-16.14;235.47;-25.22;19.6;5.0;987.55;47.069;35.958286;-83.92454;775.55;NaN;;0.0;31.111277;;13 / 15;12;2022-10-22 18:36:24:895
-2.5929;3.3003;8.3901;-2.7378;3.6665;8.6736;1.251;1.1416;-0.1286;-0.4122;0.9699;0.7761;97.0;25.41;-32.31;-22.71;222.19;-21.95;17.52;5.0;987.53;46.509;35.958286;-83.92454;775.55;NaN;;0.0;31.111277;;14 / 15;511;2022-10-22 18:36:25:394
-2.9088;2.5271;9.3419;-2.6884;3.0835;8.9126;-0.0688;0.8374;-0.2566;-0.7581;-0.3928;0.7461;128.0;20.33;-33.9;-23.38;207.45;-20.4;18.97;5.0;987.54;49.99;35.958286;-83.92454;775.55;NaN;;0.0;31.111277;;14 / 15;1011;2022-10-22 18:36:25:894
0.4346;0.7923;9.0915;-0.5832;2.3173;9.5111;0.1018;-3.0703;1.6592;2.408;-0.0121;0.3112;275.0;4.78;-25.91;-35.78;180.81;2.66;7.29;5.0;987.53;43.611;35.958286;-83.92454;775.55;NaN;;0.0;31.111277;;14 / 15;1512;2022-10-22 18:36:26:395
6.2139;2.8992;9.7475;5.0622;2.4104;8.0458;-2.6526;0.5591;1.6056;1.0204;-2.6192;0.3151;274.0;-14.77;-32.94;-27.9;185.23;-14.23;-32.18;5.0;987.55;57.694;35.958286;-83.92454;775.55;NaN;;0.0;31.111277;;14 / 15;2012;2022-10-22 18:36:26:895
3.4391;2.6958;8.0357;4.1202;1.9971;8.6721;1.5014;0.3547;1.739;-0.1773;0.6382;-0.7731;134.0;-26.89;-34.16;-20.29;149.89;-11.75;-25.41;5.0;987.58;65.18;35.95828;-83.924545;775.63;NaN;;0.0;22.32088;;14 / 15;2511;2022-10-22 18:36:27:394
4.4399;1.8135;10.2311;4.1018;1.3989;8.7971;2.5522;-0.3125;2.0442;1.3132;0.2552;-1.1469;139.0;-20.19;-35.93;-23.23;166.32;-0.41;-24.4;5.0;987.59;43.915;35.95828;-83.924545;775.63;NaN;;0.0;22.32088;;14 / 15;3011;2022-10-22 18:36:27:894
4.8793;0.8441;7.5799;-1.8378;0.7487;9.6038;3.8026;-1.7342;3.4587;-1.7453;5.8996;4.8425;145.0;-22.12;-34.91;-23.42;153.4;-13.36;-18.17;5.0;987.6;45.513;35.95828;-83.924545;775.63;NaN;;0.0;22.32088;;14 / 15;3512;2022-10-22 18:36:28:395
-0.7169;3.4917;8.5253;-0.6471;0.9931;9.7347;2.3706;2.013;1.3085;-0.6992;1.9178;0.6866;215.0;-38.08;-1.69;-38.81;81.53;-8.19;-10.67;5.0;987.63;57.46;35.95828;-83.924545;775.63;NaN;;0.0;22.32088;;14 / 15;4011;2022-10-22 18:36:28:894
-1.2245;-0.0455;9.0855;-0.5376;0.2319;9.7892;-3.0972;0.6615;0.0561;0.0069;0.274;2.1282;108.0;-24.17;30.24;-36.68;40.13;-1.36;3.14;5.0;987.58;51.27;35.958275;-83.92452;775.5;NaN;;0.0;20.81528;;14 / 15;4511;2022-10-22 18:36:29:394
-1.0307;2.2564;9.8758;0.3985;1.3527;9.7047;-0.977;-0.0847;0.7412;0.0769;0.1307;-1.0E-4;71.0;15.36;43.58;-39.32;341.25;-7.93;-2.35;5.0;987.61;43.988;35.958275;-83.92452;775.5;NaN;;0.0;20.81528;;14 / 15;5011;2022-10-22 18:36:29:894
1.445;0.7863;8.4835;0.9428;1.0607;9.7034;0.2453;-0.0473;-2.3067;-0.0701;0.3998;0.3493;70.0;18.32;37.52;-43.35;330.67;-7.53;-8.43;5.0;987.62;46.721;35.958275;-83.92452;775.5;NaN;;0.0;20.81528;;14 / 15;5511;2022-10-22 18:36:30:394
1.7776;1.1503;8.438;0.2255;1.1293;9.7388;-0.2149;-0.4151;0.9795;0.6176;-0.3486;-0.1538;65.0;25.33;36.23;-40.93;327.3;-6.61;-1.33;5.0;987.64;43.716;35.958275;-83.92452;775.5;NaN;;0.0;20.81528;;14 / 15;6011;2022-10-22 18:36:30:894
-0.5554;0.3843;8.5146;-0.2479;1.2235;9.7269;-0.9124;-1.2616;-0.8842;0.4173;-0.994;0.5469;43.0;28.97;32.23;-35.03;322.19;-7.17;1.46;5.0;987.71;46.389;35.958275;-83.924515;776.3;NaN;;0.0;20.359118;;14 / 15;6511;2022-10-22 18:36:31:394
2.6001;1.7213;9.6625;1.7124;2.0019;9.4462;1.1159;-0.2551;-0.0405;-0.3896;-0.5008;-0.3062;31.0;20.12;17.87;-38.27;312.83;-11.78;-10.27;5.0;987.69;47.119;35.958275;-83.924515;776.3;NaN;;0.0;20.359118;;14 / 15;7012;2022-10-22 18:36:31:895
2.7568;1.4402;7.3403;3.1724;1.265;9.1927;-0.7728;0.6634;-1.9781;0.135;-0.2538;0.6024;36.0;3.86;16.26;-33.0;328.37;-7.9;-14.94;5.0;987.69;46.036;35.958275;-83.924515;776.3;NaN;;0.0;20.359118;;14 / 15;7511;2022-10-22 18:36:32:394
2.2804;0.2644;6.6855;1.132;1.0837;9.6806;-0.1312;-0.532;0.0745;0.2963;-0.2906;0.5472;36.0;-1.42;11.08;-25.18;352.06;-6.34;-6.67;5.0;987.68;44.69;35.958275;-83.924515;776.3;NaN;;0.0;20.359118;;14 / 15;8011;2022-10-22 18:36:32:894
0.7576;1.6256;8.2908;1.5891;2.2374;9.4149;-0.8775;-1.072;-1.3973;0.0153;-1.2632;-0.4594;25.0;2.06;-6.9;-22.61;253.51;-13.19;-9.58;5.0;987.76;54.691;35.958275;-83.924515;776.3;NaN;;0.0;20.359118;;13 / 15;8512;2022-10-22 18:36:33:395
-2.4933;4.1309;13.5063;0.5028;3.2094;9.253;-2.2479;0.6997;3.4269;0.6135;0.6603;-0.1716;25.0;11.44;-9.71;-35.49;257.49;-11.37;-5.14;5.0;987.83;58.419;35.958275;-83.924515;776.3;NaN;;0.0;20.359118;;13 / 15;9012;2022-10-22 18:36:33:895
-0.9434;2.8884;8.3076;-0.2099;2.6734;9.4329;0.6486;0.8838;0.152;-0.4042;0.3476;0.4642;63.0;21.0;3.79;-55.65;313.17;-18.98;-2.22;5.0;987.81;60.644;35.958275;-83.924515;776.3;NaN;;0.0;20.359118;;13 / 15;9511;2022-10-22 18:36:34:394
-6.4519;5.7147;12.0613;-0.3283;2.4284;9.4956;-4.384;4.5249;3.6007;0.0677;-0.4977;1.9616;158.0;16.56;12.04;-53.19;323.11;-14.19;-1.52;5.0;987.92;43.733;35.958275;-83.924515;776.3;NaN;;0.0;20.359118;;13 / 15;10011;2022-10-22 18:36:34:894
-0.6942;0.5435;8.7458;0.21;0.1877;9.8026;0.8482;0.7995;2.1118;-1.0843;0.8831;0.657;320.0;23.29;3.38;-51.41;279.35;-1.1;-1.23;5.0;987.79;53.622;35.958275;-83.924515;776.3;NaN;;0.0;20.359118;;11 / 15;10511;2022-10-22 18:36:35:394
2.9961;5.8534;8.5397;3.0315;3.5618;8.6194;-2.1369;0.1672;3.0391;2.5589;-1.2039;1.8887;360.0;12.49;-12.3;-47.87;277.98;-21.3;-19.38;5.0;987.85;39.353;35.958275;-83.924515;776.3;NaN;;0.0;20.359118;;11 / 15;11011;2022-10-22 18:36:35:894
3.7493;3.0296;9.4555;3.285;2.0158;9.0175;-0.8693;0.6247;1.1287;0.2023;-0.1033;0.2149;260.0;2.66;-27.06;-37.8;217.16;-10.53;-19.13;5.0;987.83;39.735;35.958275;-83.924515;776.3;NaN;;0.0;20.359118;;10 / 15;11513;2022-10-22 18:36:36:396
0.0526;6.6712;9.5859;2.2146;3.4745;8.8991;-0.6903;0.1374;0.6477;1.4334;0.7712;1.4253;168.0;-3.15;-27.28;-29.23;195.24;-20.75;-13.97;5.0;987.82;41.642;35.958275;-83.924515;776.3;NaN;;0.0;20.359118;;10 / 15;12011;2022-10-22 18:36:36:894
0.6057;1.2987;10.0552;1.1815;0.3744;9.728;-0.6278;0.927;0.1664;-0.7554;-0.0988;0.7085;55.0;-12.52;-28.63;-19.14;159.37;-2.19;-6.92;5.0;987.83;37.821;35.958275;-83.924515;776.3;NaN;;0.0;20.359118;;10 / 15;12512;2022-10-22 18:36:37:395
1.3178;-0.2898;9.082;0.7363;-1.0074;9.7269;-0.3457;0.5467;-0.4869;0.0513;-0.0159;0.5689;72.0;-15.06;-20.55;-27.17;151.48;5.9;-4.33;5.0;987.86;39.948;35.958275;-83.924515;776.3;NaN;;0.0;20.359118;;10 / 15;13011;2022-10-22 18:36:37:894
2.1284;0.6715;9.2399;1.2261;1.8332;9.5554;0.4791;-1.0994;-0.2005;0.391;-0.0234;0.3589;47.0;-14.61;-20.25;-28.65;142.91;-7.68;-5.94;5.0;987.84;43.644;35.958275;-83.924515;776.3;NaN;;0.0;20.359118;;10 / 15;13511;2022-10-22 18:36:38:394
0.3209;1.1755;8.747;0.5678;1.5883;9.6605;-1.7578;-0.3278;1.2713;0.4661;-0.252;-0.0189;23.0;-6.62;-14.42;-38.29;147.96;-9.32;-3.36;5.0;987.86;54.023;35.958275;-83.924515;776.3;NaN;;0.0;20.359118;;10 / 15;14011;2022-10-22 18:36:38:894
1.7788;2.3725;9.2076;1.7591;2.5415;9.3068;0.0722;-0.7518;0.428;0.296;0.0171;-0.1193;17.0;-8.85;-11.53;-47.59;356.18;-15.02;-10.7;5.0;987.87;49.979;35.958275;-83.924515;776.3;NaN;;0.0;20.359118;;10 / 15;14512;2022-10-22 18:36:39:395
1.7237;3.6882;9.7223;1.1477;3.3789;9.1344;0.0154;1.0489;1.2276;-0.0275;0.4935;-0.2426;10.0;-7.65;-10.8;-49.95;356.16;-18.22;-9.5;5.0;987.88;42.258;35.958275;-83.924515;776.3;NaN;;0.0;20.359118;;10 / 15;15011;2022-10-22 18:36:39:894
0.1268;2.8729;9.1202;-0.3346;3.1171;9.292;1.0333;0.1374;0.9887;-0.0515;1.1341;-0.2902;7.0;-8.29;-1.84;-46.2;19.07;-18.53;-4.4;5.0;987.91;39.005;35.958275;-83.924515;776.3;NaN;;0.0;20.359118;;9 / 15;15511;2022-10-22 18:36:40:394
0.5686;3.3147;7.3582;0.6417;4.2326;8.8229;0.235;1.2698;2.0046;-0.5359;0.3558;-0.2773;5.0;-23.98;-9.47;-10.42;96.35;-25.49;-7.56;5.0;987.97;45.581;35.958275;-83.924515;776.3;NaN;;0.0;20.359118;;9 / 15;16011;2022-10-22 18:36:40:894
1.756;2.6492;6.6018;0.2635;4.5882;8.6631;0.8515;-0.8019;0.8454;0.3663;0.4634;-1.1936;4.0;-4.91;-38.98;14.25;172.45;-27.9;-1.74;5.0;987.95;58.947;35.958275;-83.924515;776.3;NaN;;0.0;20.359118;;8 / 15;16512;2022-10-22 18:36:41:395
0.3855;5.0336;9.2542;0.3103;4.7228;8.5889;0.3207;-1.6123;1.5514;0.5706;-0.5257;0.6497;5.0;15.47;-28.24;-12.06;219.03;-28.79;-2.07;5.0;987.98;42.357;35.958275;-83.924515;776.3;NaN;;0.0;20.359118;;8 / 15;17011;2022-10-22 18:36:41:894
0.0885;2.6719;8.5923;-0.3292;3.6205;9.1079;0.8403;-2.4022;-1.2781;-0.472;-0.3755;-0.2937;8.0;16.73;-15.49;-22.54;236.37;-24.71;2.98;5.0;988.01;41.8;35.958275;-83.924515;776.3;NaN;;0.0;20.359118;;9 / 15;17511;2022-10-22 18:36:42:394
2.5654;2.642;11.8388;1.6077;1.8983;9.4859;-4.0435;6.4846;2.7746;0.0737;-0.6696;4.1307;11.0;-11.34;8.1;-36.0;17.76;-11.16;-9.62;5.0;988.04;41.6;35.958275;-83.924515;776.3;NaN;;0.0;20.359118;;9 / 15;18011;2022-10-22 18:36:42:894
0.9422;3.0667;10.4372;-0.1716;1.679;9.6603;-0.8044;2.1716;1.0542;0.0349;0.6701;-0.2381;29.0;-17.01;13.37;-29.29;44.66;-9.86;1.02;5.0;988.02;44.754;35.958275;-83.924515;776.3;NaN;;0.0;20.359118;;8 / 15;18512;2022-10-22 18:36:43:395
-0.3425;4.5703;7.5556;-0.0344;2.9502;9.3523;0.7493;0.1532;1.5443;1.2716;1.5326;1.5776;48.0;-10.29;4.56;-37.61;32.06;-17.51;0.21;5.0;988.02;41.323;35.958275;-83.924515;776.3;NaN;;0.0;20.359118;;8 / 15;19013;2022-10-22 18:36:43:896
0.6488;1.0008;9.6769;1.2636;0.0934;9.7244;-1.3065;1.9921;0.9675;-0.4908;-0.4465;0.0086;39.0;-6.45;7.91;-39.81;12.61;-4.39;-5.02;5.0;988.04;41.259;35.958275;-83.924515;776.3;NaN;;0.0;20.359118;;7 / 15;19511;2022-10-22 18:36:44:394
-1.124;2.5714;10.1605;1.6604;0.8427;9.6283;-0.0585;0.0102;1.0317;0.6752;-0.0135;0.7119;33.0;-16.03;21.09;-38.89;20.49;-4.93;-9.78;5.0;988.03;39.731;35.958275;-83.924515;776.3;NaN;;0.0;20.359118;;7 / 15;20012;2022-10-22 18:36:44:895
0.6105;-0.1077;9.6769;1.6062;0.5844;9.6566;-0.6171;0.0435;1.6836;-0.0054;0.2046;0.746;39.0;-5.59;23.46;-45.81;356.38;-3.42;-9.44;5.0;988.03;35.517;35.958275;-83.924515;776.3;NaN;;0.0;20.359118;;7 / 15;20512;2022-10-22 18:36:45:395
-1.5933;2.5642;10.4169;-0.6704;2.7012;9.4034;-1.4094;-0.2951;1.241;0.9167;0.3712;1.0142;28.0;1.26;15.62;-46.69;353.95;-8.35;-1.71;5.0;988.03;42.989;35.958275;-83.924515;776.3;NaN;;0.0;20.359118;;7 / 15;21011;2022-10-22 18:36:45:894
-1.4545;4.6959;8.8702;-0.8562;3.974;8.9244;-1.143;0.1602;-0.001;0.3575;0.2524;0.0126;48.0;15.39;-7.41;-42.04;305.61;-21.99;2.42;5.0;988.07;39.028;35.958275;-83.924515;776.3;NaN;;0.0;20.359118;;8 / 15;21511;2022-10-22 18:36:46:394
-2.1918;5.1784;10.9205;-1.3678;3.9963;8.8504;-0.1158;0.7697;1.1848;-0.4181;0.3389;-0.5359;47.0;13.44;-17.31;-34.57;277.88;-26.84;6.75;5.0;988.07;33.508;35.958275;-83.924515;776.3;NaN;;0.0;20.359118;;8 / 15;22011;2022-10-22 18:36:46:894
-1.2903;4.2855;8.6797;-0.6471;3.3821;9.1822;-1.1741;1.5681;-0.0157;-0.5315;-0.2608;-0.5275;30.0;5.53;-22.41;-27.38;200.02;-20.17;4.03;5.0;988.09;42.111;35.958275;-83.924515;776.3;NaN;;0.0;20.359118;;9 / 15;22511;2022-10-22 18:36:47:394
0.6176;3.2883;8.6593;0.0271;3.2471;9.2534;0.5898;-0.739;-0.8175;0.4158;0.2404;-0.0087;21.0;0.62;-25.14;-24.26;190.44;-20.34;-4.29;5.0;988.09;43.13;35.958275;-83.924515;776.3;NaN;;0.0;20.359118;;9 / 15;23012;2022-10-22 18:36:47:895
3.1651;2.2229;9.3036;2.1905;2.9296;9.0989;-0.5005;0.0847;0.9497;-0.3893;-0.948;1.0969;11.0;2.57;-19.52;-26.7;202.9;-18.5;-3.02;5.0;988.15;52.862;35.958275;-83.924515;776.3;NaN;;0.0;20.359118;;7 / 15;23512;2022-10-22 18:36:48:395
0.553;1.3095;10.1617;1.3752;0.8167;9.6753;-0.3147;1.0456;0.647;-0.6922;-0.5694;-0.7529;11.0;4.03;-9.36;-32.03;233.0;-4.78;-8.09;5.0;988.17;49.703;35.958275;-83.924515;776.3;NaN;;0.0;20.359118;;7 / 15;24011;2022-10-22 18:36:48:894
2.6336;3.4714;8.2621;4.3572;2.6805;8.3666;-0.8594;0.2448;-0.9467;-0.2479;0.8511;-0.3725;11.0;-0.09;-1.86;-37.43;292.41;-15.86;-27.51;5.0;988.18;47.626;35.958275;-83.924515;776.3;NaN;;0.0;20.359118;;7 / 15;24511;2022-10-22 18:36:49:394
2.9052;4.3023;7.7689;4.4016;3.3797;8.0854;-0.3844;-1.6778;-0.7349;0.8117;-1.0262;-0.3113;8.0;0.94;-8.16;-37.12;280.75;-20.16;-28.56;5.0;988.2;51.348;35.958275;-83.924515;776.3;NaN;;0.0;20.359118;;7 / 15;25011;2022-10-22 18:36:49:894
0.5853;5.4514;10.7148;-0.31;4.1718;8.8696;2.3174;0.3584;0.4395;-0.2285;1.137;-0.1135;8.0;12.06;-5.89;-31.99;296.48;-23.9;-4.1;5.0;988.21;44.362;35.958275;-83.924515;776.3;NaN;;0.0;20.359118;;8 / 15;25511;2022-10-22 18:36:50:394
0.1113;1.8446;7.6804;0.0785;2.3113;9.5301;2.7337;1.1965;1.1523;-0.8558;0.8907;0.0515;11.0;20.34;7.95;-30.11;306.18;-13.63;-0.47;5.0;988.26;44.698;35.958275;-83.924515;776.3;NaN;;0.0;20.359118;;8 / 15;26012;2022-10-22 18:36:50:895
1.4545;-3.4475;6.7705;-2.8081;-0.0426;9.3959;1.5379;2.1724;0.8136;-1.8174;1.0611;0.8472;25.0;27.24;19.99;-26.46;317.14;0.25;16.64;5.0;988.26;54.196;35.958275;-83.924515;776.3;NaN;;0.0;20.359118;;7 / 15;26513;2022-10-22 18:36:51:396
-1.343;0.7708;8.6139;-0.363;0.3332;9.7943;-1.5436;0.2149;-1.5589;0.1016;-1.044;0.6871;32.0;39.53;12.64;-16.48;290.15;-0.57;11.36;5.0;988.23;47.705;35.958275;-83.924515;776.3;NaN;;0.0;20.359118;;7 / 15;27011;2022-10-22 18:36:51:894
1.1408;2.12;9.1358;0.3231;1.266;9.7192;0.4296;3.1525;0.0255;-0.1238;0.1752;1.6603;27.0;30.17;-11.42;-26.94;253.03;-3.62;-1.08;5.0;988.26;46.069;35.958275;-83.924515;776.3;NaN;;0.0;20.359118;;5 / 15;27511;2022-10-22 18:36:52:394
2.1906;0.923;8.4918;2.4738;1.38;9.3886;-1.5991;-0.8713;-0.1087;0.2468;-0.193;-0.2139;20.0;8.85;-22.82;-35.96;222.12;-6.28;-13.98;5.0;988.26;50.988;35.958275;-83.924515;776.3;NaN;;0.0;20.359118;;5 / 15;28011;2022-10-22 18:36:52:894
4.8254;2.4826;11.3097;2.3425;1.8162;9.348;0.1575;-0.3408;-0.0675;-0.0726;0.0849;0.0861;33.0;-3.79;-26.94;-34.84;192.99;-10.67;-14.07;5.0;988.28;53.213;35.958275;-83.924515;776.3;NaN;;0.0;20.359118;;5 / 15;28511;2022-10-22 18:36:53:394
0.778;1.6615;11.3372;1.0557;1.1655;9.6798;-0.6331;0.7749;-0.8142;-0.4729;0.1655;-0.2563;35.0;-1.33;-24.21;-34.31;188.99;-8.94;-6.61;5.0;988.26;37.789;35.958275;-83.924515;776.3;NaN;;0.0;20.359118;;5 / 15;29011;2022-10-22 18:36:53:894
3.0993;5.3964;12.4301;1.4626;2.9622;9.2335;1.7411;-0.7456;-0.8252;0.3929;1.4127;3.3193;15.0;-0.06;-20.53;-38.49;201.56;-12.31;-5.36;5.0;988.32;40.75;35.958275;-83.924515;776.3;NaN;;0.0;20.359118;;6 / 15;29511;2022-10-22 18:36:54:394
-2.2792;1.1743;10.2084;-1.8118;1.8973;9.4492;1.2051;-1.2192;-0.7784;-0.0825;-0.1407;-0.2339;10.0;-5.08;-22.44;-38.62;139.52;-11.16;10.85;5.0;988.31;41.249;35.958275;-83.924515;776.3;NaN;;0.0;20.359118;;6 / 15;30012;2022-10-22 18:36:54:895
-0.0969;3.6114;9.562;-0.0821;2.9985;9.3366;-1.1158;-0.1678;0.0726;0.4227;-0.3707;0.9777;9.0;-10.14;-17.61;-40.56;114.08;-17.8;0.5;5.0;988.3;43.247;35.958275;-83.924515;776.3;NaN;;0.0;20.359118;;7 / 15;30511;2022-10-22 18:36:55:394
0.6882;3.2716;8.5433;0.5391;3.4393;9.1679;0.3849;0.2219;-1.3756;-0.2589;0.4508;0.3065;6.0;-22.39;-10.42;-37.97;77.45;-20.53;-3.37;5.0;988.3;39.062;35.958275;-83.924515;776.3;NaN;;0.0;20.359118;;7 / 15;31012;2022-10-22 18:36:55:895
0.0981;2.8597;7.8754;0.0603;3.3921;9.2011;0.1256;0.3806;1.532;0.271;-0.2804;-0.234;4.0;-18.49;-7.41;-41.04;57.92;-22.62;-3.49;5.0;988.31;34.799;35.958275;-83.924515;776.3;NaN;;0.0;20.359118;;5 / 15;31511;2022-10-22 18:36:56:394
1.7967;2.965;9.0568;0.2535;3.6573;9.0956;-1.0669;-0.2769;-0.999;0.0483;-0.1849;0.4329;3.0;-14.06;-13.82;-42.75;76.02;-21.9;-1.6;5.0;988.29;31.125;35.958275;-83.924515;776.3;NaN;;0.0;20.359118;;5 / 15;32011;2022-10-22 18:36:56:894
2.3737;2.4718;6.7765;1.1294;3.7073;9.0084;-0.3629;0.01;0.3968;0.1334;-0.337;-0.3335;4.0;-21.37;-21.09;-35.32;107.9;-22.21;-7.15;5.0;988.34;36.862;35.958275;-83.924515;776.3;NaN;;0.0;20.359118;;5 / 15;32511;2022-10-22 18:36:57:394
3.0751;1.5132;7.5197;1.5447;3.6319;8.9774;0.3588;0.0516;0.5782;-1.0777;-0.1314;0.1507;4.0;-22.61;-27.19;-26.44;120.97;-25.86;-6.88;5.0;988.34;45.714;35.958275;-83.924515;776.3;NaN;;0.0;20.359118;;5 / 15;33011;2022-10-22 18:36:57:894
1.8362;1.4773;7.2063;0.8249;2.7587;9.3744;1.4518;0.9344;-1.8621;-0.2621;-0.0943;-0.4588;4.0;-24.06;-26.74;-18.88;130.44;-19.03;-6.53;5.0;988.37;41.557;35.958275;-83.924515;776.3;NaN;;0.0;20.359118;;6 / 15;33511;2022-10-22 18:36:58:394
1.573;3.0009;8.6629;0.4293;4.2748;8.8154;-0.7506;-0.0541;0.2808;0.0224;-0.1826;0.7271;4.0;-17.7;-25.56;-17.08;131.77;-25.84;-0.65;5.0;988.4;49.93;35.958275;-83.924515;776.3;NaN;;0.0;20.359118;;6 / 15;34011;2022-10-22 18:36:58:894
-1.1755;4.0986;8.9659;-0.5791;3.6281;9.0924;0.4283;-1.7776;-1.4347;-0.0153;-1.1833;-0.557;6.0;-12.97;-23.7;-22.89;134.35;-21.71;3.64;5.0;988.44;45.405;35.958275;-83.924515;776.3;NaN;;0.0;20.359118;;6 / 14;34511;2022-10-22 18:36:59:394
0.3784;4.2497;11.8424;-0.082;3.594;9.124;0.279;2.5352;3.6177;-0.8316;-0.463;1.713;7.0;-13.97;-25.07;-24.28;127.63;-26.42;4.62;5.0;988.49;44.825;35.958275;-83.924515;776.3;NaN;;0.0;20.359118;;6 / 14;35011;2022-10-22 18:36:59:894
1.8625;2.0399;8.123;2.7818;1.4614;9.2896;-0.7998;0.4871;-1.4058;-0.6363;-0.7197;-0.835;9.0;-23.49;-13.16;-28.59;119.41;-8.57;-16.67;5.0;988.47;41.629;35.958275;-83.924515;776.3;NaN;;0.0;20.359118;;4 / 15;35511;2022-10-22 18:37:00:394
5.9172;-0.996;8.7876;3.6001;1.1964;9.0431;-0.3552;0.9905;0.6123;-0.2976;-0.234;0.2705;11.0;-26.92;-7.39;-28.48;98.11;-7.39;-17.67;5.0;988.5;45.609;35.958275;-83.924515;776.3;NaN;;0.0;20.359118;;4 / 15;36011;2022-10-22 18:37:00:894
2.3462;1.3848;6.3479;3.4692;1.5239;9.0451;-0.7735;0.6236;5.0845;0.8149;1.1837;1.311;16.0;-30.21;8.59;-38.74;40.89;-8.94;-20.98;5.0;988.51;46.388;35.958275;-83.924515;776.3;NaN;;0.0;20.359118;;4 / 14;36511;2022-10-22 18:37:01:394
-0.3532;2.569;10.1521;0.9869;1.8062;9.5882;-0.063;2.2499;1.3843;-0.2796;1.9901;1.6656;23.0;-15.34;3.98;-61.52;28.83;-10.61;-5.88;5.0;988.54;42.644;35.958275;-83.924515;776.3;NaN;;0.0;20.359118;;4 / 14;37012;2022-10-22 18:37:01:895
1.0857;1.0582;10.3256;1.911;-0.2042;9.6165;-2.5735;0.8478;2.9789;0.5325;-0.972;-0.1278;50.0;-2.49;0.47;-72.02;255.13;-1.92;-4.77;5.0;988.5;49.038;35.958275;-83.924515;776.3;NaN;;0.0;20.359118;;5 / 15;37511;2022-10-22 18:37:02:394
-1.9848;4.392;11.2271;2.5327;0.9817;9.4229;0.2425;-0.8223;-0.5969;0.6453;0.2712;1.0656;42.0;-28.28;17.38;-70.09;19.97;-5.75;-15.04;5.0;988.51;44.727;35.958275;-83.924515;776.3;NaN;;0.0;20.359118;;5 / 15;38011;2022-10-22 18:37:02:894
-0.1807;4.8589;11.5493;1.447;2.9665;9.2345;0.4127;-1.0302;0.0403;0.2427;0.1891;0.1048;59.0;-14.63;14.27;-71.81;12.7;-17.18;-10.18;5.0;988.52;33.842;35.958275;-83.924515;776.3;NaN;;0.0;20.359118;;5 / 15;38511;2022-10-22 18:37:03:394
1.1874;3.7385;9.3108;0.4789;2.7491;9.4012;0.2758;1.0659;-0.2501;-0.5662;1.6388;0.08;63.0;-6.34;9.68;-66.92;349.88;-18.92;-9.87;5.0;988.53;37.813;35.958275;-83.924515;776.3;NaN;;0.0;20.359118;;5 / 15;39011;2022-10-22 18:37:03:894
0.0993;-0.3604;10.5245;-0.1034;-0.1888;9.8043;0.7192;0.4611;-0.6601;0.17;-0.4765;0.6577;36.0;5.83;22.63;-58.05;346.16;1.1;0.6;5.0;988.51;34.159;35.958275;-83.924515;776.3;NaN;;0.0;20.359118;;5 / 14;39511;2022-10-22 18:37:04:394
1.0905;0.7552;7.0878;0.5692;1.4294;9.6852;-0.9894;-0.3611;-1.4088;0.1209;-0.4054;0.1086;31.0;3.34;22.2;-58.31;351.13;-8.05;-1.65;5.0;988.52;31.896;35.958275;-83.924515;776.3;NaN;;0.0;20.359118;;5 / 14;40011;2022-10-22 18:37:04:894
0.0383;2.065;9.7499;0.0945;2.419;9.5031;0.2105;0.8764;0.1289;-0.1006;-0.1532;0.0533;34.0;-4.33;11.48;-59.53;7.61;-14.28;-0.57;5.0;988.54;38.808;35.958275;-83.924515;776.3;NaN;;0.0;20.359118;;5 / 15;40511;2022-10-22 18:37:05:394
0.5375;1.3442;7.9783;0.3856;3.0297;9.3189;-0.5657;-1.009;0.1539;0.4813;-0.5976;0.091;30.0;-5.32;7.95;-54.92;7.94;-17.43;-1.7;5.0;988.54;43.148;35.958275;-83.924515;776.3;NaN;;0.0;20.359118;;5 / 15;41011;2022-10-22 18:37:05:894
-1.5694;5.0611;12.2758;0.5588;3.1611;9.2664;-0.6183;-0.262;-0.2124;0.5281;-0.2981;-0.7401;6.0;-0.19;4.78;-49.48;351.81;-18.8;-3.45;5.0;988.6;43.519;35.958275;-83.924515;776.3;NaN;;0.0;20.359118;;5 / 15;41511;2022-10-22 18:37:06:394
-1.4163;2.8226;10.5736;0.6643;3.1664;9.2576;0.1598;-0.0933;-1.753;-0.3969;0.4157;1.0107;4.0;2.51;2.16;-44.85;345.63;-21.25;-2.1;5.0;988.61;61.377;35.958275;-83.924515;776.3;NaN;;0.0;20.359118;;5 / 15;42011;2022-10-22 18:37:06:894
-2.1966;7.5102;8.9647;-0.8002;5.263;8.236;-3.1371;0.0034;0.896;1.2894;-0.385;-0.0451;4.0;17.55;0.43;-36.19;324.4;-32.46;5.55;5.0;988.65;46.707;35.958275;-83.924515;776.3;NaN;;0.0;20.359118;;6 / 15;42511;2022-10-22 18:37:07:394
-0.99;7.0627;6.9272;-1.0775;6.8991;6.8856;1.1141;-0.3755;0.3061;0.0882;0.682;-0.2749;6.0;22.24;-7.13;-34.28;321.94;-44.71;8.89;5.0;988.68;43.674;35.958275;-83.924515;776.3;NaN;;0.0;20.359118;;6 / 15;43011;2022-10-22 18:37:07:894
-1.998;4.7764;8.0441;-2.1429;5.5936;7.7646;0.9852;-1.3854;-2.4738;-0.3134;0.4116;0.367;15.0;32.64;-6.15;-35.34;310.66;-34.78;15.43;5.0;988.73;45.701;35.958275;-83.924515;776.3;NaN;;0.0;20.359118;;4 / 15;43516;2022-10-22 18:37:08:399
-2.3306;3.1496;8.7362;-3.1571;3.6653;8.5305;2.5968;-1.1767;-1.6703;-0.173;-0.0815;-0.2413;20.0;37.5;5.44;-34.11;312.03;-21.95;20.31;5.0;988.74;54.969;35.958275;-83.924515;776.3;NaN;;0.0;20.359118;;4 / 15;44011;2022-10-22 18:37:08:894
-4.5081;6.0045;8.7087;-2.0783;4.3199;8.5551;-0.05;1.0719;-0.0245;0.4765;0.8555;0.7352;34.0;31.22;11.16;-32.76;320.64;-26.14;13.65;5.0;988.77;58.954;35.958275;-83.924515;776.3;NaN;;0.0;20.359118;;4 / 15;44512;2022-10-22 18:37:09:395
-2.9614;7.2027;8.5863;-1.7542;4.7255;8.4121;-1.5541;1.7328;-0.3893;0.1361;0.4723;0.6932;39.0;34.73;9.17;-18.99;304.28;-27.18;13.5;5.0;988.74;38.145;35.958275;-83.924515;776.3;NaN;;0.0;20.359118;;4 / 15;45012;2022-10-22 18:37:09:895
-2.5762;5.225;8.0895;-1.1255;4.3683;8.7076;-1.2464;0.7138;0.0757;-0.0401;0.7016;1.3946;37.0;42.56;6.39;-8.68;286.31;-25.46;8.7;5.0;988.74;52.349;35.958275;-83.924515;776.3;NaN;;0.0;20.359118;;3 / 15;45511;2022-10-22 18:37:10:394
-2.0351;4.5464;10.1426;-0.6473;3.6097;9.0951;0.4689;-0.5244;0.405;0.3648;-0.2356;-0.1979;27.0;39.41;-21.96;6.75;241.22;-21.01;5.52;5.0;988.76;32.04;35.958275;-83.924515;776.3;NaN;;0.0;20.359118;;3 / 15;46011;2022-10-22 18:37:10:894
0.0502;2.126;7.3307;-0.4385;3.6347;9.0976;-0.4143;-0.2554;-1.3122;0.0091;-0.11;0.4011;30.0;25.24;-34.56;9.81;215.44;-21.75;2.76;5.0;988.73;35.581;35.958275;-83.924515;776.3;NaN;;0.0;20.359118;;2 / 15;46511;2022-10-22 18:37:11:394
0.8429;1.7297;6.9583;-0.4602;2.7557;9.4002;2.1578;0.7641;-1.026;-0.5263;0.3005;0.7943;34.0;9.23;-34.16;9.84;195.02;-16.32;2.8;5.0;988.75;42.145;35.958275;-83.924515;776.3;NaN;;0.0;20.359118;;2 / 15;47011;2022-10-22 18:37:11:894
0.3772;1.7572;8.4093;-0.4674;2.7469;9.4025;0.726;-2.1983;-0.3252;0.4386;-0.1377;0.4842;24.0;0.98;-26.7;2.49;182.29;-14.06;1.98;5.0;988.81;42.369;35.95835;-83.92443;809.66;NaN;;1.22;355.47647;47.4;2 / 15;47511;2022-10-22 18:37:12:394
0.1208;1.4222;8.5732;-2.1288;3.3414;8.9707;0.71;0.0892;1.3392;0.0893;0.5472;0.3278;6.0;-6.02;-12.39;-0.77;152.02;-19.92;13.35;5.0;988.79;43.765;35.95835;-83.92443;809.66;NaN;;1.22;355.47647;47.4;2 / 15;48011;2022-10-22 18:37:12:894
-1.7177;3.7983;6.8387;-1.3238;2.3485;9.4288;-1.0509;1.531;-1.7657;-0.2478;-0.3726;0.4203;3.0;-14.04;-10.37;0.53;127.94;-15.94;10.53;5.0;988.82;40.657;35.95827;-83.924515;776.86;NaN;;0.0;415.7258;;2 / 15;48511;2022-10-22 18:37:13:394
-0.486;2.709;8.5253;-1.4416;3.7796;8.9335;-0.8677;0.3349;-0.5887;-0.2697;0.9412;1.3475;4.0;-23.16;-0.28;0.0;93.56;-22.67;9.17;5.0;988.81;36.034;35.95827;-83.924515;776.86;NaN;;0.0;415.7258;;2 / 15;49011;2022-10-22 18:37:13:894
-2.1631;3.6547;8.9396;-1.3545;3.86;8.9127;0.1153;-0.4875;-0.5224;0.14;-0.2353;-0.5846;4.0;-16.97;11.14;-7.42;56.37;-24.06;8.33;5.0;988.79;37.616;35.958324;-83.92444;809.45;NaN;;0.58;506.77777;47.4;2 / 15;49511;2022-10-22 18:37:14:394
0.5351;4.4327;8.0405;-1.4593;4.2119;8.735;0.034;-0.2639;-0.9994;-0.1328;0.0363;0.1668;4.0;-7.8;10.82;-13.91;33.69;-25.44;9.48;5.0;988.83;32.423;35.958324;-83.92444;809.45;NaN;;0.58;506.77777;47.4;2 / 15;50011;2022-10-22 18:37:14:894
-5.0444;7.8359;12.1179;-1.3492;4.7161;8.4917;-0.3356;0.5561;-0.0825;0.325;0.4978;0.5075;3.0;2.04;4.69;-15.58;2.53;-28.74;9.03;5.0;988.87;47.986;35.95827;-83.924515;777.08;NaN;;0.0;578.91003;;2 / 15;50511;2022-10-22 18:37:15:394
-1.6113;4.4734;10.1593;-0.6279;4.5223;8.679;0.3613;-0.6699;0.8515;0.6551;-0.1597;0.128;3.0;2.98;-5.96;-11.02;248.41;-23.83;2.53;5.0;988.89;49.183;35.95827;-83.924515;777.08;NaN;;0.0;578.91003;;2 / 15;51011;2022-10-22 18:37:15:894
-1.7632;5.0432;7.5377;-0.9646;5.6925;7.9269;-0.8973;0.2399;0.4029;0.1876;0.4704;0.3994;3.0;1.05;-12.66;-7.73;180.87;-28.69;6.31;5.0;988.91;45.401;35.95827;-83.924515;777.08;NaN;;0.0;578.91003;;2 / 14;51512;2022-10-22 18:37:16:395
-2.8262;4.4447;6.3491;-2.2887;4.6041;8.3507;0.2739;-0.1211;-0.1907;-0.3207;-0.7381;-0.5487;4.0;1.03;-11.61;-10.14;158.11;-29.97;18.41;5.0;988.93;43.574;35.95827;-83.924515;777.08;NaN;;0.0;578.91003;;2 / 14;52011;2022-10-22 18:37:16:894
-3.693;7.4515;10.0241;-2.7129;5.5789;7.5951;0.2997;1.2591;0.1981;-0.3376;0.7345;0.4258;10.0;6.75;-9.32;-16.8;343.99;-34.67;19.66;5.0;988.97;43.361;35.95827;-83.924515;777.08;NaN;;0.0;578.91003;;2 / 14;52511;2022-10-22 18:37:17:394
-1.1073;6.4893;6.9775;-2.1031;6.128;7.3617;-0.8178;3.2667;1.0013;0.1087;0.155;0.5146;19.0;5.66;-8.46;-20.53;360.0;-38.67;15.94;5.0;988.97;42.282;35.95827;-83.924515;777.08;NaN;;0.0;578.91003;;2 / 14;53011;2022-10-22 18:37:17:894
0.8835;2.8657;6.4113;-0.8032;4.2833;8.7851;2.1398;-0.9296;-2.5185;-0.9393;-1.5453;0.4634;26.0;2.68;-6.58;-26.1;29.97;-31.79;16.28;5.0;988.98;45.389;35.95827;-83.924515;777.08;NaN;;0.0;578.91003;;2 / 15;53511;2022-10-22 18:37:18:394
1.4414;3.8486;4.5858;0.5471;3.282;9.225;-1.9688;4.0657;1.627;-0.3266;-0.7309;0.5677;50.0;-12.66;15.54;-42.49;19.66;-19.55;-3.39;5.0;988.98;52.284;35.95827;-83.924515;777.08;NaN;;0.0;578.91003;;2 / 15;54011;2022-10-22 18:37:18:894
-0.7696;2.3462;10.7734;0.426;4.3863;8.7607;-0.1377;-3.2322;-1.8852;0.4045;0.7054;2.0048;57.0;-12.0;27.66;-47.98;15.46;-24.86;0.7;5.0;989.0;51.705;35.95827;-83.924515;777.08;NaN;;0.0;578.91003;;3 / 15;54511;2022-10-22 18:37:19:394
1.8864;3.8665;7.2326;1.6086;3.585;8.985;-0.1841;0.4514;-1.9899;-0.0378;-0.2068;0.9872;61.0;28.39;16.99;-46.11;310.6;-21.44;-10.15;5.0;988.99;39.37;35.95827;-83.924515;777.08;NaN;;0.0;578.91003;;3 / 15;55011;2022-10-22 18:37:19:894
1.1025;1.7919;8.4165;0.9716;2.7054;9.3759;0.2929;-0.5841;-1.1199;-0.2877;0.0505;0.6912;65.0;30.23;1.78;-38.62;293.26;-20.39;-5.4;5.0;988.99;41.317;35.95827;-83.924515;777.08;NaN;;0.0;578.91003;;2 / 14;55511;2022-10-22 18:37:20:394
-0.6775;4.7728;8.8164;-0.1028;3.78;9.0483;-0.2112;-0.2051;0.1549;0.5281;0.5698;0.9438;41.0;28.93;-15.08;-29.85;265.71;-22.67;0.65;5.0;989.0;39.686;35.95827;-83.924515;777.08;NaN;;0.0;578.91003;;2 / 14;56011;2022-10-22 18:37:20:894
-0.7253;4.7788;8.4966;-0.7575;4.7595;8.5407;0.9073;-0.0854;0.4632;-0.0999;-0.061;0.2382;45.0;17.48;-36.9;-16.67;213.4;-29.03;5.07;5.0;989.0;39.565;35.95827;-83.924515;777.08;NaN;;0.0;578.91003;;3 / 15;56512;2022-10-22 18:37:21:395
0.006;4.4758;8.511;-0.1143;5.6417;8.0205;0.1957;-1.0277;0.5673;0.3993;0.0049;0.1426;45.0;7.14;-36.81;-14.4;196.48;-32.02;-0.38;5.0;988.99;35.658;35.95827;-83.924515;777.08;NaN;;0.0;578.91003;;3 / 15;57011;2022-10-22 18:37:21:894
-0.2788;4.6026;8.1171;-0.6341;5.4765;8.1103;1.3895;0.819;0.5292;-0.2545;1.6072;0.052;42.0;0.49;-33.96;-9.26;180.93;-34.4;-2.37;5.0;989.04;43.146;35.95827;-83.924515;777.08;NaN;;0.0;578.91003;;2 / 15;57512;2022-10-22 18:37:22:395
-0.6834;5.1054;7.7115;-0.4777;5.8648;7.8452;-0.4515;0.2769;1.5445;-0.0458;0.4323;-0.5196;26.0;-6.23;-26.23;-8.91;160.04;-35.12;-1.15;5.0;989.07;38.549;35.95827;-83.924515;777.08;NaN;;0.0;578.91003;;2 / 15;58012;2022-10-22 18:37:22:895
0.7804;3.8198;6.3275;0.4659;5.5483;8.0728;-1.2345;1.4769;1.7054;-0.388;0.0073;-0.1287;8.0;-5.98;-22.76;-11.51;156.16;-34.46;-3.3;5.0;989.05;40.091;35.95827;-83.924515;777.08;NaN;;0.0;578.91003;;2 / 14;58511;2022-10-22 18:37:23:394
-1.2114;-0.1531;7.7354;-2.0022;0.551;9.5843;-1.0999;-0.0436;-0.0086;-0.6669;-1.0052;-0.1243;6.0;6.08;-16.14;-23.57;183.79;-3.22;11.8;5.0;989.07;39.893;35.95827;-83.924515;777.08;NaN;;0.0;578.91003;;2 / 14;59011;2022-10-22 18:37:23:894
-3.1735;0.7995;9.9141;-1.1288;0.6766;9.7179;0.5793;-0.8855;-1.7699;-0.0731;-0.5769;-0.6951;5.0;11.87;-9.99;-30.69;229.75;-6.86;8.75;5.0;989.1;44.663;35.958412;-83.92437;811.09;NaN;;1.84;658.68274;47.4;2 / 15;59511;2022-10-22 18:37:24:394
0.4418;3.2836;8.8594;-0.2271;3.7086;9.0755;-1.4297;-1.4656;2.3181;1.0016;-1.2938;0.2466;6.0;15.79;-10.52;-35.64;283.34;-22.22;1.43;5.0;989.13;44.99;35.958412;-83.92437;811.09;NaN;;1.84;658.68274;47.4;2 / 15;60011;2022-10-22 18:37:24:894
-4.5655;1.7955;10.4264;-1.7515;1.966;9.4466;-1.9387;0.6026;0.7854;0.8702;0.4452;-0.3439;8.0;18.13;-10.24;-36.41;259.18;-11.16;8.26;5.0;989.17;45.964;35.958412;-83.92437;811.09;NaN;;1.84;658.68274;47.4;2 / 15;60511;2022-10-22 18:37:25:394
-7.8646;1.3537;9.7834;-5.5029;2.2078;7.8111;-0.0797;-0.2473;1.1343;-0.6802;0.4868;-0.7657;13.0;30.39;1.2;-29.42;322.52;-13.01;35.16;5.0;989.16;53.435;35.958412;-83.92437;811.09;NaN;;1.84;658.68274;47.4;2 / 15;61011;2022-10-22 18:37:25:894
3.1986;2.2026;9.9212;0.2008;2.0293;9.5923;0.4711;0.1003;2.2806;-0.1049;0.817;1.1267;30.0;25.07;6.99;-31.2;299.82;-13.72;0.42;5.0;989.25;48.806;35.958412;-83.92437;811.09;NaN;;1.84;658.68274;47.4;0 / 15;61511;2022-10-22 18:37:26:394
-1.1731;0.8608;10.0277;-0.9916;2.1747;9.5109;-0.6087;0.3695;1.5359;-0.0189;1.4072;1.7524;28.0;16.22;1.29;-39.92;310.83;-12.81;5.95;5.0;989.21;45.659;35.958412;-83.92437;811.09;NaN;;1.84;658.68274;47.4;0 / 15;62011;2022-10-22 18:37:26:894
1.9944;0.6033;8.438;2.6375;0.7509;9.4154;-1.2906;0.164;0.1813;0.1912;-0.8639;0.325;39.0;13.31;-4.5;-45.04;267.82;-4.39;-15.65;5.0;989.21;43.972;35.95828;-83.92451;778.77;NaN;;0.0;428.2514;;0 / 15;62511;2022-10-22 18:37:27:394
3.8174;0.7373;7.9448;2.5372;0.6573;9.4499;0.9028;0.6949;-1.3187;-0.0273;0.331;0.4881;35.0;-5.89;-13.72;-57.73;227.59;-4.34;-16.31;5.0;989.22;41.804;35.95828;-83.92451;778.77;NaN;;0.0;428.2514;;0 / 15;63011;2022-10-22 18:37:27:894
1.1671;0.0754;9.7128;2.5193;0.7538;9.4475;-0.6845;-0.652;-0.0321;0.1278;0.1604;0.3362;21.0;-10.18;-17.38;-57.21;210.97;-5.23;-16.92;5.0;989.23;37.136;35.95828;-83.92451;778.77;NaN;;0.0;428.2514;;2 / 15;63511;2022-10-22 18:37:28:394
2.5666;-1.008;7.7701;3.1245;0.3287;9.2898;-0.7649;-0.7482;-1.292;0.2579;-0.6565;0.2769;25.0;-13.88;-12.9;-53.36;175.27;-1.02;-13.76;5.0;989.24;32.694;35.95828;-83.92451;778.77;NaN;;0.0;428.2514;;2 / 15;64011;2022-10-22 18:37:28:894
4.022;2.4981;7.5401;3.7986;1.354;8.9391;0.6102;-1.0791;-0.767;0.81;-0.0679;-0.2294;28.0;-25.59;-16.97;-47.64;151.08;-7.94;-23.02;5.0;989.23;47.13;35.95828;-83.92451;778.77;NaN;;0.0;428.2514;;2 / 15;64511;2022-10-22 18:37:29:394
5.2513;1.4868;7.611;4.1378;1.8145;8.7038;-0.1256;1.2345;1.3454;-0.0748;0.4544;0.0944;28.0;-28.14;-22.41;-39.17;146.44;-10.66;-25.43;5.0;989.25;43.033;35.95828;-83.92451;778.77;NaN;;0.0;428.2514;;2 / 15;65011;2022-10-22 18:37:29:894
3.122;3.4881;10.7913;4.5222;1.5451;8.5635;2.7553;1.6899;2.3479;-0.419;1.0048;0.4443;15.0;-29.81;-23.25;-34.54;166.52;-14.17;-37.31;5.0;989.27;41.155;35.95828;-83.92451;778.77;NaN;;0.0;428.2514;;1 / 15;65511;2022-10-22 18:37:30:394
3.5109;2.5845;8.5875;5.0554;1.5752;8.2542;-3.6774;-0.7872;0.735;0.5562;-0.2311;0.0579;10.0;-29.36;-21.34;-38.78;161.39;-9.24;-31.49;5.0;989.25;38.227;35.95828;-83.92451;778.77;NaN;;0.0;428.2514;;1 / 15;66011;2022-10-22 18:37:30:894
1.9705;2.5196;8.5887;3.2584;1.6041;9.1093;-1.3898;0.782;-0.2482;0.6182;0.403;1.1495;9.0;-30.75;-27.21;-46.09;149.9;-8.55;-22.76;5.0;989.28;33.4;35.95828;-83.92451;778.77;NaN;;0.0;428.2514;;3 / 15;66512;2022-10-22 18:37:31:395
2.077;2.7173;9.4854;2.2477;2.4666;9.2214;-0.909;-0.0834;0.8833;0.785;0.0548;0.3096;16.0;-29.94;-21.21;-50.81;109.59;-14.57;-13.7;5.0;989.28;32.494;35.95828;-83.92451;778.77;NaN;;0.0;428.2514;;3 / 15;67012;2022-10-22 18:37:31:895
0.7265;5.7876;8.6689;1.0401;4.4477;8.6779;-0.0974;1.2382;-0.5337;0.4624;0.3472;0.1924;8.0;-20.61;-22.54;-50.51;86.54;-24.01;-8.66;5.0;989.29;40.925;35.95828;-83.92451;778.77;NaN;;0.0;428.2514;;3 / 14;67512;2022-10-22 18:37:32:395
0.8174;6.2258;11.2594;0.9518;5.4672;8.0854;0.8962;-0.6515;0.0891;-0.211;-0.3385;-0.2719;3.0;-14.51;-28.71;-49.43;66.26;-33.88;-6.71;5.0;989.31;43.952;35.95828;-83.92451;778.77;NaN;;0.0;428.2514;;3 / 14;68011;2022-10-22 18:37:32:894
1.7512;3.8474;8.0369;1.2943;3.99;8.8643;-0.1216;-0.583;-1.1669;0.1123;-0.0416;0.115;2.0;-10.99;-29.49;-51.58;145.52;-24.01;-8.31;5.0;989.28;43.635;35.95828;-83.92451;778.77;NaN;;0.0;428.2514;;3 / 15;68511;2022-10-22 18:37:33:394
2.1954;3.821;9.9081;1.0509;3.8136;8.9734;0.444;0.2224;1.4857;0.3287;0.088;-0.1831;2.0;-11.61;-35.03;-48.52;164.97;-21.45;-9.43;5.0;989.32;39.707;35.95828;-83.92451;778.77;NaN;;0.0;428.2514;;3 / 15;69011;2022-10-22 18:37:33:894
1.6316;6.3622;10.9361;1.6523;3.8106;8.8837;-0.9015;0.8813;-0.8535;-0.331;-0.389;-0.1746;2.0;-13.97;-45.49;-39.99;160.2;-24.51;-7.66;5.0;989.21;34.788;35.95828;-83.92451;778.77;NaN;;0.0;428.2514;;2 / 15;69511;2022-10-22 18:37:34:394
1.3167;4.0543;12.8958;1.4558;4.0354;8.8185;0.0443;-1.0659;1.5197;-0.7206;0.5686;-0.2937;2.0;-22.57;-42.77;-31.72;143.83;-27.81;-12.64;5.0;989.35;45.177;35.95828;-83.92451;778.77;NaN;;0.0;428.2514;;2 / 15;70011;2022-10-22 18:37:34:894
-1.6472;6.0464;10.8787;1.8272;3.1391;9.1092;-0.047;0.7718;-0.6288;0.0741;-0.4153;-0.0531;2.0;-18.64;-28.89;-36.98;142.26;-18.67;-11.34;5.0;989.37;47.345;35.95828;-83.92451;778.77;NaN;;0.0;428.2514;;2 / 15;70511;2022-10-22 18:37:35:394
1.6795;3.347;10.8787;0.9406;4.4521;8.687;0.7163;-0.4898;-0.5824;-0.1416;2.7542;0.535;2.0;-12.26;-24.77;-38.36;120.06;-27.0;-6.18;5.0;989.38;50.337;35.95828;-83.92451;778.77;NaN;;0.0;428.2514;;2 / 15;71011;2022-10-22 18:37:35:894
2.01;3.4546;7.9866;0.3233;5.446;8.1491;-1.4571;1.1277;0.5192;-0.1656;0.4629;-0.4357;3.0;4.14;-21.64;-41.47;289.67;-32.31;-6.08;5.0;989.42;45.725;35.95838;-83.92435;811.28;NaN;;0.58;605.4787;47.4;2 / 15;71511;2022-10-22 18:37:36:394
-0.2345;4.1393;10.0349;-0.5373;4.039;8.9201;-0.2538;1.6822;2.8228;-0.0237;-0.5627;-0.4626;3.0;8.33;-19.01;-42.92;275.95;-24.32;3.45;5.0;989.43;42.952;35.95838;-83.92435;811.28;NaN;;0.58;605.4787;47.4;2 / 15;72011;2022-10-22 18:37:36:894
-0.4143;3.4953;8.7434;-0.1299;3.545;9.1426;1.3029;0.606;-0.1696;-0.4868;-0.3797;1.043;5.0;6.21;-11.08;-44.04;339.35;-25.67;3.26;5.0;989.44;41.701;35.95838;-83.92435;811.28;NaN;;0.58;605.4787;47.4;2 / 15;72511;2022-10-22 18:37:37:394
0.7493;1.6232;10.3101;-0.7227;3.163;9.2544;0.8182;0.226;0.9442;-0.0615;-0.3704;0.3887;9.0;-4.14;-1.74;-38.85;33.66;-18.82;4.47;5.0;989.48;40.943;35.95838;-83.92435;811.28;NaN;;0.58;605.4787;47.4;2 / 15;73011;2022-10-22 18:37:37:894
0.6535;5.9459;9.6876;1.1159;4.3287;8.7286;-3.1852;2.1521;-2.3625;-0.3934;-0.7426;1.7254;43.0;-6.21;6.06;-36.96;18.93;-26.1;2.16;5.0;989.5;42.841;35.95838;-83.92435;811.28;NaN;;0.58;605.4787;47.4;0 / 15;73511;2022-10-22 18:37:38:394
1.9753;-0.5315;11.3922;0.1739;0.5175;9.7914;2.1818;-0.5261;-1.3173;-0.555;0.3182;0.0794;50.0;1.01;16.48;-39.13;354.64;-3.03;-1.02;5.0;989.5;40.871;35.95838;-83.92435;811.28;NaN;;0.58;605.4787;47.4;0 / 15;74011;2022-10-22 18:37:38:894
1.9534;2.5017;8.2394;2.0638;2.0699;9.3609;-0.2873;0.1064;-1.9228;0.6123;0.1456;0.9921;35.0;-8.48;13.99;-40.65;357.42;-12.19;-12.43;5.0;989.5;34.382;35.95828;-83.9245;779.48;NaN;;0.0;648.2475;;0 / 15;74511;2022-10-22 18:37:39:394
1.4952;0.9733;8.7254;1.4806;1.5403;9.5711;0.0077;-0.3328;-0.729;-1.0397;-0.5382;0.4665;41.0;0.36;6.08;-45.26;347.12;-16.56;-5.4;5.0;989.48;39.962;35.95828;-83.9245;779.48;NaN;;0.0;648.2475;;0 / 15;75011;2022-10-22 18:37:39:894
2.2373;2.7114;8.2693;2.4469;1.7435;9.3351;-1.2207;0.4232;0.1169;0.9734;0.177;0.6373;46.0;2.04;9.24;-43.89;312.88;-5.14;-15.5;5.0;989.48;35.897;35.95828;-83.9245;779.48;NaN;;0.0;648.2475;;2 / 15;75511;2022-10-22 18:37:40:394
2.7903;3.8533;7.9065;1.8302;4.3153;8.6139;-0.648;0.6759;-0.2169;0.5239;0.2907;0.9205;39.0;4.2;-12.45;-40.69;288.56;-22.67;-11.65;5.0;989.48;35.604;35.95828;-83.9245;779.48;NaN;;0.0;648.2475;;2 / 15;76012;2022-10-22 18:37:40:895
2.1069;4.2293;8.6258;2.1034;4.0042;8.7013;0.5047;-0.3086;0.5216;-0.2227;0.0932;-0.2838;43.0;2.66;-23.64;-34.2;231.41;-24.1;-13.59;5.0;989.48;37.451;35.95828;-83.9245;779.48;NaN;;0.0;648.2475;;2 / 15;76511;2022-10-22 18:37:41:394
3.5097;2.2947;7.4001;2.728;4.2533;8.4046;-0.7038;-1.0418;-1.1488;0.2601;0.117;0.4674;38.0;-5.02;-19.46;-30.56;232.74;-25.7;-17.98;5.0;989.5;44.898;35.95828;-83.9245;779.48;NaN;;0.0;648.2475;;2 / 15;77011;2022-10-22 18:37:41:894
1.8218;4.4985;8.2669;3.0466;3.803;8.5103;-0.7908;0.3418;-0.5265;-0.6409;-0.8639;-0.4264;27.0;-9.41;-16.22;-25.86;148.21;-27.32;-17.03;5.0;989.53;45.574;35.95828;-83.9245;779.48;NaN;;0.0;648.2475;;2 / 15;77512;2022-10-22 18:37:42:395
0.4382;5.6166;7.9184;2.3505;5.2012;7.9745;-0.6371;-1.8386;-0.3182;0.6325;-0.3809;0.7232;23.0;-10.65;-7.41;-21.45;35.79;-32.03;-16.42;5.0;989.54;45.303;35.95828;-83.9245;779.48;NaN;;0.0;648.2475;;2 / 15;78011;2022-10-22 18:37:42:894
0.9087;3.9646;7.1345;1.2654;4.5618;8.5883;-0.0351;-1.2519;-1.4444;-0.4308;-0.3444;-0.2211;5.0;-0.39;-1.31;-20.98;349.64;-29.21;-4.67;5.0;989.57;48.592;35.95828;-83.9245;779.48;NaN;;0.0;648.2475;;3 / 15;78511;2022-10-22 18:37:43:394
3.3135;6.3814;8.7829;1.118;5.8702;7.7757;-1.8138;-0.3718;0.9354;0.7292;-1.2338;0.8075;5.0;10.73;0.58;-20.53;311.57;-36.77;-8.18;5.0;989.6;42.568;35.95828;-83.9245;779.48;NaN;;0.0;648.2475;;3 / 15;79014;2022-10-22 18:37:43:897
2.1272;4.3119;8.8104;2.4378;3.9072;8.658;-1.858;2.2123;1.0455;-0.7119;-0.4854;-0.1722;5.0;11.36;-1.44;-21.97;296.09;-28.25;-14.45;5.0;989.64;44.098;35.95828;-83.9245;779.48;NaN;;0.0;648.2475;;2 / 15;79511;2022-10-22 18:37:44:394
3.1328;4.9355;11.409;2.439;3.9652;8.6313;1.7242;-0.2255;-0.267;-0.2217;1.0827;0.0018;5.0;11.89;0.41;-24.21;293.93;-23.85;-15.78;5.0;989.64;44.186;35.95828;-83.9245;779.48;NaN;;0.0;648.2475;;2 / 15;80012;2022-10-22 18:37:44:895
1.1169;3.0511;7.6624;1.2868;4.1469;8.793;-0.8534;1.2599;-0.2232;0.0043;1.2972;-0.1451;5.0;19.44;-0.58;-28.09;292.88;-25.02;-8.33;5.0;989.66;41.763;35.95828;-83.9245;779.48;NaN;;0.0;648.2475;;3 / 15;80511;2022-10-22 18:37:45:394
-0.5937;1.3382;8.1712;-2.9408;2.3931;9.0441;1.5574;-1.2295;0.5038;0.9986;-0.7437;-0.9717;8.0;38.85;6.04;-20.66;290.68;-8.5;21.01;5.0;989.71;51.759;35.95828;-83.9245;779.48;NaN;;0.0;648.2475;;3 / 15;81011;2022-10-22 18:37:45:894
0.134;6.5288;5.965;-1.7795;6.3444;7.2631;-0.1337;0.257;1.7807;0.5151;-0.2104;0.7197;29.0;45.84;18.06;-20.44;305.4;-38.13;8.06;5.0;989.72;50.437;35.95828;-83.9245;779.48;NaN;;0.0;648.2475;;2 / 15;81513;2022-10-22 18:37:46:396
-6.2234;4.9822;10.2694;-4.6151;2.8898;8.156;1.6741;0.4804;-0.6301;-0.1802;1.7434;-0.0977;49.0;48.0;16.18;-8.78;301.5;-22.3;22.74;5.0;989.74;56.586;35.95828;-83.9245;779.48;NaN;;0.0;648.2475;;2 / 15;82011;2022-10-22 18:37:46:894
-7.7198;5.4718;8.2202;-3.7779;4.2563;7.9863;-2.4106;1.8134;-0.7051;0.4395;1.1852;1.9483;33.0;33.54;-8.92;-3.82;269.55;-25.72;25.32;5.0;989.77;47.961;35.95828;-83.9245;779.48;NaN;;0.0;648.2475;;2 / 15;82511;2022-10-22 18:37:47:394
-3.4403;6.2318;6.7143;-2.3565;5.1426;8.0107;-2.928;2.4144;4.874;-0.7197;-1.3785;0.248;34.0;17.72;-18.54;-11.76;241.69;-31.63;16.39;5.0;989.77;43.46;35.95828;-83.9245;779.48;NaN;;0.0;648.2475;;2 / 15;83011;2022-10-22 18:37:47:894
-3.3338;10.771;6.3658;-2.5446;7.6843;5.536;-0.7757;1.926;1.5745;0.3641;2.3072;-0.1717;48.0;6.39;-23.31;-19.09;189.85;-38.45;14.71;5.0;989.77;43.83;35.958363;-83.92439;809.73;NaN;;0.0;749.1096;;2 / 15;83512;2022-10-22 18:37:48:395
-6.1481;9.1789;7.7498;-2.8748;6.7983;6.4566;0.1102;-1.0237;0.781;0.2127;-0.6639;-0.6979;30.0;5.64;-33.0;-9.34;186.34;-43.89;24.0;5.0;989.77;37.883;35.958363;-83.92439;809.73;NaN;;0.0;749.1096;;2 / 15;84011;2022-10-22 18:37:48:894
-4.3681;8.4165;5.6895;-2.3376;7.313;6.1013;-1.4475;1.4111;-0.7195;-0.3822;1.5744;1.2228;7.0;15.32;-32.64;-11.14;220.73;-45.39;19.1;5.0;989.74;38.351;35.958363;-83.92439;809.73;NaN;;0.0;749.1096;;2 / 15;84515;2022-10-22 18:37:49:398
-0.7971;6.5635;5.6859;-1.9933;7.4433;6.0658;0.1644;-0.6398;0.3928;-0.1191;-0.1914;0.234;3.0;11.74;-37.05;-5.81;209.38;-49.38;18.19;5.0;989.75;36.209;35.958363;-83.92439;809.73;NaN;;0.0;749.1096;;2 / 15;85011;2022-10-22 18:37:49:894
-2.5005;5.9148;6.3909;-2.0145;7.0132;6.5519;0.2455;-1.144;-0.7389;0.0146;0.3195;0.2076;2.0;10.13;-41.01;-0.83;200.5;-47.42;15.22;5.0;989.77;42.354;35.958363;-83.92439;809.73;NaN;;0.0;749.1096;;0 / 15;85511;2022-10-22 18:37:50:394
-0.449;6.9332;6.6915;-0.9754;7.0628;6.7332;-0.1831;-0.6448;0.1937;-0.2314;-0.1261;0.6599;2.0;3.86;-48.39;5.55;187.39;-46.07;8.24;5.0;989.75;29.205;35.958363;-83.92439;809.73;NaN;;0.0;749.1096;;0 / 15;86012;2022-10-22 18:37:50:895
-3.7373;10.9795;10.7961;-0.4283;5.7592;7.9258;0.7787;-1.478;-2.1272;0.2035;-0.1801;-0.3883;2.0;-11.36;-53.29;7.54;167.59;-35.96;3.09;5.0;989.82;43.443;35.958363;-83.92439;809.73;NaN;;0.0;749.1096;;0 / 15;86511;2022-10-22 18:37:51:394
-1.0116;3.9634;9.4771;-1.09;3.6074;9.0537;0.4054;0.5306;2.4703;-0.1232;0.7;-0.3509;2.0;-15.15;-49.67;-1.39;162.21;-21.58;6.86;5.0;989.82;52.438;35.958363;-83.92439;809.73;NaN;;0.0;749.1096;;0 / 15;87011;2022-10-22 18:37:51:894
-0.5231;5.3318;8.3303;0.4656;5.462;8.1314;-1.9932;-0.2294;2.2498;1.9175;-0.0772;0.5158;3.0;-17.59;-40.29;-7.84;152.47;-20.86;-0.02;5.0;989.82;48.216;35.958363;-83.92439;809.73;NaN;;0.0;749.1096;;0 / 15;87512;2022-10-22 18:37:52:395
0.0742;3.5803;7.7605;-0.6736;5.8069;7.8738;1.3748;-1.5794;-0.3206;-0.204;0.1219;-0.0928;3.0;-11.34;-27.07;-2.77;151.37;-36.31;4.89;5.0;989.85;50.417;35.958363;-83.92439;809.73;NaN;;0.0;749.1096;;0 / 15;88011;2022-10-22 18:37:52:894
-1.1695;4.8829;6.7753;-1.4556;6.3672;7.3151;0.2868;0.4685;2.3121;0.0926;0.1183;-0.3855;5.0;-7.46;-21.77;-5.23;151.49;-40.49;11.25;5.0;989.87;43.543;35.958363;-83.92439;809.73;NaN;;0.0;749.1096;;0 / 15;88511;2022-10-22 18:37:53:394
-1.6137;5.085;7.0843;-0.6387;5.6268;8.0064;1.8331;-1.4796;-2.042;-0.4631;-0.3956;-0.4471;9.0;-0.41;-26.61;3.92;180.75;-35.01;4.56;5.0;989.9;46.036;35.958363;-83.92439;809.73;NaN;;0.0;749.1096;;0 / 15;89012;2022-10-22 18:37:53:895
-2.4048;6.8626;8.1449;-2.1563;5.5555;7.7882;0.2192;1.8186;0.994;-0.3355;1.4734;-0.4147;9.0;4.29;-35.62;12.41;187.64;-36.87;3.89;5.0;989.95;59.845;35.958363;-83.92439;809.73;NaN;;0.0;749.1096;;0 / 15;89511;2022-10-22 18:37:54:394
-1.7393;9.0209;5.5627;-0.917;6.7114;7.0913;-0.2571;-1.2014;0.5869;1.9006;0.7846;0.5259;16.0;-4.93;-40.54;27.96;178.41;-43.19;7.37;5.0;989.96;40.607;35.958363;-83.92439;809.73;NaN;;0.0;749.1096;;0 / 15;90011;2022-10-22 18:37:54:894
0.4298;5.2681;6.652;-2.0489;5.473;7.8752;1.2768;1.3585;-0.4558;-0.7587;-0.3695;0.0146;30.0;-14.34;-27.22;29.16;172.48;-39.14;16.09;5.0;989.97;42.523;35.958363;-83.92439;809.73;NaN;;0.0;749.1096;;0 / 15;90513;2022-10-22 18:37:55:396
-0.0945;5.1939;3.9227;-0.3151;5.7333;7.9499;0.3894;2.218;-0.3725;-0.2335;1.1138;0.8493;34.0;-0.28;-10.24;2.83;180.69;-35.78;2.27;5.0;990.01;48.74;35.958363;-83.92439;809.73;NaN;;0.0;749.1096;;0 / 15;91011;2022-10-22 18:37:55:894
0.5495;4.9283;5.8187;0.3579;7.563;6.2324;0.687;-2.6584;-2.1659;-0.0921;1.606;1.2268;26.0;14.94;-10.65;-3.82;254.06;-52.45;-3.91;5.0;990.0;44.576;35.958363;-83.92439;809.73;NaN;;0.0;749.1096;;0 / 15;91511;2022-10-22 18:37:56:394
-0.0562;5.6345;4.8494;0.3214;6.8686;6.9921;-0.3803;1.1223;-1.228;-0.2333;0.2448;0.8289;17.0;5.74;-22.56;0.26;212.78;-44.56;0.93;5.0;989.98;46.361;35.958363;-83.92439;809.73;NaN;;0.0;749.1096;;0 / 15;92011;2022-10-22 18:37:56:894
0.7851;5.3976;5.3219;-0.4097;7.262;6.5777;-0.2461;-0.4227;-1.0699;-0.2054;0.2761;0.721;24.0;-6.86;-22.46;-6.96;141.82;-48.87;5.81;5.0;989.99;37.166;35.958363;-83.92439;809.73;NaN;;0.0;749.1096;;0 / 15;92511;2022-10-22 18:37:57:394
0.0706;7.6205;6.4232;0.4688;7.1336;6.7129;-0.6305;0.9228;-0.1227;-0.3982;0.5813;0.5295;33.0;-18.45;-10.09;-27.51;48.08;-46.67;-3.99;5.0;989.99;42.436;35.958363;-83.92439;809.73;NaN;;0.0;749.1096;;0 / 15;93011;2022-10-22 18:37:57:894
0.4956;8.0201;5.9662;0.5341;7.6777;6.0777;-1.4093;-0.3165;-0.4421;0.4625;0.5512;0.5304;24.0;-21.49;-3.82;-42.69;28.06;-50.35;-5.22;5.0;990.0;36.843;35.958363;-83.92439;809.73;NaN;;0.0;749.1096;;0 / 14;93511;2022-10-22 18:37:58:394
-0.1137;6.682;6.9523;0.203;7.1981;6.6571;-0.876;0.2445;0.1589;0.2805;-0.4084;-0.2675;7.0;-3.11;-1.8;-54.97;5.26;-49.25;-3.66;5.0;990.0;33.242;35.958363;-83.92439;809.73;NaN;;0.0;749.1096;;0 / 14;94011;2022-10-22 18:37:58:894
-1.6866;8.3913;5.9303;0.3337;7.4349;6.3861;-0.1088;0.4151;-0.5627;0.3508;1.3959;0.4026;5.0;-2.29;-9.23;-53.7;0.19;-49.3;-2.99;5.0;989.99;31.202;35.958363;-83.92439;809.73;NaN;;0.0;749.1096;;0 / 15;94511;2022-10-22 18:37:59:394
0.2381;6.5922;7.04;-0.024;7.248;6.6057;0.7206;-0.7157;0.3544;-0.1334;-0.0788;-0.0927;5.0;6.41;-16.09;-52.8;348.45;-47.65;0.21;5.0;990.01;30.572;35.958363;-83.92439;809.73;NaN;;0.0;749.1096;;0 / 15;95012;2022-10-22 18:37:59:895
0.1101;5.8355;6.4268;0.2778;6.6195;7.2302;-0.6368;-0.6061;-0.9912;-0.831;0.6361;0.8005;5.0;8.27;-18.26;-53.08;343.02;-46.82;-0.05;5.0;989.99;33.779;35.958363;-83.92439;809.73;NaN;;0.0;749.1096;;0 / 15;95511;2022-10-22 18:38:00:394
-0.5997;5.5376;7.4276;-1.444;6.5906;7.1169;1.0094;-0.8746;0.8143;0.303;0.0357;-0.426;5.0;17.46;-20.18;-49.99;341.77;-42.23;11.47;5.0;990.0;42.271;35.958363;-83.92439;809.73;NaN;;0.0;749.1096;;0 / 15;96011;2022-10-22 18:38:00:894
-2.2552;6.7884;7.4348;-1.6042;6.7538;6.927;-1.1056;-0.3515;0.7633;0.0198;-0.5514;0.2694;9.0;22.76;-23.57;-44.72;324.48;-42.68;14.21;5.0;990.06;45.089;35.958363;-83.92439;809.73;NaN;;0.0;749.1096;;0 / 14;96511;2022-10-22 18:38:01:394
-3.6305;5.7135;5.68;-3.0149;6.0973;7.0642;1.8246;-1.3099;-1.1794;-0.1112;-0.2784;-0.452;15.0;30.28;-27.84;-31.65;283.8;-38.44;23.11;5.0;990.09;44.57;35.958363;-83.92439;809.73;NaN;;0.0;749.1096;;0 / 14;97011;2022-10-22 18:38:01:894
-3.2931;7.2075;8.3327;-2.4549;6.8899;6.5324;-1.0231;0.5341;0.8747;0.0153;0.7571;0.1222;25.0;30.6;-26.98;-22.95;277.66;-43.69;20.4;5.0;990.1;49.569;35.958363;-83.92439;809.73;NaN;;0.0;749.1096;;0 / 15;97512;2022-10-22 18:38:02:395
-1.0546;8.0931;4.4255;-1.1814;6.6283;7.1302;-2.4855;-0.0871;-2.1267;1.3368;-1.6389;0.4608;46.0;26.38;-23.7;-12.62;255.36;-42.52;9.41;5.0;990.09;60.355;35.958363;-83.92439;809.73;NaN;;0.0;749.1096;;0 / 15;98012;2022-10-22 18:38:02:895
-5.7841;6.8985;6.4149;-3.5893;6.4013;6.5047;2.2779;0.641;1.105;-0.9373;0.4134;-0.0183;65.0;28.61;-21.17;-7.26;265.97;-44.29;26.56;5.0;990.16;44.026;35.958363;-83.92439;809.73;NaN;;0.0;749.1096;;0 / 15;98511;2022-10-22 18:38:03:394
-5.0049;13.2778;5.2334;-1.9581;8.1327;5.1181;-3.8072;4.9586;-0.5218;-1.0959;0.9956;1.4188;65.0;28.76;-29.92;16.48;237.92;-56.03;20.94;5.0;990.15;51.063;35.958363;-83.92439;809.73;NaN;;0.0;749.1096;;0 / 15;99011;2022-10-22 18:38:03:894
-3.1579;6.6138;4.9822;-1.8117;7.1636;6.4475;-0.1204;0.0995;1.462;0.4128;0.4681;-0.3218;35.0;13.39;-43.37;13.41;203.2;-46.99;13.12;5.0;990.17;38.495;35.958363;-83.92439;809.73;NaN;;0.0;749.1096;;0 / 15;99512;2022-10-22 18:38:04:395
-1.7177;7.8826;4.8206;-0.7904;7.0158;6.8062;-0.7343;2.527;0.0974;-0.6474;0.3359;0.6774;37.0;12.68;-48.68;2.87;202.16;-43.95;7.38;5.0;990.14;47.097;35.958363;-83.92439;809.73;NaN;;0.0;749.1096;;0 / 15;100011;2022-10-22 18:38:04:894
-0.0993;9.6924;9.0903;-0.5621;6.5996;7.2318;0.1859;0.2159;0.6523;-0.7539;-0.5069;0.3054;51.0;-7.73;-56.27;2.61;169.99;-42.3;4.44;5.0;990.16;38.818;35.958363;-83.92439;809.73;NaN;;0.0;749.1096;;0 / 15;100512;2022-10-22 18:38:05:395
-0.9302;10.485;9.6613;-0.1903;6.2924;7.5193;-0.4451;1.1482;-0.212;0.2081;0.4512;0.4184;53.0;-22.01;-56.36;-7.13;154.27;-38.42;-1.93;5.0;990.16;36.121;35.958363;-83.92439;809.73;NaN;;0.0;749.1096;;0 / 15;101012;2022-10-22 18:38:05:895
-4.4985;4.1967;11.6725;0.563;1.8797;9.6083;-2.2448;0.9729;2.7926;-0.6095;-1.4246;0.0137;15.0;-23.64;-47.55;-22.11;148.33;-13.03;5.96;5.0;990.15;35.588;35.958363;-83.92439;809.73;NaN;;0.0;749.1096;;0 / 14;101511;2022-10-22 18:38:06:394
-3.4953;4.0244;10.4647;0.0942;2.5839;9.4596;-0.3242;-0.8635;0.3043;0.333;0.1694;0.5576;5.0;-25.8;-37.56;-32.23;137.64;-15.28;-0.57;5.0;990.13;32.543;35.958363;-83.92439;809.73;NaN;;0.0;749.1096;;0 / 14;102011;2022-10-22 18:38:06:894
-0.8198;3.6365;9.3909;-1.5827;4.9755;8.3012;0.6943;0.094;0.4775;-0.0586;0.6417;0.5647;4.0;-31.57;-40.76;-25.57;127.52;-26.62;9.64;5.0;990.17;40.492;35.958363;-83.92439;809.73;NaN;;0.0;749.1096;;0 / 15;102512;2022-10-22 18:38:07:395
-1.8063;4.0543;6.8913;-1.5294;5.6979;7.8336;-2.3924;0.1995;0.4173;0.4109;-0.0157;0.6797;3.0;-45.06;-30.62;-33.53;102.09;-35.52;11.05;5.0;990.15;38.944;35.958363;-83.92439;809.73;NaN;;0.0;749.1096;;0 / 15;103011;2022-10-22 18:38:07:894
-1.2843;5.1891;7.593;-0.5552;5.5531;8.0638;0.0747;-0.8511;0.6457;-0.1535;0.0208;-0.02;3.0;-52.43;-24.69;-33.84;94.13;-34.56;5.02;5.0;990.18;42.885;35.958363;-83.92439;809.73;NaN;;0.0;749.1096;;0 / 15;103511;2022-10-22 18:38:08:394
-0.5674;5.5747;7.2386;0.3096;5.2006;8.3083;0.4479;-0.9933;-2.3811;-0.0735;-0.4193;-0.2111;2.0;-54.75;-17.7;-23.81;91.54;-32.03;-2.13;5.0;990.19;55.159;35.958363;-83.92439;809.73;NaN;;0.0;749.1096;;0 / 15;104011;2022-10-22 18:38:08:894
-0.6799;5.7888;7.9137;-0.5745;5.8281;7.866;-0.7387;-0.7578;0.6413;0.3933;-1.1385;-0.5672;2.0;-44.98;-15.02;-24.66;89.01;-36.46;4.18;5.0;990.24;56.824;35.958363;-83.92439;809.73;NaN;;0.0;749.1096;;0 / 15;104512;2022-10-22 18:38:09:395
0.5052;5.6393;7.8909;0.3916;6.3839;7.4339;1.1326;-1.2558;-0.9908;-0.0499;0.4258;0.1475;1.0;-33.71;-11.29;-31.72;67.12;-40.62;-3.02;5.0;990.26;53.397;35.958363;-83.92439;809.73;NaN;;0.0;749.1096;;0 / 15;105011;2022-10-22 18:38:09:894
-0.3377;7.1943;5.8582;-0.0853;7.9311;5.7672;-1.0391;-0.0396;2.1846;1.2588;-0.0408;0.2351;3.0;-23.17;-16.26;-35.48;58.22;-48.2;1.73;5.0;990.3;53.649;35.958363;-83.92439;809.73;NaN;;0.0;749.1096;;0 / 15;105511;2022-10-22 18:38:10:394
-2.7772;10.5305;6.6664;-0.3095;7.3673;6.4652;0.4493;-2.7911;-0.9782;0.3469;-1.5508;0.1979;9.0;-4.82;-24.66;-33.32;39.12;-48.7;2.74;5.0;990.34;50.69;35.958363;-83.92439;809.73;NaN;;0.0;749.1096;;0 / 15;106011;2022-10-22 18:38:10:894
3.754;5.1401;6.0799;-0.8338;7.3687;6.417;0.8591;5.0933;0.7506;-0.7339;-0.0325;-0.4232;28.0;0.62;-28.5;-28.59;46.89;-48.71;7.4;5.0;990.36;47.111;35.958363;-83.92439;809.73;NaN;;0.0;749.1096;;0 / 15;106511;2022-10-22 18:38:11:394
0.8692;3.8833;2.5606;2.3333;4.2182;8.5401;-1.9603;-0.4853;-5.9352;-0.1427;-1.1316;0.5991;41.0;-2.27;-21.15;-40.61;259.04;-25.48;-15.28;5.0;990.34;48.026;35.958363;-83.92439;809.73;NaN;;0.0;749.1096;;0 / 15;107011;2022-10-22 18:38:11:894
-0.0634;4.9582;9.1693;-0.2174;5.6741;7.9955;0.8481;-1.596;-0.1129;-0.3318;0.7743;0.4354;28.0;-9.23;-14.59;-46.89;34.57;-34.88;1.18;5.0;990.39;46.465;35.958363;-83.92439;809.73;NaN;;0.0;749.1096;;0 / 15;107518;2022-10-22 18:38:12:401
0.7804;3.7875;6.0308;0.7635;4.3874;8.7372;-1.1992;0.5192;-1.8638;0.0723;-0.2238;1.027;18.0;-5.7;2.14;-51.73;3.29;-26.58;-4.99;5.0;990.36;47.714;35.958363;-83.92439;809.73;NaN;;0.0;749.1096;;0 / 15;108012;2022-10-22 18:38:12:895
2.8107;2.898;6.9033;2.0598;3.4877;8.931;0.7203;-0.5639;-2.5146;-0.4051;1.0533;0.8141;38.0;-13.14;13.65;-52.27;353.3;-26.29;-18.59;5.0;990.37;35.963;35.958363;-83.92439;809.73;NaN;;0.0;749.1096;;0 / 15;108512;2022-10-22 18:38:13:395
0.9182;0.2465;8.869;1.2676;0.5792;9.7071;-0.832;0.302;-1.0093;-0.1211;0.1372;-0.0109;39.0;-16.03;39.98;-40.43;12.25;-3.57;-8.53;5.0;990.35;36.406;35.958363;-83.92439;809.73;NaN;;0.0;749.1096;;0 / 15;109011;2022-10-22 18:38:13:894
0.0191;2.0578;9.4161;1.042;2.0841;9.5258;-0.7012;-0.3349;-0.3406;0.5133;-0.1723;0.2934;13.0;-24.19;42.28;-28.54;25.43;-7.99;-4.22;5.0;990.35;23.726;35.958363;-83.92439;809.73;NaN;;0.0;749.1096;;0 / 15;109511;2022-10-22 18:38:14:394
1.8793;2.7257;9.1238;1.6344;2.5483;9.3277;0.283;-0.258;0.1193;7.0E-4;-0.1566;-0.179;6.0;-15.22;43.61;-32.94;12.03;-14.85;-9.13;5.0;990.34;32.808;35.958363;-83.92439;809.73;NaN;;0.0;749.1096;;0 / 15;110011;2022-10-22 18:38:14:894
0.0191;1.8218;10.1689;0.3752;2.5708;9.4562;0.682;0.3377;-0.6495;-0.7241;0.5818;-0.9635;5.0;-19.65;44.42;-33.94;16.47;-18.69;-6.93;5.0;990.36;36.365;35.958363;-83.92439;809.73;NaN;;0.0;749.1096;;0 / 15;110512;2022-10-22 18:38:15:395
-0.1914;4.1309;9.775;1.7489;3.765;8.8846;-1.076;-1.719;1.092;1.2644;-1.0223;-0.0118;6.0;-25.42;47.55;-33.66;16.94;-22.58;-11.14;5.0;990.38;32.736;35.958363;-83.92439;809.73;NaN;;0.0;749.1096;;0 / 15;111011;2022-10-22 18:38:15:894
-0.9063;3.2369;8.8893;-1.2818;3.2908;9.1486;0.3413;-0.3263;-0.2865;0.6386;0.2562;-1.0274;6.0;-36.73;44.1;-38.06;38.68;-19.61;7.98;5.0;990.42;45.174;35.958363;-83.92439;809.73;NaN;;0.0;749.1096;;0 / 15;111511;2022-10-22 18:38:16:394
-2.4132;4.0328;7.9029;-1.0636;4.4605;8.6685;0.1038;-2.1574;0.1373;-0.1828;0.8817;0.0634;6.0;-65.27;17.68;-31.56;68.55;-27.05;6.99;5.0;990.4;41.818;35.958363;-83.92439;809.73;NaN;;0.0;749.1096;;0 / 15;112011;2022-10-22 18:38:16:894
-0.7014;2.5558;10.3531;-0.4358;3.3214;9.2168;-0.471;-1.201;0.6609;0.1807;-0.5123;-0.4756;6.0;-67.26;2.12;-29.68;81.75;-18.68;3.98;5.0;990.47;45.514;35.958363;-83.92439;809.73;NaN;;0.0;749.1096;;0 / 15;112511;2022-10-22 18:38:17:394
-1.6172;3.8641;8.9204;-3.002;3.0562;8.8215;0.4566;-1.3153;-0.5454;-0.3182;0.0031;-0.7472;5.0;-39.79;5.31;-33.17;77.82;-18.16;18.79;5.0;990.48;45.21;35.958363;-83.92439;809.73;NaN;;0.0;749.1096;;0 / 15;113011;2022-10-22 18:38:17:894
-1.5933;4.6564;9.8806;-2.4433;3.2511;8.9236;-1.3624;-1.9884;-0.5126;-1.3645;0.9313;0.4316;4.0;-31.44;13.33;-35.78;61.68;-16.07;12.18;5.0;990.5;44.995;35.958363;-83.92439;809.73;NaN;;0.0;749.1096;;0 / 15;113511;2022-10-22 18:38:18:394
-2.9088;1.8876;11.0453;-2.0449;2.3758;9.2922;-1.4903;0.8195;-1.1038;-0.8396;0.4275;0.6975;4.0;-15.99;26.16;-42.62;35.73;-14.02;12.41;5.0;990.51;44.489;35.958363;-83.92439;809.73;NaN;;0.0;749.1096;;0 / 15;114011;2022-10-22 18:38:18:894
-3.7385;0.6667;8.6498;-3.2353;2.0846;9.0199;2.4102;1.8266;0.3869;0.4699;-1.0219;-0.5191;5.0;-23.31;21.43;-44.89;48.69;-15.32;15.55;5.0;990.55;48.263;35.958363;-83.92439;809.73;NaN;;0.0;749.1096;;0 / 15;114511;2022-10-22 18:38:19:394
-2.6121;4.1752;7.7593;-2.7391;4.6093;8.2111;-0.3789;-0.6675;0.4064;0.6395;-0.6386;0.2411;6.0;-24.39;-0.75;-29.59;74.54;-28.04;18.45;5.0;990.57;43.244;35.958363;-83.92439;809.73;NaN;;0.0;749.1096;;0 / 15;115011;2022-10-22 18:38:19:894
-3.213;5.0731;7.2721;-2.9437;5.6798;7.4327;-0.536;0.0017;-3.2157;0.3778;0.3468;0.3977;7.0;-19.63;-5.81;-20.51;85.33;-35.39;21.61;5.0;990.54;45.165;35.958363;-83.92439;809.73;NaN;;0.0;749.1096;;0 / 15;115511;2022-10-22 18:38:20:394