sep=;
ACCELEROMETER X (m/s²);ACCELEROMETER Y (m/s²);ACCELEROMETER Z (m/s²);GRAVITY X (m/s²);GRAVITY Y (m/s²);GRAVITY Z (m/s²);LINEAR ACCELERATION X (m/s²);LINEAR ACCELERATION Y (m/s²);LINEAR ACCELERATION Z (m/s²);GYROSCOPE X (rad/s);GYROSCOPE Y (rad/s);GYROSCOPE Z (rad/s);LIGHT (lux);MAGNETIC FIELD X (μT);MAGNETIC FIELD Y (μT);MAGNETIC FIELD Z (μT);ORIENTATION Z (azimuth °);ORIENTATION X (pitch °);ORIENTATION Y (roll °);PROXIMITY (i);ATMOSPHERIC PRESSURE (hPa);SOUND LEVEL (dB);LOCATION Latitude : ;LOCATION Longitude : ;LOCATION Altitude ( m);LOCATION Altitude-google ( m);LOCATION Altitude-atmospheric pressure ( m);LOCATION Speed ( Kmh);LOCATION Accuracy ( m);LOCATION ORIENTATION (°);Satellites in range;Time since start in ms ;YYYY-MO-DD HH-MI-SS_SSS
-0.7098;2.1165;12.1753;-2.1525;1.9011;9.3767;0.9693;0.615;0.7957;-1.6205;-0.9138;-0.1477;135.0;23.83;-36.99;-15.62;212.27;-21.15;21.7;5.0;976.29;49.191;35.958313;-83.92472;800.32;NaN;;;153.16774;;0 / 17;6;2022-10-25 20:55:22:461
-5.7529;-0.1759;7.2936;-5.8773;0.5413;7.8316;0.0092;-0.8686;-0.1157;0.0021;0.6255;0.5372;199.0;32.59;-23.12;-28.39;204.92;0.65;35.09;5.0;976.27;48.195;35.9583;-83.92453;744.31;NaN;;0.0;39.350624;;0 / 17;507;2022-10-25 20:55:22:962
-4.4662;0.134;5.5364;-4.171;0.2625;8.8715;0.8889;-1.174;-0.5504;0.0376;-0.3721;-0.4093;244.0;32.34;-24.51;-29.17;198.88;8.05;33.78;5.0;976.28;49.984;35.9583;-83.92453;744.31;NaN;;0.0;39.350624;;0 / 17;1006;2022-10-25 20:55:23:461
-0.25;1.4222;8.9695;-0.7188;-0.2849;9.7761;-1.3396;1.9842;-1.7632;-0.0815;-0.5682;2.3664;212.0;24.53;-28.63;-29.31;216.51;0.45;12.33;5.0;976.28;59.857;35.958332;-83.92448;780.61;NaN;;0.0;28.935856;;9 / 17;1506;2022-10-25 20:55:23:961
1.7548;3.0272;14.0079;1.8357;2.9741;9.1627;-0.2073;0.0067;-1.5752;1.3163;-0.5038;0.224;141.0;0.88;-35.12;-23.29;187.05;-11.65;-6.69;5.0;976.35;55.739;35.958332;-83.92448;780.61;NaN;;0.0;28.935856;;9 / 17;2006;2022-10-25 20:55:24:461
-3.5827;3.4187;10.9783;0.3777;4.2615;8.8243;-3.5028;-1.151;0.3862;-0.2896;-0.0367;1.2225;57.0;-20.85;-40.71;-9.6;147.45;-25.76;-2.45;5.0;976.33;58.479;35.95829;-83.92453;763.48;NaN;;0.0;25.02084;;10 / 17;2506;2022-10-25 20:55:24:961
1.8278;3.1795;9.1657;0.9332;3.1538;9.2387;0.9005;-0.0585;-0.0714;-0.0963;0.7314;0.3717;41.0;-34.78;-22.63;-23.17;112.23;-18.76;-5.77;5.0;976.34;49.196;35.95829;-83.92453;763.48;NaN;;0.0;25.02084;;10 / 17;3006;2022-10-25 20:55:25:461
-2.9267;2.1009;5.9219;-3.2368;3.2947;8.6509;0.165;-1.2716;-0.8597;-0.7624;0.238;1.0942;41.0;-27.96;1.13;-44.77;74.3;-19.63;20.51;5.0;976.32;48.382;35.95828;-83.92452;782.14;NaN;;0.0;22.574652;;11 / 17;3506;2022-10-25 20:55:25:961
-4.6624;3.5456;6.239;-4.8284;2.2982;8.2204;0.0265;1.222;-1.2545;0.055;0.3738;-0.2482;19.0;-12.02;11.93;-50.27;56.62;-12.76;24.16;5.0;976.39;46.142;35.95828;-83.92452;782.14;NaN;;0.0;22.574652;;11 / 17;4006;2022-10-25 20:55:26:461
0.2345;2.0997;8.0022;-0.5095;2.0249;9.5818;-0.1796;-0.1646;-1.1639;-0.0289;-0.2725;0.5445;14.0;-17.78;16.26;-36.39;40.99;-11.92;3.04;5.0;976.39;49.235;35.958263;-83.92452;770.89;NaN;;0.0;19.122448;;12 / 17;4507;2022-10-25 20:55:26:962
0.0419;2.557;9.2483;0.0741;2.0007;9.6001;0.3104;-0.4557;0.3233;-0.5976;-0.5094;-0.0893;18.0;-16.33;11.51;-32.32;40.35;-14.23;0.91;5.0;976.42;46.815;35.958263;-83.92452;770.89;NaN;;0.0;19.122448;;12 / 17;5006;2022-10-25 20:55:27:461
-1.6065;1.8601;9.5524;-1.6199;2.8026;9.257;-0.0932;0.2825;0.0549;-0.7174;0.6158;1.0588;12.0;-11.34;-4.46;-20.08;84.98;-16.61;9.93;5.0;976.42;47.738;35.95826;-83.92453;759.63;NaN;;0.0;17.564104;;12 / 17;5507;2022-10-25 20:55:27:962
-4.9068;-1.9825;10.206;-3.1702;2.9761;8.7899;-1.5559;0.0658;0.3346;0.1603;0.9852;-0.526;9.0;6.3;-9.0;-16.44;205.74;-18.18;15.31;5.0;976.48;46.372;35.95826;-83.92453;759.63;NaN;;0.0;17.564104;;12 / 17;6007;2022-10-25 20:55:28:462
-6.5204;1.4521;8.5193;-5.6962;0.8566;7.9366;-0.5563;0.084;0.4392;-0.4401;1.026;-0.8698;10.0;39.17;14.74;-19.28;313.1;-14.77;28.62;5.0;976.5;45.58;35.958256;-83.92453;756.75;NaN;;0.0;16.631588;;12 / 17;6506;2022-10-25 20:55:28:961
-7.3941;-0.7493;5.1174;-6.0625;1.0319;7.6388;-0.3817;2.2188;-0.1887;0.1702;0.8723;-0.1509;14.0;33.81;31.8;-56.46;23.83;1.82;42.91;5.0;976.54;47.46;35.958256;-83.92453;756.75;NaN;;0.0;16.631588;;12 / 17;7006;2022-10-25 20:55:29:461
-6.4798;-0.0598;9.8387;-6.0144;0.1628;7.7441;-1.7002;-2.9571;1.5034;-0.7556;-0.3839;0.4939;17.0;15.0;-4.11;-55.16;98.13;-0.95;37.83;5.0;976.56;53.354;35.958256;-83.92453;756.75;NaN;;0.0;16.631588;;12 / 17;7506;2022-10-25 20:55:29:961
-6.3144;1.8434;3.6799;-8.8934;-0.0278;4.1324;-6.0224;-2.6276;0.9503;-1.9999;0.242;1.2648;16.0;35.48;0.02;-43.16;82.4;-3.88;66.01;5.0;976.57;49.899;35.958256;-83.92453;756.75;NaN;;0.0;16.631588;;12 / 17;8007;2022-10-25 20:55:30:462
-3.7122;3.146;2.2971;-4.7132;7.4639;4.2716;-2.0422;-3.4938;-3.0917;-0.0617;-0.3528;1.8781;16.0;50.34;-6.0;-32.87;347.5;-49.56;47.81;5.0;976.52;46.409;35.958256;-83.92453;756.75;NaN;;0.0;16.631588;;12 / 17;8506;2022-10-25 20:55:30:961
-4.4327;5.1365;5.7529;-5.8914;5.592;5.4947;-2.9325;-1.8495;-0.9203;-1.1208;1.6044;0.2294;22.0;46.71;-21.41;-27.28;316.22;-34.77;47.0;5.0;976.55;45.452;35.958256;-83.92453;756.75;NaN;;0.0;16.631588;;12 / 17;9006;2022-10-25 20:55:31:461
-4.0579;4.8769;3.0619;-6.1786;6.0046;4.684;-1.1231;-1.5266;-0.8915;-0.0344;-0.1126;0.4816;17.0;54.28;-4.73;-8.98;315.31;-37.76;52.83;5.0;976.55;44.282;35.958256;-83.92453;756.75;NaN;;0.0;16.631588;;12 / 17;9506;2022-10-25 20:55:31:961
-2.5678;5.4383;5.042;-5.8993;5.1181;5.9308;1.1692;-0.9404;-2.2265;-0.8153;0.0383;1.0422;9.0;51.43;-7.63;0.17;286.3;-28.97;45.16;5.0;976.56;43.046;35.958256;-83.92453;756.75;NaN;;0.0;16.631588;;12 / 17;10006;2022-10-25 20:55:32:461
-5.5424;4.18;4.7007;-5.6567;5.1045;6.1738;-2.4357;-0.5826;-0.5856;0.124;-0.4581;0.253;4.0;46.71;-3.75;7.39;284.83;-31.37;42.5;5.0;976.54;43.128;35.958256;-83.92453;756.75;NaN;;0.0;16.631588;;9 / 17;10508;2022-10-25 20:55:32:963
-5.5352;1.5562;9.7331;-6.9449;1.5355;6.7514;0.4125;-0.3187;0.864;-2.0676;0.2223;0.564;4.0;46.41;0.84;5.4;287.18;-19.58;46.34;5.0;976.57;43.902;35.958256;-83.92453;756.75;NaN;;0.0;16.631588;;9 / 17;11006;2022-10-25 20:55:33:461
-7.8993;-0.2572;4.04;-7.7564;1.3094;5.8561;-0.1654;-1.2109;-2.8771;-0.0533;0.3211;-0.2184;1.0;47.46;0.36;5.18;278.11;-7.67;52.95;5.0;976.56;41.411;35.958256;-83.92453;756.75;NaN;;0.0;16.631588;;9 / 17;11506;2022-10-25 20:55:33:961
-11.9178;0.0682;8.2454;-8.8945;0.6672;4.0758;0.4472;0.0182;1.0309;-0.9008;0.1833;-0.2582;0.0;49.01;-0.06;5.85;280.55;-6.76;64.68;5.0;976.56;41.821;35.958256;-83.92453;756.75;NaN;;0.0;16.631588;;9 / 17;12007;2022-10-25 20:55:34:462
-10.0134;0.0682;5.3928;-9.4652;0.9102;2.3985;-0.6636;-0.7724;2.2017;2.703;3.1446;-0.1619;0.0;45.38;3.17;8.16;277.67;-0.77;65.33;5.0;976.6;50.627;35.958256;-83.92453;756.75;NaN;;0.0;16.631588;;8 / 17;12507;2022-10-25 20:55:34:962
-5.3856;1.0391;5.5125;-8.3547;1.8274;4.799;2.0118;1.2933;-1.9633;2.0205;1.0291;0.4681;0.0;44.25;-1.35;20.36;276.1;-8.91;65.27;5.0;976.63;45.067;35.958256;-83.92453;756.75;NaN;;0.0;16.631588;;8 / 17;13006;2022-10-25 20:55:35:461
-4.9331;2.6408;8.1616;-6.069;2.9273;7.1252;1.2164;-0.4781;-0.4707;-0.2653;-0.555;0.382;1.0;48.24;2.16;24.56;275.97;-17.37;40.42;5.0;976.68;48.061;35.958256;-83.92453;756.75;NaN;;0.0;16.631588;;8 / 17;13507;2022-10-25 20:55:35:962
-3.1854;1.3884;10.0349;-6.464;2.6362;6.8875;-3.0431;-2.2457;1.7651;-0.9367;-1.2821;0.5281;1.0;50.66;5.36;15.43;283.35;-15.59;43.18;5.0;976.71;47.871;35.958256;-83.92453;756.75;NaN;;0.0;16.631588;;8 / 17;14007;2022-10-25 20:55:36:462
-1.5718;1.1719;3.9335;-3.0635;1.4631;9.2003;0.3131;1.2153;-1.7584;0.2905;-0.5411;-0.1909;3.0;36.81;-3.64;1.39;266.2;-8.58;18.42;5.0;976.69;44.467;35.958256;-83.92453;756.75;NaN;;0.0;16.631588;;6 / 17;14508;2022-10-25 20:55:36:963
-5.0743;-0.1807;7.0134;-3.0231;0.7918;9.2954;-0.1731;-0.337;-3.6894;-0.1945;0.8401;0.276;3.0;13.5;-19.29;-12.6;228.21;-1.68;13.37;5.0;976.75;44.563;35.958256;-83.92453;756.75;NaN;;0.0;16.631588;;6 / 17;15008;2022-10-25 20:55:37:463
-10.3567;-5.3124;11.8472;-6.529;-2.0506;7.0241;-3.4313;-2.6824;0.0184;-0.1249;-0.6455;0.3461;13.0;21.73;-18.02;-18.81;187.66;12.07;42.91;5.0;976.78;48.747;35.958256;-83.92453;756.75;NaN;;0.0;16.631588;;6 / 17;15506;2022-10-25 20:55:37:961
-10.7507;-5.7733;8.1242;-6.3197;-4.0482;6.3122;-3.1917;-3.8982;7.8305;-2.272;-0.991;0.311;17.0;31.09;-9.77;-23.4;206.91;8.48;41.7;5.0;976.74;42.97;35.958256;-83.92453;756.75;NaN;;0.0;16.631588;;6 / 17;16006;2022-10-25 20:55:38:461
-11.8005;-5.8367;4.04;-5.4173;-4.4101;6.8829;-2.8904;-1.4555;1.618;0.8466;0.3968;1.8053;10.0;23.98;6.98;-32.23;175.46;26.72;38.21;5.0;976.75;42.207;35.958256;-83.92453;756.75;NaN;;0.0;16.631588;;5 / 17;16507;2022-10-25 20:55:38:962
-5.1652;1.124;6.6245;-2.2087;1.0538;9.4964;-1.9675;-2.4222;1.5319;-0.8443;-1.171;1.0895;11.0;11.29;2.93;-43.05;32.43;-5.67;20.39;5.0;976.7;42.376;35.958256;-83.92453;756.75;NaN;;0.0;16.631588;;5 / 17;17008;2022-10-25 20:55:39:463
-6.3873;1.3645;8.9719;-0.1546;2.0613;9.5863;-0.3276;0.86;-1.7735;0.9673;1.7873;-0.7702;8.0;-3.68;-3.75;-42.94;42.55;-12.13;0.92;5.0;976.77;37.232;35.958256;-83.92453;756.75;NaN;;0.0;16.631588;;7 / 17;17507;2022-10-25 20:55:39:962
-4.0376;0.6009;9.7463;-3.3401;2.8078;8.7824;0.5752;-1.0924;-0.6511;0.1926;-0.0157;1.2525;1.0;12.86;-4.8;-41.53;42.79;-12.28;22.54;5.0;976.72;38.087;35.958256;-83.92453;756.75;NaN;;0.0;16.631588;;7 / 17;18006;2022-10-25 20:55:40:461
-4.2915;2.5451;7.1333;-4.1999;3.6482;8.076;-0.5758;-1.0578;0.9094;1.0902;-0.1312;0.093;1.0;28.95;-7.37;-34.03;295.32;-15.85;26.48;5.0;976.73;37.841;35.958256;-83.92453;756.75;NaN;;0.0;16.631588;;7 / 17;18506;2022-10-25 20:55:40:961
-0.3616;4.0256;8.6952;-2.4204;4.1021;8.5723;0.1283;-0.9563;-0.7247;-0.8521;-0.3344;0.2524;1.0;29.7;-12.94;-27.28;270.05;-20.92;15.58;5.0;976.77;41.04;35.958256;-83.92453;756.75;NaN;;0.0;16.631588;;7 / 17;19006;2022-10-25 20:55:41:461
-7.1536;0.1567;11.1099;-3.4659;2.9387;8.6903;-2.9315;-1.9946;1.5291;-0.2304;1.0461;-0.0456;2.0;29.98;-12.09;-22.74;264.93;-17.44;21.74;5.0;976.78;41.326;35.958256;-83.92453;756.75;NaN;;0.0;16.631588;;8 / 17;19506;2022-10-25 20:55:41:961
-6.6999;1.3274;14.0545;-4.7591;1.3969;8.4599;2.0225;-0.0858;0.3908;-0.9974;0.2511;-0.7456;3.0;34.22;-3.17;-20.23;278.38;-9.5;31.09;5.0;976.83;43.116;35.958256;-83.92453;756.75;NaN;;0.0;16.631588;;8 / 17;20007;2022-10-25 20:55:42:462
-3.0945;0.2106;8.3423;-6.0722;0.8754;7.6507;-2.3874;-2.213;0.4801;-1.2289;-0.2276;0.7304;3.0;31.73;6.34;-20.98;307.51;-5.12;38.44;5.0;976.85;47.178;35.958256;-83.92453;756.75;NaN;;0.0;16.631588;;9 / 17;20507;2022-10-25 20:55:42:962
-5.3426;1.6687;7.6229;-6.8721;0.6172;6.9688;0.8449;1.097;2.8626;0.4684;-0.5146;-0.2367;3.0;34.44;12.17;-18.66;322.82;-3.61;44.6;5.0;976.86;52.057;35.958256;-83.92453;756.75;NaN;;0.0;16.631588;;9 / 17;21007;2022-10-25 20:55:43:462
-16.9514;-0.1364;9.0425;-8.7777;0.931;4.2728;2.234;-0.4485;-1.7416;-0.4033;1.3024;-1.1434;5.0;36.6;18.64;-12.79;348.73;-5.45;64.04;5.0;976.87;48.393;35.958256;-83.92453;756.75;NaN;;0.0;16.631588;;9 / 17;21506;2022-10-25 20:55:43:961
-5.1185;0.9494;5.4156;-9.3628;2.0891;2.0357;-0.4133;-2.1445;0.86;-1.5122;-0.1251;0.3285;5.0;38.21;20.46;-9.45;359.54;-13.55;76.34;5.0;976.89;46.438;35.958256;-83.92453;756.75;NaN;;0.0;16.631588;;9 / 17;22007;2022-10-25 20:55:44:462
-8.1365;3.5719;-0.9218;-9.5837;1.0596;1.7891;-4.0248;0.3838;3.8535;-0.7379;-1.3355;0.232;4.0;41.68;25.69;-15.51;14.68;-6.2;79.43;5.0;976.95;46.269;35.958256;-83.92453;756.75;NaN;;0.0;16.631588;;9 / 17;22506;2022-10-25 20:55:44:961
-4.2039;-0.3903;7.3199;-2.8086;2.3333;9.1015;-2.7196;-2.9762;-1.7821;0.8321;-4.1698;0.1151;6.0;33.0;28.99;-22.67;357.09;-8.0;52.64;5.0;976.93;48.793;35.958256;-83.92453;756.75;NaN;;0.0;16.631588;;9 / 17;23006;2022-10-25 20:55:45:461
-8.5253;-0.4573;12.5904;-2.7401;2.083;9.1828;2.8608;1.2421;-3.1711;0.1278;0.9876;-0.7312;14.0;21.98;20.49;-31.35;335.8;-12.26;16.61;5.0;976.94;39.076;35.95825;-83.92453;757.68;NaN;;0.0;32.878777;;8 / 17;23506;2022-10-25 20:55:45:961
-6.3586;0.1723;7.6899;-4.5587;2.1308;8.4172;-0.3365;-1.4486;-1.0864;-1.187;0.0144;0.5583;13.0;33.88;20.18;-24.73;322.77;-10.85;25.04;5.0;976.96;40.768;35.95825;-83.92453;757.68;NaN;;0.0;32.878777;;8 / 17;24007;2022-10-25 20:55:46:462
-3.4044;2.0303;7.4384;-4.056;2.4776;8.5779;0.5798;-0.3194;-1.2947;0.976;-0.4093;-0.2251;7.0;45.04;8.76;-19.43;295.9;-9.16;28.11;5.0;976.95;37.759;35.95825;-83.92453;757.68;NaN;;0.0;32.878777;;8 / 17;24506;2022-10-25 20:55:46:961
-7.101;0.7696;8.0357;-4.4693;1.4116;8.6141;0.7558;0.9776;-0.4927;-0.3215;0.118;1.05;7.0;40.69;-0.04;-23.72;290.84;-13.75;27.68;5.0;976.96;42.158;35.95825;-83.92453;757.68;NaN;;0.0;32.878777;;8 / 17;25006;2022-10-25 20:55:47:461
-1.2209;1.3896;7.8658;-3.2293;0.3965;9.2512;1.8739;1.1975;-1.7256;-0.1029;-0.948;0.7362;5.0;37.56;4.52;-30.11;284.35;-2.32;19.24;5.0;977.0;43.464;35.95825;-83.92453;757.68;NaN;;0.0;32.878777;;7 / 17;25506;2022-10-25 20:55:47:961
-7.2625;-3.1807;9.9356;-5.1565;-0.2764;8.337;0.8246;0.667;-2.1695;-0.667;1.4912;1.3464;4.0;39.96;1.16;-28.59;269.12;1.8;25.58;5.0;977.03;51.719;35.95825;-83.92453;757.68;NaN;;0.0;32.878777;;7 / 17;26006;2022-10-25 20:55:48:461
-6.1875;0.3867;9.3323;-6.065;-0.0277;7.7062;0.8978;1.0504;1.1125;0.0289;-0.379;0.2784;0.0;45.92;-11.92;-20.96;242.36;0.16;38.2;5.0;977.02;43.08;35.95825;-83.92453;757.68;NaN;;0.0;32.878777;;5 / 15;26506;2022-10-25 20:55:48:961
-4.6014;2.0327;8.9228;-4.4804;2.7871;8.2661;0.1011;-1.4048;-1.5512;-0.1522;-0.26;0.7462;0.0;41.03;-22.16;-20.47;248.32;-16.51;28.46;5.0;977.02;42.667;35.95825;-83.92453;757.68;NaN;;0.0;32.878777;;5 / 15;27007;2022-10-25 20:55:49:462
-4.2063;2.2887;9.0162;-3.915;1.8623;8.7963;-0.0998;0.4064;-0.3447;0.1689;-0.0133;-0.2281;1.0;26.96;-25.67;-30.38;214.36;-10.95;23.99;5.0;977.01;39.522;35.95825;-83.92453;757.68;NaN;;0.0;32.878777;;5 / 17;27506;2022-10-25 20:55:49:961
-3.1675;0.8824;6.5922;-4.8215;2.2658;8.2334;1.2016;-1.3571;-2.237;-0.1488;-0.074;0.8514;1.0;33.6;-21.22;-28.78;228.11;-10.59;30.82;5.0;977.01;47.626;35.95825;-83.92453;757.68;NaN;;0.0;32.878777;;5 / 17;28006;2022-10-25 20:55:50:461
-2.5439;2.9913;6.2414;-5.7269;0.993;7.8986;0.723;0.2545;3.0729;2.6231;3.369;-1.8265;0.0;39.98;-23.55;-17.72;227.46;-5.81;35.94;5.0;977.04;39.792;35.95825;-83.92453;757.68;NaN;;0.0;32.878777;;5 / 17;28506;2022-10-25 20:55:50:961
-6.1768;0.6559;1.9439;-9.1455;0.0378;3.5396;-0.7658;-1.2727;1.0712;-0.3733;1.1376;0.2342;0.0;49.78;-17.04;1.97;237.45;-1.59;62.67;5.0;977.07;40.066;35.95825;-83.92453;757.68;NaN;;0.0;32.878777;;5 / 17;29006;2022-10-25 20:55:51:461
-10.3472;-6.1887;1.2473;-8.2057;-0.9445;5.2864;0.5445;2.4749;-1.5603;0.168;0.7192;-0.7075;0.0;47.68;-16.2;6.26;237.86;5.53;57.21;5.0;977.07;46.689;35.95825;-83.92453;757.68;NaN;;0.0;32.878777;;5 / 17;29506;2022-10-25 20:55:51:961
-11.8376;-3.3625;3.3565;-8.7369;-4.4529;0.0975;-1.979;-2.7251;4.5012;1.0081;0.7755;-0.2075;0.0;50.72;-7.35;3.49;183.23;19.35;91.88;5.0;977.14;55.085;35.95825;-83.92453;757.68;NaN;;0.0;32.878777;;5 / 17;30006;2022-10-25 20:55:52:461
-6.3766;-1.6388;-1.3992;-9.7427;-0.9239;-0.6297;3.7955;-0.7066;-0.6591;0.5514;0.0768;1.3004;3.0;51.98;4.82;8.57;234.14;15.88;85.86;5.0;977.14;47.555;35.95825;-83.92453;757.68;NaN;;0.0;32.878777;;5 / 17;30506;2022-10-25 20:55:52:961
-8.1075;-0.0299;6.2007;-8.7461;-2.0838;3.9158;-5.7043;5.3846;-4.9363;2.8993;0.0609;0.6824;0.0;51.11;-5.06;14.81;241.51;8.4;81.8;5.0;977.19;44.973;35.95825;-83.92453;757.68;NaN;;0.0;32.878777;;5 / 17;31006;2022-10-25 20:55:53:461
-8.3518;4.2221;7.0519;-7.269;3.8582;5.3335;0.9124;0.4679;-3.1231;-2.2234;-1.0349;0.5111;0.0;38.49;-20.85;-15.52;249.78;-23.17;53.73;5.0;977.17;45.336;35.95825;-83.92453;757.68;NaN;;0.0;32.878777;;5 / 17;31507;2022-10-25 20:55:53:962
-8.4021;-2.1823;16.6391;-2.8508;2.2916;9.099;-2.343;-1.4777;-3.531;-1.3845;-0.0212;0.6315;2.0;14.19;-21.77;-34.18;207.78;-20.64;16.04;5.0;977.23;45.849;35.95825;-83.92453;757.68;NaN;;0.0;32.878777;;5 / 17;32007;2022-10-25 20:55:54:462
-3.274;-1.5479;6.0212;-5.4605;-1.335;8.0356;1.2698;-1.3719;-3.1222;1.6158;-0.134;1.1097;14.0;20.44;17.34;-44.06;38.33;7.82;34.2;5.0;977.24;50.822;35.95825;-83.92453;757.68;NaN;;0.0;32.878777;;7 / 17;32506;2022-10-25 20:55:54:961
-8.5457;-0.5148;8.9791;-5.1488;0.202;8.3438;-3.2614;-0.851;0.4149;0.936;0.0037;-0.3232;15.0;26.12;14.48;-47.66;9.37;4.18;30.17;5.0;977.19;43.515;35.95825;-83.92453;757.68;NaN;;0.0;32.878777;;7 / 17;33007;2022-10-25 20:55:55:462
-5.4179;-0.7923;7.2314;-5.9635;1.996;7.5249;-1.6017;-2.5842;1.7647;-0.0873;-0.2097;0.0157;9.0;37.8;-29.55;-51.94;171.21;-11.74;38.4;5.0;977.22;39.433;35.95825;-83.92453;757.68;NaN;;0.0;32.878777;;7 / 17;33506;2022-10-25 20:55:55:961
-8.9384;-0.6823;7.5293;-6.0118;0.9142;7.6937;-2.4295;-0.9872;0.1215;-0.2789;0.0081;0.7132;11.0;37.82;-34.09;-50.42;176.62;-5.01;38.77;5.0;977.22;40.266;35.95825;-83.92453;757.68;NaN;;0.0;32.878777;;7 / 17;34006;2022-10-25 20:55:56:461
-4.963;-6.4316;13.9409;-5.9539;1.62;7.6221;-1.6483;-4.7971;-0.5897;-3.4772;-0.8887;2.9011;6.0;26.1;-22.57;-49.99;142.75;-9.51;37.99;5.0;977.22;36.209;35.95825;-83.92453;757.68;NaN;;0.0;32.878777;;7 / 17;34507;2022-10-25 20:55:56:962
-1.8338;0.4789;7.4575;-1.6841;1.3674;9.5637;-1.9308;-0.5212;-2.1704;1.0528;-1.0852;-0.2635;0.0;7.78;5.1;-53.38;64.08;0.34;18.95;5.0;977.2;37.827;35.95825;-83.92453;757.68;NaN;;0.0;32.878777;;7 / 17;35006;2022-10-25 20:55:57:461
-1.0104;0.7277;8.1676;-1.9316;1.0313;9.5591;-1.5853;-0.5417;-0.9922;-0.1633;0.6624;1.0839;0.0;-7.18;-9.51;-53.81;104.45;-6.04;11.42;5.0;977.21;36.0;35.95825;-83.92453;757.68;NaN;;0.0;32.878777;;7 / 17;35506;2022-10-25 20:55:57:961
-4.9834;1.6125;8.9575;-3.5438;-0.023;9.1439;-0.6058;-0.098;2.0619;1.4476;0.3781;-0.7552;0.0;2.64;-4.39;-52.26;87.32;-5.28;18.5;5.0;977.21;42.057;35.95825;-83.92453;757.68;NaN;;0.0;32.878777;;7 / 17;36006;2022-10-25 20:55:58:461
-5.2872;1.768;8.2406;-5.7281;1.5034;7.8166;0.5728;0.9816;-0.2685;0.2023;0.2132;0.0844;0.0;18.02;-11.16;-46.76;113.08;-6.87;34.64;5.0;977.25;43.55;35.95825;-83.92453;757.68;NaN;;0.0;32.878777;;7 / 16;36506;2022-10-25 20:55:58:961
-4.4495;3.0404;5.4778;-5.7562;2.3153;7.5944;0.6803;0.0637;-3.6464;0.197;-0.4775;0.0228;0.0;20.66;-9.54;-42.66;105.58;-10.57;30.68;5.0;977.27;45.043;35.95825;-83.92453;757.68;NaN;;0.0;32.878777;;7 / 16;37006;2022-10-25 20:55:59:461
-3.7552;0.4789;7.9902;-6.8191;0.1317;7.0465;2.363;1.2061;1.0813;0.2578;-0.034;0.9145;1.0;22.93;4.2;-33.21;54.78;-0.77;44.06;5.0;977.31;59.366;35.95825;-83.92453;757.68;NaN;;0.0;32.878777;;7 / 17;37506;2022-10-25 20:55:59:961
-7.503;-0.3377;6.6939;-6.913;0.9994;6.8835;2.7507;0.8112;-0.5783;1.0745;0.7739;-0.1274;1.0;26.49;8.51;-30.9;10.5;-3.72;43.03;5.0;977.33;51.659;35.95825;-83.92453;757.68;NaN;;0.0;32.878777;;7 / 17;38007;2022-10-25 20:56:00:462
-7.5724;-1.9116;9.1932;-6.7059;0.9612;7.0907;3.1992;-1.7485;-1.5485;-1.756;-0.7945;0.6047;2.0;23.79;12.38;-34.5;20.34;-5.63;43.4;5.0;977.34;49.89;35.95825;-83.92453;757.68;NaN;;0.0;32.878777;;6 / 17;38506;2022-10-25 20:56:00:961
-13.0645;-0.3365;6.7717;-6.8745;0.8165;6.9459;-6.4765;-1.9646;2.4522;1.7361;1.8273;0.0576;2.0;19.61;17.83;-36.6;11.62;0.4;33.36;5.0;977.4;47.443;35.95825;-83.92453;757.68;NaN;;0.0;32.878777;;6 / 17;39008;2022-10-25 20:56:01:463
-4.1046;5.3833;2.3761;-5.4995;2.197;7.8166;-0.87;1.6198;1.1477;0.0577;-0.9206;0.1587;3.0;15.94;6.84;-44.02;35.82;-12.95;35.13;5.0;977.4;44.692;35.95825;-83.92453;757.68;NaN;;0.0;32.878777;;6 / 17;39507;2022-10-25 20:56:01:962
-11.2534;-9.0832;6.1576;-5.7138;0.5661;7.95;-2.894;-6.4487;-4.2928;-2.8369;0.7425;1.0002;3.0;2.78;-3.09;-41.19;72.6;-12.32;27.61;5.0;977.44;45.94;35.95825;-83.92453;757.68;NaN;;0.0;32.878777;;6 / 17;40006;2022-10-25 20:56:02:461
-10.4719;-9.0724;3.0081;-7.3465;-5.3291;3.7149;-5.5029;-5.803;3.4413;1.7704;-2.1664;-0.1341;6.0;4.86;24.11;-14.61;38.4;32.92;63.18;5.0;977.45;54.68;35.95825;-83.92453;757.68;NaN;;0.0;32.878777;;5 / 17;40507;2022-10-25 20:56:02:962
-3.7265;1.561;6.9691;-1.3223;2.328;9.4341;-0.0532;-0.3169;-1.0413;0.3036;0.414;0.7765;8.0;-1.72;33.15;-9.17;5.58;-10.12;8.59;5.0;977.41;51.309;35.95825;-83.92453;757.68;NaN;;0.0;32.878777;;5 / 17;41006;2022-10-25 20:56:03:461
-4.8039;-6.859;9.5596;-2.4377;-1.518;9.3768;-0.2727;0.8985;-6.3019;-1.1569;2.5869;0.5292;8.0;24.02;41.78;1.05;330.03;8.9;14.57;5.0;977.39;36.044;35.95825;-83.92453;757.68;NaN;;0.0;32.878777;;5 / 17;41506;2022-10-25 20:56:03:961
-6.3957;-3.5779;3.1161;-5.4796;-3.8771;7.1493;-0.161;0.1415;-4.4091;-0.9251;0.0095;0.8609;6.0;33.66;25.93;32.21;299.0;25.14;36.94;5.0;977.42;47.723;35.95825;-83.92453;757.68;NaN;;0.0;32.878777;;5 / 17;42006;2022-10-25 20:56:04:461
-8.0118;-2.6707;10.6992;-7.8193;-5.1852;2.8536;-3.436;0.1043;3.7864;-1.0465;0.6502;-0.5463;4.0;29.98;3.92;34.74;268.19;27.82;62.71;5.0;977.43;37.61;35.95825;-83.92453;757.68;NaN;;0.0;32.878777;;5 / 17;42506;2022-10-25 20:56:04:961
-5.7577;-2.8143;0.4322;-8.3518;-2.7688;4.3302;-0.2321;-3.1387;-3.8959;-0.8446;0.4665;0.173;1.0;17.68;-6.38;34.39;261.41;24.66;63.39;5.0;977.49;43.456;35.95825;-83.92453;757.68;NaN;;0.0;32.878777;;5 / 17;43006;2022-10-25 20:56:05:461
-8.7517;-1.992;1.7465;-6.9153;-6.6874;-1.9044;-0.1589;5.2489;1.9194;-1.154;0.2107;-0.7718;0.0;6.56;-12.67;26.4;230.96;42.99;105.4;5.0;977.5;47.192;35.95825;-83.92453;757.68;NaN;;0.0;32.878777;;4 / 17;43506;2022-10-25 20:56:05:961
-3.8414;-1.9932;-1.1539;-8.7139;-0.7725;4.4319;-0.4257;-5.5046;-6.7691;-0.7476;-0.8526;1.5956;0.0;7.84;-13.27;18.69;236.64;26.47;77.83;5.0;977.49;50.606;35.95825;-83.92453;757.68;NaN;;0.0;32.878777;;4 / 17;44006;2022-10-25 20:56:06:461
-4.6481;2.6719;5.9172;-4.4221;2.3128;8.442;-0.6395;-0.7906;-3.259;-0.0525;-1.0529;0.9247;0.0;9.21;-17.18;10.54;216.25;-13.64;27.65;5.0;977.44;42.54;35.95825;-83.92453;757.68;NaN;;0.0;32.878777;;5 / 17;44506;2022-10-25 20:56:06:961
-4.9869;-0.4202;4.9786;-6.609;1.4027;7.108;1.251;-1.6498;-1.9343;-0.2474;1.5801;-0.2636;1.0;1.09;-18.41;2.63;187.5;-9.84;30.43;5.0;977.48;39.278;35.95825;-83.92453;757.68;NaN;;0.0;32.878777;;5 / 17;45006;2022-10-25 20:56:07:461
-14.397;-7.8981;2.9626;-8.9334;-4.0425;0.1529;-1.1372;-2.2663;3.4154;-2.3058;-0.6283;-1.2528;0.0;13.88;-7.42;-11.33;138.65;24.34;89.02;5.0;977.49;37.983;35.95825;-83.92453;757.68;NaN;;0.0;32.878777;;4 / 17;45507;2022-10-25 20:56:07:962
-8.7111;-7.1644;1.4773;-8.9619;-3.7918;1.2156;2.2134;-1.0147;1.0181;0.7332;-1.0017;1.0741;1.0;18.71;4.8;-8.08;124.11;30.83;90.09;5.0;977.54;47.468;35.95825;-83.92453;757.68;NaN;;0.0;32.878777;;4 / 17;46006;2022-10-25 20:56:08:461
-10.3519;-2.0674;0.8656;-9.2388;-3.2273;0.632;0.3908;-0.6993;2.3744;1.2407;0.642;0.389;2.0;21.6;4.74;0.36;210.97;19.21;86.09;5.0;977.55;49.205;35.95825;-83.92453;757.68;NaN;;0.0;32.878777;;5 / 17;46507;2022-10-25 20:56:08:962
-8.4703;-1.5407;-0.0778;-9.3425;-2.9769;0.1584;2.5254;0.4534;1.5224;-0.0722;-0.0463;-0.2224;1.0;28.95;6.98;6.96;258.41;17.66;87.76;5.0;977.59;47.518;35.95825;-83.92453;757.68;NaN;;0.0;32.878777;;5 / 17;47007;2022-10-25 20:56:09:462
-8.4512;-0.0359;-0.4729;-8.782;-4.3336;-0.5161;-1.1215;3.0159;-0.2337;0.8065;-0.1283;-0.079;1.0;34.44;8.79;5.4;203.01;26.23;93.36;5.0;977.6;46.349;35.95825;-83.92453;757.68;NaN;;0.0;32.878777;;5 / 17;47506;2022-10-25 20:56:09:961
-11.3695;-11.214;-0.947;-9.0275;-3.7292;0.8756;2.9599;-2.9107;-0.6643;-0.5329;0.4239;-1.705;2.0;32.38;11.61;-2.98;321.38;20.05;84.28;5.0;977.63;48.511;35.95825;-83.92453;757.68;NaN;;0.0;32.878777;;5 / 17;48007;2022-10-25 20:56:10:462
-7.011;-4.2162;-0.8919;-8.9097;-2.9431;2.8506;0.5989;-3.1232;-4.0972;1.1537;0.1006;0.679;4.0;27.3;11.93;-3.39;247.05;26.2;77.85;5.0;977.63;51.136;35.95825;-83.92453;757.68;NaN;;0.0;32.878777;;3 / 17;48507;2022-10-25 20:56:10:962
-4.2497;0.9589;5.6453;-5.7;-3.7004;7.0701;-3.1683;1.602;-1.7555;-0.2761;-0.3508;0.3187;9.0;20.25;7.69;-13.71;274.45;18.0;28.77;5.0;977.68;45.899;35.95825;-83.92453;757.68;NaN;;0.0;32.878777;;3 / 17;49006;2022-10-25 20:56:11:461
-5.0001;-3.0715;7.29;-4.8965;-1.8723;8.2879;-6.2781;-4.6856;4.1877;0.0692;-2.7456;1.899;17.0;5.63;8.89;-35.64;79.93;11.01;30.57;5.0;977.69;51.809;35.95825;-83.92453;757.68;NaN;;0.0;32.878777;;4 / 16;49506;2022-10-25 20:56:11:961
-1.774;-2.3246;4.908;-6.0433;-2.6522;7.2536;-0.5444;-2.3745;-0.3533;-1.6404;-0.8554;1.7259;16.0;-4.12;0.3;-49.99;102.17;12.86;41.33;5.0;977.67;49.076;35.95825;-83.92453;757.68;NaN;;0.0;32.878777;;4 / 16;50007;2022-10-25 20:56:12:462
-4.9128;-2.5367;3.615;-5.6742;-1.8052;7.792;-2.6893;0.4511;-5.1735;-0.223;-0.69;2.3777;9.0;-10.54;32.08;-30.69;44.07;10.61;36.06;5.0;977.62;44.388;35.95825;-83.92453;757.68;NaN;;0.0;32.878777;;3 / 17;50506;2022-10-25 20:56:12:961
-0.7349;-2.187;8.735;-1.0071;-0.6772;9.7313;0.8381;-1.2042;1.9719;-4.3521;-2.9886;0.6282;7.0;0.6;25.71;-27.51;17.59;-16.6;23.52;5.0;977.66;42.874;35.95825;-83.92453;757.68;NaN;;0.0;32.878777;;3 / 17;51006;2022-10-25 20:56:13:461
-1.3621;-0.0754;8.5505;-0.3886;0.7216;9.7723;-1.7146;-1.5445;0.0551;0.4761;0.2251;-0.0666;2.0;19.22;15.6;-23.47;314.41;-4.22;2.28;5.0;977.66;39.745;35.95825;-83.92453;757.68;NaN;;0.0;32.878777;;3 / 17;51506;2022-10-25 20:56:13:961
-1.7297;2.5244;7.8838;-1.1302;1.535;9.6196;-0.2786;0.8109;-0.8973;0.0303;0.1901;0.5611;1.0;32.57;12.23;-25.86;298.88;-9.05;6.39;5.0;977.67;39.717;35.95825;-83.92453;757.68;NaN;;0.0;32.878777;;3 / 17;52006;2022-10-25 20:56:14:461
-1.3561;0.5124;7.0902;-2.3549;0.8754;9.4794;-1.2735;-0.8778;0.514;-0.483;0.686;0.7953;1.0;39.39;3.69;-19.76;281.23;-5.12;13.95;5.0;977.66;35.558;35.95825;-83.92453;757.68;NaN;;0.0;32.878777;;2 / 17;52507;2022-10-25 20:56:14:962
-6.1493;-0.6188;9.2112;-5.1013;-0.5171;8.3594;1.6439;0.0157;2.2103;0.5334;0.3614;-0.2203;1.0;38.66;-0.62;-10.35;265.86;2.22;29.86;5.0;977.69;45.238;35.95825;-83.92453;757.68;NaN;;0.0;32.878777;;2 / 17;53007;2022-10-25 20:56:15:462
-6.652;-1.3107;6.227;-7.5707;-0.1304;6.232;-3.7831;-4.6456;-1.8149;-0.9527;-0.3011;0.7973;1.0;37.69;-1.69;-1.46;264.14;0.76;50.54;5.0;977.72;44.708;35.95825;-83.92453;757.68;NaN;;0.0;32.878777;;2 / 17;53506;2022-10-25 20:56:15:961
-13.0932;-6.0966;-3.2812;-9.6889;0.4214;1.4554;2.6599;-3.6967;-1.7611;-1.7971;0.6519;-1.1265;2.0;41.14;2.23;0.86;273.2;1.33;60.31;5.0;977.71;45.795;35.95825;-83.92453;757.68;NaN;;0.0;32.878777;;2 / 17;54006;2022-10-25 20:56:16:461
-7.1632;0.4454;0.6894;-8.8645;-4.1839;-0.2934;2.2515;3.6783;0.1327;0.4597;0.5641;0.0893;2.0;45.43;19.05;19.91;259.91;26.74;90.96;5.0;977.8;47.826;35.95825;-83.92453;757.68;NaN;;0.0;32.878777;;5 / 16;54506;2022-10-25 20:56:16:961
-12.0517;-5.2322;-1.4318;-9.2808;-3.0567;-0.8326;3.1115;0.8122;-0.9609;-0.8095;-0.352;-0.9387;4.0;47.98;29.03;18.02;302.49;21.13;93.91;5.0;977.84;52.19;35.95825;-83.92453;757.68;NaN;;0.0;32.878777;;5 / 16;55006;2022-10-25 20:56:17:461
-7.2051;-0.274;-1.0128;-9.6061;-1.2113;-1.5577;-1.3029;-3.2569;1.0206;-0.7594;-0.5361;1.4663;4.0;50.04;30.54;8.61;357.94;7.1;99.21;5.0;977.8;52.401;35.95825;-83.92453;757.68;NaN;;0.0;32.878777;;5 / 16;55506;2022-10-25 20:56:17:961
-6.5372;3.4893;2.8442;-9.746;-0.7313;0.8064;-3.764;1.1595;-2.0846;-1.1398;-1.4066;0.1256;3.0;55.74;19.52;4.91;356.34;-4.19;93.53;5.0;977.88;47.618;35.95825;-83.92453;757.68;NaN;;0.0;32.878777;;5 / 16;56006;2022-10-25 20:56:18:461
-2.9171;-3.7481;8.1688;-4.5267;-0.7769;8.6646;0.2129;0.7934;-5.6812;0.3457;0.2094;0.4682;13.0;37.65;30.13;-18.79;317.52;4.54;27.58;5.0;977.87;47.838;35.95825;-83.92453;757.68;NaN;;0.0;32.878777;;6 / 17;56507;2022-10-25 20:56:18:962
-5.1568;-5.1102;7.8514;-6.4955;-3.5227;6.4475;1.8445;1.5247;2.6597;0.1245;-0.5435;-0.0055;17.0;28.26;34.26;-20.79;352.09;19.94;48.56;5.0;977.88;45.283;35.95825;-83.92453;757.68;NaN;;0.0;32.878777;;6 / 17;57007;2022-10-25 20:56:19:462
-5.6393;-2.4694;5.7254;-4.8051;-1.3259;8.4453;-1.9672;-3.4859;1.0125;1.2128;-0.3572;0.5579;11.0;36.43;24.39;-15.75;309.82;7.77;29.64;5.0;977.91;44.723;35.95825;-83.92453;757.68;NaN;;0.0;32.878777;;5 / 17;57506;2022-10-25 20:56:19:961
-5.7099;0.6978;6.9296;-4.8682;0.696;8.4845;-0.719;0.7873;-1.1796;-0.78;1.1325;1.0013;9.0;46.76;6.84;-30.02;291.0;-6.05;23.82;5.0;977.91;37.583;35.95825;-83.92453;757.68;NaN;;0.0;32.878777;;5 / 17;58006;2022-10-25 20:56:20:461
-5.03;-2.4802;6.9739;-6.1549;0.154;7.6331;1.4485;-1.607;-3.0885;-1.0169;0.4219;0.3157;8.0;48.15;-1.16;-25.28;269.42;-0.9;38.88;5.0;977.86;38.593;35.95825;-83.92453;757.68;NaN;;0.0;32.878777;;5 / 17;58506;2022-10-25 20:56:20:961
-9.9512;-1.0116;2.9172;-9.1266;-2.5766;2.4972;0.2648;-1.455;7.2799;-0.9989;0.3831;-0.2723;7.0;47.01;4.28;-16.28;202.84;10.8;68.59;5.0;977.91;43.067;35.95825;-83.92453;757.68;NaN;;0.0;32.878777;;5 / 17;59006;2022-10-25 20:56:21:461
-7.3379;-3.1519;2.7173;-8.1494;-0.1362;5.4534;5.6852;-2.636;0.7789;-0.335;-1.2713;-0.34;2.0;48.79;4.58;-3.34;280.1;0.8;56.21;5.0;977.91;37.976;35.95825;-83.92453;757.68;NaN;;0.0;32.878777;;5 / 17;59506;2022-10-25 20:56:21:961
-2.8202;-0.62;6.609;-6.7399;-3.5922;6.1515;-2.6596;1.5338;7.7723;0.3609;-0.6479;-0.1969;2.0;46.56;1.52;-14.23;245.29;16.27;46.24;5.0;977.93;44.394;35.95825;-83.92453;757.68;NaN;;0.0;32.878777;;5 / 17;60006;2022-10-25 20:56:22:461
-6.312;-3.1017;5.6058;-5.085;-2.1423;8.107;-1.3994;-0.7837;-1.7286;-0.2924;-0.6221;1.1657;0.0;42.66;3.79;-21.67;252.37;15.38;34.18;5.0;977.94;40.447;35.95825;-83.92453;757.68;NaN;;0.0;32.878777;;2 / 17;60506;2022-10-25 20:56:22:961
-8.1051;-4.2401;4.8517;-7.5032;-3.2097;5.4378;0.7171;-3.0035;-1.2498;-1.9077;0.4394;0.0242;0.0;38.1;1.03;-27.88;241.47;15.78;28.96;5.0;977.97;38.492;35.95825;-83.92453;757.68;NaN;;0.0;32.878777;;2 / 17;61006;2022-10-25 20:56:23:461
-13.0729;-5.6512;7.5413;-7.6778;-4.5297;4.0869;-1.8312;-0.2365;2.108;0.6409;-1.4902;-0.0313;2.0;48.77;12.64;-10.12;233.2;27.51;61.97;5.0;977.94;40.529;35.95825;-83.92453;757.68;NaN;;0.0;32.878777;;2 / 17;61508;2022-10-25 20:56:23:963
-6.3849;-2.898;4.9989;-5.932;-1.2852;7.7026;0.4154;-2.2266;-5.5362;-1.0099;0.3762;0.8456;2.0;43.37;9.6;-23.68;276.82;9.7;39.87;5.0;977.94;47.462;35.95825;-83.92453;757.68;NaN;;0.0;32.878777;;2 / 17;62007;2022-10-25 20:56:24:462
-9.2315;-1.1599;3.615;-8.3614;-3.6244;3.6222;-0.0065;1.4025;4.8891;-0.2768;0.7346;-0.9787;2.0;45.11;7.35;-19.29;182.25;21.69;66.58;5.0;977.97;42.541;35.95825;-83.92453;757.68;NaN;;0.0;32.878777;;1 / 17;62506;2022-10-25 20:56:24:961
-7.3343;-2.3844;0.5818;-8.7946;-3.9474;1.8009;1.1546;1.5048;-1.6626;0.4739;0.628;-0.1689;4.0;51.32;8.51;-7.46;221.39;20.75;72.75;5.0;977.98;48.824;35.95825;-83.92453;757.68;NaN;;0.0;32.878777;;1 / 17;63007;2022-10-25 20:56:25:462
-7.0232;1.4174;3.2524;-8.9685;-3.9652;-0.1139;-0.1429;2.1363;0.2991;1.1478;0.676;0.5143;5.0;56.25;10.58;5.04;198.79;23.85;90.73;5.0;978.0;43.283;35.95825;-83.92453;757.68;NaN;;0.0;32.878777;;1 / 17;63507;2022-10-25 20:56:25:962
-13.5039;-7.7055;-0.449;-8.9574;-3.9756;0.3621;-1.1319;-1.9604;0.1601;-0.2757;0.0529;-0.9805;5.0;55.5;14.94;7.16;257.44;17.44;86.5;5.0;978.03;52.208;35.95825;-83.92453;757.68;NaN;;0.0;32.878777;;1 / 17;64007;2022-10-25 20:56:26:462
-4.04;-6.2366;0.8919;-8.2494;-5.2362;-0.8367;-5.6656;-4.9685;-1.5064;-0.0463;-1.0112;0.3901;2.0;42.96;30.71;7.24;318.73;32.27;95.79;5.0;978.05;55.267;35.95825;-83.92453;757.68;NaN;;0.0;32.878777;;2 / 17;64507;2022-10-25 20:56:26:962
-6.7609;-9.6482;0.2094;-8.5578;-4.726;0.7739;2.176;4.5925;1.6681;-0.2317;-0.2813;0.0873;2.0;45.43;31.89;2.64;311.1;29.49;85.18;5.0;978.06;49.188;35.95825;-83.92453;757.68;NaN;;0.0;32.878777;;2 / 17;65006;2022-10-25 20:56:27:461
-8.3626;-2.8047;-1.7201;-7.9616;-5.7179;-0.2988;1.2411;-4.3652;-0.3694;0.398;-0.6927;-0.4558;0.0;42.36;17.19;1.41;176.91;35.67;92.15;5.0;978.12;49.82;35.95825;-83.92453;757.68;NaN;;0.0;32.878777;;2 / 17;65506;2022-10-25 20:56:27:961
-5.4;-3.5695;-1.5873;-8.5389;-4.4518;1.8544;-1.0534;-4.8514;-3.6979;0.4858;-0.3575;2.1806;0.0;36.9;7.33;0.39;184.5;42.55;87.58;5.0;978.18;50.397;35.95825;-83.92453;757.68;NaN;;0.0;32.878777;;2 / 17;66006;2022-10-25 20:56:28:461
-12.8922;-9.9715;2.983;-6.305;-6.7323;-3.3307;-5.7029;-5.0646;4.3014;-3.9555;0.8035;-3.1879;0.0;34.05;-2.21;-11.34;148.09;27.62;89.87;5.0;978.13;45.409;35.95825;-83.92453;757.68;NaN;;0.0;32.878777;;3 / 17;66506;2022-10-25 20:56:28:961
-7.2182;-8.7972;-2.904;-7.9183;-5.5986;1.458;-7.5765;-9.0822;-2.6707;3.6148;-1.8396;2.3198;0.0;21.86;22.88;-1.24;69.95;43.23;126.81;5.0;978.11;48.176;35.95825;-83.92453;757.68;NaN;;0.0;32.878777;;3 / 17;67006;2022-10-25 20:56:29:461
-5.0121;1.008;6.2821;-6.648;0.4172;7.1973;-0.5187;-0.0268;-3.5562;-1.4375;0.0959;0.9808;7.0;25.11;-3.32;-34.67;102.38;-2.44;42.73;5.0;978.14;46.77;35.95825;-83.92453;757.68;NaN;;0.0;32.878777;;3 / 17;67507;2022-10-25 20:56:29:962
0.8596;0.3915;10.7949;0.922;1.646;9.6235;-1.6897;-2.8871;1.7293;0.3382;0.013;0.3111;8.0;2.14;1.44;-37.63;309.51;-3.32;-2.82;5.0;978.1;38.238;35.95825;-83.92453;757.68;NaN;;0.0;32.878777;;3 / 17;68007;2022-10-25 20:56:30:462
-1.8697;1.2006;7.4492;0.1037;1.7442;9.6497;0.2113;-1.7109;-0.0132;1.4178;0.5559;1.0043;6.0;1.82;1.26;-36.92;342.41;-10.25;-0.62;5.0;978.13;36.167;35.95825;-83.92453;757.68;NaN;;0.0;32.878777;;3 / 17;68507;2022-10-25 20:56:30:962
-3.2237;-0.1496;6.8339;-0.6428;1.6197;9.6506;-1.1335;-0.7629;-1.2068;0.4157;0.5378;-0.2621;1.0;11.18;2.21;-34.31;300.16;-7.5;-0.07;5.0;978.11;33.871;35.95825;-83.92453;757.68;NaN;;0.0;32.878777;;3 / 17;69006;2022-10-25 20:56:31:461
0.4848;-0.5554;7.7019;0.043;0.5612;9.7905;0.5459;-0.8391;-1.7484;-1.0497;0.3494;0.0237;1.0;13.61;-3.75;-26.92;260.15;-3.28;-0.25;5.0;978.11;34.543;35.95825;-83.92453;757.68;NaN;;0.0;32.878777;;3 / 17;69506;2022-10-25 20:56:31:961
-2.8537;-1.4725;7.587;-0.2747;0.6804;9.7792;-2.4564;-2.7589;-0.1089;0.7723;0.3784;-0.367;1.0;9.26;-6.39;-21.19;233.58;1.41;0.46;5.0;978.17;45.075;35.95825;-83.92453;757.68;NaN;;0.0;32.878777;;3 / 17;70007;2022-10-25 20:56:32:462
-3.1663;0.4418;15.5785;-3.0755;1.9775;9.0995;0.6134;-2.3754;-1.9471;0.9154;0.6315;-0.7705;1.0;3.23;-6.58;-15.38;152.69;-11.63;18.67;5.0;978.18;43.618;35.95825;-83.92453;757.68;NaN;;0.0;32.878777;;3 / 17;70507;2022-10-25 20:56:32:962
-5.4802;1.8637;2.7652;-5.9497;1.7878;7.5878;1.2612;-1.6138;0.4808;1.0393;-0.1162;0.1027;1.0;6.45;-0.21;-16.59;73.88;-6.63;41.23;5.0;978.19;52.843;35.95825;-83.92453;757.68;NaN;;0.0;32.878777;;3 / 17;71007;2022-10-25 20:56:33:462
-7.2374;-1.8876;7.6696;-6.0405;1.8664;7.4966;1.8247;1.9472;-0.7612;-0.8086;-0.0841;-0.5159;1.0;10.5;6.77;-19.37;16.96;-10.97;38.86;5.0;978.21;52.741;35.95825;-83.92453;757.68;NaN;;0.0;32.878777;;4 / 17;71506;2022-10-25 20:56:33:961
-6.2689;-3.0404;19.8458;-6.1999;2.3445;7.2274;2.0533;-1.7935;-2.3324;-0.005;-1.005;-0.7503;2.0;11.61;14.44;-19.56;14.69;-9.74;42.42;5.0;978.29;48.829;35.95825;-83.92453;757.68;NaN;;0.0;32.878777;;4 / 17;72006;2022-10-25 20:56:34:461
-6.3921;2.199;14.3779;-6.7884;-0.1903;7.0747;-7.4565;1.5553;4.9713;-1.0514;-0.8029;0.4132;3.0;14.23;22.11;-21.92;9.31;-5.61;41.3;5.0;978.28;48.498;35.95825;-83.92453;757.68;NaN;;0.0;32.878777;;2 / 17;72506;2022-10-25 20:56:34:961
-3.2776;4.2377;7.7581;-5.8459;1.6879;7.6907;2.2892;1.871;1.7072;1.6066;-0.8201;-1.9206;3.0;10.24;22.52;-29.42;19.1;-17.41;39.21;5.0;978.31;49.487;35.95825;-83.92453;757.68;NaN;;0.0;32.878777;;2 / 17;73007;2022-10-25 20:56:35:462
-8.4177;1.2963;5.1126;-7.5886;1.9588;5.8946;-2.1805;-0.0369;-1.1043;-1.1819;-0.1203;1.8606;3.0;2.4;3.06;-37.89;74.63;-11.52;52.16;5.0;978.36;48.525;35.95825;-83.92453;757.68;NaN;;0.0;32.878777;;2 / 17;73506;2022-10-25 20:56:35:961
-3.3613;4.319;9.2148;-3.4085;3.9828;8.2879;-6.3461;-1.0236;7.5905;0.3105;-0.1771;1.2541;4.0;3.94;6.19;-37.8;33.16;-26.82;27.47;5.0;978.35;48.839;35.95825;-83.92453;757.68;NaN;;0.0;32.878777;;2 / 17;74006;2022-10-25 20:56:36:461
0.9733;1.5227;10.497;-0.9135;3.1337;9.2475;-0.7551;-1.1872;-1.0686;-0.3657;0.9221;1.6422;11.0;26.55;7.65;-32.64;308.69;-18.64;5.64;5.0;978.36;42.4;35.95825;-83.92453;757.68;NaN;;0.0;32.878777;;2 / 16;74506;2022-10-25 20:56:36:961
-1.6208;2.758;8.0237;-0.4766;4.0011;8.9406;-1.2291;-1.2721;-0.9831;0.2734;-0.2272;0.1565;8.0;28.65;-5.21;-27.38;281.5;-21.08;3.1;5.0;978.36;39.576;35.95825;-83.92453;757.68;NaN;;0.0;32.878777;;2 / 16;75006;2022-10-25 20:56:37:461
-0.8764;2.5546;9.8303;-0.1983;3.7845;9.0448;-1.7924;-1.8274;3.9603;0.2217;0.3583;0.6686;11.0;26.29;-16.35;-26.72;273.96;-30.51;2.75;5.0;978.36;37.824;35.95825;-83.92453;757.68;NaN;;0.0;32.878777;;2 / 17;75506;2022-10-25 20:56:37:961
-3.1998;3.3278;9.8207;-2.403;4.3162;8.4715;0.3407;-0.8033;0.2141;0.1985;-0.1117;0.1755;20.0;26.81;-15.49;-29.34;272.59;-24.32;15.59;5.0;978.37;35.692;35.95825;-83.92453;757.68;NaN;;0.0;32.878777;;2 / 17;76006;2022-10-25 20:56:38:461
-1.7106;3.2608;5.916;-1.6838;4.0563;8.7682;-1.713;-1.0091;0.373;-0.6783;0.701;1.257;18.0;30.94;-9.13;-33.19;287.48;-24.43;10.87;5.0;978.38;57.298;35.95825;-83.92453;757.68;NaN;;0.0;32.878777;;2 / 17;76506;2022-10-25 20:56:38:961
-0.6775;1.3633;11.9596;-1.7025;2.0857;9.4298;-0.2586;-1.1088;0.3979;0.3267;-0.101;-0.0692;1.0;41.34;4.07;-30.09;288.26;-11.54;11.04;5.0;978.37;35.234;35.95825;-83.92453;757.68;NaN;;0.0;32.878777;;2 / 17;77006;2022-10-25 20:56:39:461
-1.488;2.9949;8.2322;-2.3954;2.5738;9.1547;-0.084;-1.0866;-0.9638;0.6793;0.4096;0.4603;1.0;54.21;8.91;-24.06;291.69;-15.22;14.66;5.0;978.38;39.478;35.95825;-83.92453;757.68;NaN;;0.0;32.878777;;2 / 17;77507;2022-10-25 20:56:39:962
-2.0997;3.3553;7.1453;-1.8412;3.8533;8.8279;-1.2242;-0.8853;-1.565;0.5531;-0.523;0.4869;1.0;57.88;1.43;-21.28;284.14;-24.67;9.47;5.0;978.34;38.398;35.95825;-83.92453;757.68;NaN;;0.0;32.878777;;2 / 17;78006;2022-10-25 20:56:40:461
-1.4414;3.5719;6.9619;-1.3266;4.1894;8.767;0.9324;-0.0389;-1.8088;-0.1282;0.1875;-0.1173;1.0;57.94;-2.55;-21.09;279.31;-23.9;7.98;5.0;978.4;44.935;35.95833;-83.924416;751.86;NaN;;0.0;682.0786;;2 / 17;78507;2022-10-25 20:56:40:962
-0.6966;3.396;9.9308;-0.8882;4.0315;8.8954;-0.6654;-0.3168;-2.7933;0.5319;0.3166;-0.2555;1.0;54.69;-8.87;-20.4;272.4;-26.27;3.5;5.0;978.43;42.305;35.95833;-83.924416;751.86;NaN;;0.0;682.0786;;2 / 17;79007;2022-10-25 20:56:41:462
0.9817;3.6257;8.1688;-0.0076;3.8137;9.0347;-0.0493;-0.8018;-1.3365;0.2502;-0.4653;0.6164;1.0;42.98;-9.6;-24.02;270.18;-22.89;0.05;5.0;978.41;43.27;35.95833;-83.924416;751.86;NaN;;0.0;682.0786;;2 / 17;79506;2022-10-25 20:56:41:961
-0.8501;0.4406;9.4854;0.0151;2.1298;9.5726;-0.2762;0.1928;0.4141;-0.0368;-0.3561;0.2658;1.0;30.08;-8.85;-22.86;262.79;-12.54;-0.09;5.0;978.49;45.438;35.95833;-83.924416;751.86;NaN;;0.0;682.0786;;2 / 17;80006;2022-10-25 20:56:42:461
-0.012;0.7959;8.4631;-0.3528;1.1908;9.7277;0.3494;-1.2818;-0.1438;0.9011;0.1687;0.4674;0.0;29.96;5.83;-13.74;284.8;-6.97;2.08;5.0;978.49;45.569;35.95833;-83.924416;751.86;NaN;;0.0;682.0786;;0 / 17;80506;2022-10-25 20:56:42:961
-0.6571;-2.563;17.4757;-0.0954;0.2012;9.8041;1.2559;-1.9844;7.7735;-1.6621;-0.2761;-1.3948;0.0;34.33;15.9;-15.06;299.18;-12.27;0.59;5.0;978.61;50.199;35.95833;-83.924416;751.86;NaN;;0.0;682.0786;;0 / 17;81006;2022-10-25 20:56:43:461
1.3394;3.3075;7.1512;-0.5262;1.3758;9.6954;0.2978;-2.5474;0.9271;1.2717;-0.7074;0.4541;0.0;44.59;30.43;-7.86;305.01;-8.06;3.11;5.0;978.54;46.282;35.95833;-83.924416;751.86;NaN;;0.0;682.0786;;0 / 17;81506;2022-10-25 20:56:43:961
-3.0392;3.6437;10.6095;-0.9925;2.0804;9.5319;-1.9236;0.4864;-0.7326;0.5456;-0.9282;0.9177;1.0;51.96;31.18;-2.68;303.22;-12.59;10.98;5.0;978.54;45.245;35.95833;-83.924416;751.86;NaN;;0.0;682.0786;;0 / 17;82006;2022-10-25 20:56:44:461
1.3454;3.1472;10.3316;-0.1592;3.6514;9.1001;-1.4165;-1.0773;-1.1424;0.6786;0.6713;1.2877;2.0;45.13;7.71;9.98;275.05;-21.86;1.0;5.0;978.58;48.307;35.95833;-83.924416;751.86;NaN;;0.0;682.0786;;0 / 17;82507;2022-10-25 20:56:44:962
-1.9008;4.1177;10.3005;0.3762;4.0498;8.9234;-2.0587;-0.5027;0.9277;0.5761;0.7284;1.3601;3.0;18.0;-3.77;1.07;255.89;-20.4;-3.68;5.0;978.57;45.701;35.95833;-83.924416;751.86;NaN;;0.0;682.0786;;0 / 17;83007;2022-10-25 20:56:45:462
0.146;4.1584;8.5983;0.4534;4.2248;8.8383;-1.3402;-0.7764;-0.2793;0.2501;-0.0134;0.5232;8.0;13.88;6.96;-16.95;313.21;-25.6;-2.55;5.0;978.72;46.302;35.95843;-83.924385;752.94;NaN;;2.09;810.0201;98.2;0 / 17;83506;2022-10-25 20:56:45:961
0.9793;4.0173;9.373;1.2563;3.8559;8.9288;-0.0384;0.2596;-0.4777;0.5543;0.5885;0.8534;7.0;24.38;-1.63;-22.41;290.73;-23.44;-5.97;5.0;978.59;34.658;35.95843;-83.924385;752.94;NaN;;2.09;810.0201;98.2;0 / 17;84007;2022-10-25 20:56:46:462
0.3939;3.8868;8.123;1.468;3.8969;8.8786;-1.1328;-0.125;-0.7623;0.1381;0.1574;0.6202;4.0;19.73;-18.56;-18.73;243.62;-23.27;-8.65;5.0;978.57;35.619;35.958252;-83.92453;779.65;NaN;;0.0;863.71844;;2 / 16;84507;2022-10-25 20:56:46:962
2.2828;3.0993;9.2797;1.5167;2.9156;9.2396;-0.6422;-0.5999;-0.9388;-0.1132;0.3511;0.6304;4.0;2.78;-34.54;-17.72;193.01;-20.28;-10.44;5.0;978.56;35.257;35.958252;-83.92453;779.65;NaN;;0.0;863.71844;;2 / 16;85007;2022-10-25 20:56:47:462
0.4238;2.004;9.1167;1.2297;3.1429;9.2076;-0.1698;-1.0798;0.7224;0.3735;0.3632;0.5794;8.0;-14.42;-46.03;-21.75;163.06;-18.69;-7.61;5.0;978.56;34.692;35.958252;-83.92453;779.65;NaN;;0.0;863.71844;;2 / 17;85506;2022-10-25 20:56:47:961
0.3664;3.5731;7.8562;1.1168;3.9381;8.9115;-0.8281;-1.5163;1.5564;0.0223;-0.2372;0.4762;8.0;-18.69;-42.68;-22.48;151.49;-23.68;-7.14;5.0;978.54;37.047;35.958252;-83.92453;779.65;NaN;;0.0;863.71844;;2 / 17;86006;2022-10-25 20:56:48:461
2.1523;3.0607;8.7171;2.4742;3.2063;8.9313;0.7456;-1.6312;2.5344;0.2213;0.7339;0.347;2.0;-19.37;-34.89;-28.26;154.38;-19.08;-15.48;5.0;978.58;53.462;35.958252;-83.92453;779.65;NaN;;0.0;863.71844;;0 / 17;86506;2022-10-25 20:56:48:961
1.3932;1.3729;12.3751;0.9377;3.2244;9.2138;0.3218;-0.6433;1.4025;-0.5216;0.8153;0.6172;2.0;-17.83;-35.31;-33.84;147.05;-20.77;-8.34;5.0;978.6;33.724;35.958252;-83.92453;779.65;NaN;;0.0;863.71844;;0 / 17;87006;2022-10-25 20:56:49:461
0.9003;2.333;10.1198;0.3867;2.6154;9.4435;-0.3797;-0.539;-0.654;0.0329;0.8808;0.504;1.0;-19.61;-27.22;-44.36;127.75;-15.47;-2.34;5.0;978.58;32.341;35.958252;-83.92453;779.65;NaN;;0.0;863.71844;;0 / 17;87507;2022-10-25 20:56:49:962
0.6057;2.1093;4.847;-1.0789;2.7282;9.3575;-1.1018;-0.3886;-1.163;0.2708;0.3498;0.7151;1.0;-9.17;-19.63;-50.76;111.01;-16.13;5.61;5.0;978.57;42.765;35.958252;-83.92453;779.65;NaN;;0.0;863.71844;;0 / 17;88006;2022-10-25 20:56:50:461
-3.6006;2.4945;7.046;-2.6611;1.6574;9.292;1.0252;0.4025;0.4596;0.3344;0.5093;0.7008;1.0;8.19;-4.44;-50.44;53.15;-9.73;15.98;5.0;978.61;47.582;35.958252;-83.92453;779.65;NaN;;0.0;863.71844;;0 / 17;88507;2022-10-25 20:56:50:962
-4.1285;1.4498;5.1425;-4.7684;2.765;8.1109;0.532;1.9502;-3.3333;-0.2331;-0.5547;0.1662;1.0;26.1;3.75;-45.84;353.41;-14.32;27.36;5.0;978.67;45.216;35.958252;-83.92453;779.65;NaN;;0.0;863.71844;;0 / 17;89007;2022-10-25 20:56:51:462
-5.0037;1.4246;11.1829;-6.272;1.9604;7.2794;-0.4549;0.9409;1.7596;-0.6288;-0.5;0.2145;3.0;35.91;8.42;-35.46;346.06;-11.53;40.75;5.0;978.66;48.038;35.958252;-83.92453;779.65;NaN;;0.0;863.71844;;0 / 17;89506;2022-10-25 20:56:51:961
0.4095;0.3006;6.1696;1.3133;2.9714;9.2529;0.5816;-3.1976;-1.1774;-5.0737;6.4199;0.7472;3.0;20.59;9.9;-31.8;309.57;-14.23;-0.37;5.0;978.72;44.547;35.958252;-83.92453;779.65;NaN;;0.0;863.71844;;0 / 17;90006;2022-10-25 20:56:52:461
-8.7601;1.7548;8.7446;-7.3029;-1.2558;6.4235;-2.4055;-0.0817;3.4229;-0.3234;-0.5989;-0.8744;13.0;28.63;21.51;-11.34;324.82;2.59;41.11;5.0;978.74;49.525;35.958252;-83.92453;779.65;NaN;;0.0;863.71844;;0 / 17;90507;2022-10-25 20:56:52:962
-9.0604;1.6496;8.6533;-5.8309;2.903;7.331;-6.8143;-2.0228;2.7505;-0.6092;-0.3063;0.8565;27.0;40.07;25.09;-6.45;322.91;-11.99;45.69;5.0;978.74;47.795;35.958252;-83.92453;779.65;NaN;;0.0;863.71844;;0 / 17;91006;2022-10-25 20:56:53:461
-1.3753;0.9829;6.3347;-2.4078;2.9081;9.0507;-0.1395;-1.619;-3.9358;-0.9793;-1.7918;1.8788;24.0;44.19;22.65;-21.81;310.62;-17.25;14.9;5.0;978.75;48.967;35.958252;-83.92453;779.65;NaN;;0.0;863.71844;;0 / 17;91506;2022-10-25 20:56:53:961
-1.579;3.3769;7.7043;-0.3166;3.45;9.1743;-1.8137;-0.5676;3.7096;0.1545;0.0796;0.4171;7.0;42.04;13.28;-33.49;300.74;-20.6;1.98;5.0;978.74;38.93;35.958252;-83.92453;779.65;NaN;;0.0;863.71844;;0 / 17;92006;2022-10-25 20:56:54:461
1.3705;2.065;6.5563;0.4098;3.4139;9.1841;-3.0519;-1.0219;-0.5767;-0.2085;-0.1472;2.5662;8.0;55.52;-0.69;-35.62;280.55;-20.37;-2.55;5.0;978.74;44.481;35.958252;-83.92453;779.65;NaN;;0.0;863.71844;;0 / 17;92507;2022-10-25 20:56:54:962
-3.3015;1.8458;11.5696;-1.2675;2.9752;9.2581;-0.9716;-0.2687;1.7535;0.3057;-0.0204;0.1611;20.0;47.72;-26.23;-31.22;252.66;-17.63;6.84;5.0;978.74;36.734;35.958252;-83.92453;779.65;NaN;;0.0;863.71844;;0 / 17;93006;2022-10-25 20:56:55:461
-2.0518;-1.3633;12.0844;-2.2152;0.2642;9.5495;-1.4369;-0.4579;2.1326;0.8216;-1.0577;-0.2325;20.0;45.19;-28.84;-27.51;237.39;-8.3;12.17;5.0;978.73;36.043;35.958252;-83.92453;779.65;NaN;;0.0;863.71844;;0 / 17;93507;2022-10-25 20:56:55:962
-1.8194;-1.7596;14.5478;-0.3958;1.7418;9.6426;-0.0919;-0.2724;-0.0396;0.1859;-0.1945;-0.4154;2.0;45.92;-30.77;-25.67;239.42;-8.91;3.65;5.0;978.75;35.191;35.958252;-83.92453;779.65;NaN;;0.0;863.71844;;0 / 17;94006;2022-10-25 20:56:56:461
-0.6476;2.0004;10.3675;-0.8302;1.7569;9.6122;0.221;-0.7132;-0.9632;0.3291;0.1904;0.236;2.0;48.96;-45.52;-18.71;228.94;-10.32;4.94;5.0;978.73;35.712;35.958252;-83.92453;779.65;NaN;;0.0;863.71844;;0 / 17;94506;2022-10-25 20:56:56:961
-1.0427;2.0566;9.9847;-0.198;2.6278;9.4459;-0.6027;-0.5245;1.0274;0.0031;-0.1672;0.3583;1.0;45.84;-50.7;-14.68;225.22;-14.83;2.61;5.0;978.73;41.688;35.958252;-83.92453;779.65;NaN;;0.0;863.71844;;0 / 17;95006;2022-10-25 20:56:57:461
-5.7362;0.6858;14.0557;-0.3435;3.356;9.2081;-0.0815;-0.8295;-2.2116;-0.4642;1.464;0.8951;0.0;42.58;-49.57;-9.04;224.52;-20.01;2.14;5.0;978.77;39.77;35.958252;-83.92453;779.65;NaN;;0.0;863.71844;;0 / 17;95506;2022-10-25 20:56:57:961
-6.093;0.2477;14.8205;-3.3254;3.1021;8.6884;2.3581;-0.8189;2.6926;0.968;-0.9485;-0.787;0.0;35.19;-47.38;-5.02;218.97;-18.44;14.93;5.0;978.83;43.09;35.958252;-83.92453;779.65;NaN;;0.0;863.71844;;0 / 17;96006;2022-10-25 20:56:58:461
-1.8218;0.7612;8.3172;-0.6577;1.5652;9.6586;0.4952;0.4269;1.9678;-0.0917;-0.657;0.6869;0.0;16.99;-39.41;-16.67;203.98;-12.23;5.79;5.0;978.85;44.267;35.958252;-83.92453;779.65;NaN;;0.0;863.71844;;0 / 16;96507;2022-10-25 20:56:58:962
1.0582;1.4605;9.0365;0.3811;2.2246;9.5434;0.5584;1.3311;-3.2412;0.128;-0.4897;-3.0E-4;1.0;-7.13;-30.79;-24.02;183.62;-7.61;-9.48;5.0;978.87;48.811;35.958252;-83.92453;779.65;NaN;;0.0;863.71844;;0 / 16;97007;2022-10-25 20:56:59:462
-0.4382;1.258;8.2585;-0.855;2.9799;9.3037;-0.3155;-0.3101;-2.307;0.521;0.5847;1.1005;1.0;-4.54;-28.69;-29.61;160.08;-14.85;3.29;5.0;978.86;47.121;35.958252;-83.92453;779.65;NaN;;0.0;863.71844;;0 / 17;97507;2022-10-25 20:56:59:962
-3.4211;-1.6196;8.3782;-1.786;-1.4711;9.5298;1.1645;0.6898;0.7739;0.95;-0.6451;-0.3385;1.0;1.65;-14.81;-38.16;166.2;8.63;10.61;5.0;978.9;43.298;35.958252;-83.92453;779.65;NaN;;0.0;863.71844;;0 / 17;98006;2022-10-25 20:57:00:461
1.4139;-0.4813;5.1126;-2.3831;2.5115;9.1752;1.0932;-3.9194;-3.2291;1.6003;0.4478;0.8474;3.0;11.93;-4.87;-41.93;350.56;-14.84;14.56;5.0;978.87;45.539;35.958252;-83.92453;779.65;NaN;;0.0;863.71844;;0 / 17;98506;2022-10-25 20:57:00:961
0.3377;3.9467;9.8339;-0.5115;3.786;9.0319;0.379;-0.2284;0.802;0.7661;-0.3873;0.6252;7.0;11.83;-10.18;-41.96;292.4;-16.31;7.81;5.0;978.95;42.884;35.958252;-83.92453;779.65;NaN;;0.0;863.71844;;0 / 17;99006;2022-10-25 20:57:01:461
-2.6492;1.6819;10.1928;-0.2781;3.2368;9.2529;-2.7822;-0.2108;0.3063;-0.2954;-0.1054;1.3862;10.0;5.53;-21.96;-41.81;214.65;-19.27;1.72;5.0;978.89;55.519;35.958252;-83.92453;779.65;NaN;;0.0;863.71844;;0 / 17;99506;2022-10-25 20:57:01:961
-0.8548;1.8733;9.3;0.4145;2.6666;9.428;0.1691;-1.2709;1.917;0.0213;0.2766;0.3436;8.0;-3.96;-26.29;-40.97;194.81;-19.62;-4.78;5.0;978.93;45.06;35.958252;-83.92453;779.65;NaN;;0.0;863.71844;;0 / 17;100006;2022-10-25 20:57:02:461
-3.1244;-1.4593;13.3627;-0.7318;1.1674;9.7094;-2.0666;-0.0047;-1.4263;-0.5034;-0.0564;1.48;4.0;-11.51;-26.74;-36.84;146.79;-6.84;4.31;5.0;978.92;41.355;35.958252;-83.92453;779.65;NaN;;0.0;863.71844;;0 / 17;100506;2022-10-25 20:57:02:961
-4.7593;2.016;3.2489;-2.941;1.5132;9.2321;-2.2971;-3.0394;5.2284;2.0787;2.645;0.6684;8.0;-25.91;-14.08;-37.26;117.43;0.75;2.96;5.0;978.93;37.431;35.958252;-83.92453;779.65;NaN;;0.0;863.71844;;0 / 17;101006;2022-10-25 20:57:03:461
-1.2006;1.4402;10.1486;-0.7438;2.5818;9.4314;-1.2478;-2.0258;0.8982;0.5153;0.0397;0.5945;12.0;-39.94;-21.94;-38.08;105.74;-15.26;4.51;5.0;978.93;37.271;35.958252;-83.92453;779.65;NaN;;0.0;863.71844;;0 / 17;101506;2022-10-25 20:57:03:961
-2.2804;2.5905;9.8913;-1.2394;3.0352;9.2424;-1.0664;1.5189;-1.0458;0.129;-0.4965;-0.6329;5.0;-46.63;-17.01;-26.68;100.69;-16.59;1.89;5.0;978.91;45.237;35.958252;-83.92453;779.65;NaN;;0.0;863.71844;;0 / 17;102007;2022-10-25 20:57:04:462
-1.4378;2.1751;9.1968;-1.266;2.7195;9.3366;-0.7555;-0.4273;-0.8277;-0.6062;-0.3916;0.8317;2.0;-46.35;-23.89;-25.89;108.97;-18.67;10.17;5.0;978.93;48.557;35.958252;-83.92453;779.65;NaN;;0.0;863.71844;;0 / 17;102506;2022-10-25 20:57:04:961
-2.9985;2.5702;9.4113;-0.8734;2.5218;9.4365;-0.0112;-0.6255;-0.1277;-0.3683;0.2225;-0.0686;2.0;-52.8;-14.14;-25.56;98.19;-13.88;1.74;5.0;978.95;46.96;35.958252;-83.92453;779.65;NaN;;0.0;863.71844;;0 / 17;103007;2022-10-25 20:57:05:462
1.6208;1.8242;8.1326;-0.7005;1.8727;9.6007;-0.51;-0.9864;3.3263;-0.5645;-1.0303;0.2876;1.0;-56.4;-9.9;-27.96;94.73;-13.49;7.21;5.0;979.11;45.745;35.958252;-83.92453;779.65;NaN;;0.0;863.71844;;0 / 16;103506;2022-10-25 20:57:05:961
1.0211;2.0997;8.3877;-0.0941;2.1356;9.5708;-1.055;-0.3015;3.1241;0.0031;-0.336;-0.7303;1.0;-57.99;-3.13;-22.54;88.08;-12.58;0.56;5.0;978.99;47.646;35.958252;-83.92453;779.65;NaN;;0.0;863.71844;;0 / 16;104006;2022-10-25 20:57:06:461
-1.5407;1.0678;9.4962;-1.6077;1.4014;9.5719;0.0372;0.8959;-3.329;0.7508;0.1549;0.3974;1.0;-47.32;9.83;-29.4;75.88;-8.22;9.53;5.0;979.0;47.684;35.958252;-83.92453;779.65;NaN;;0.0;863.71844;;0 / 17;104507;2022-10-25 20:57:06:962
-1.6496;1.5802;11.0321;0.1176;2.3218;9.5271;-1.1135;-0.7375;2.175;0.5104;-0.3116;0.3712;1.0;-33.36;21.92;-35.06;50.0;-11.78;1.58;5.0;979.06;46.211;35.958252;-83.92453;779.65;NaN;;0.0;863.71844;;0 / 17;105007;2022-10-25 20:57:07:462
-0.0215;1.8194;11.7203;-0.0165;2.2855;9.5366;-0.1578;-0.6362;0.5935;-0.2109;0.0121;0.1864;1.0;-8.62;32.55;-35.19;12.69;-13.48;0.1;5.0;979.07;46.879;35.958252;-83.92453;779.65;NaN;;0.0;863.71844;;0 / 17;105506;2022-10-25 20:57:07:961
0.3018;1.908;8.9874;0.9505;1.8524;9.5831;0.1505;-0.6914;0.7423;-0.0747;0.2935;-0.2524;2.0;0.15;32.06;-31.22;354.17;-12.2;-7.15;5.0;979.07;46.11;35.958252;-83.92453;779.65;NaN;;0.0;863.71844;;0 / 17;106006;2022-10-25 20:57:08:461
-0.2827;2.6719;12.4134;1.6375;3.4929;9.016;-0.4827;0.4709;-2.6076;0.4762;0.256;0.4382;2.0;-5.42;17.89;-20.49;3.19;-20.87;-10.29;5.0;979.11;44.654;35.958252;-83.92453;779.65;NaN;;0.0;863.71844;;0 / 17;106507;2022-10-25 20:57:08:962