time,seconds_elapsed,z,y,x
1667857268026622200,0.014622314453125,-0.9756927490234375,-0.235443115234375,-0.01409912109375
1667857268036642300,0.024642333984375,-0.9986724853515625,-0.2463226318359375,-0.0124053955078125
1667857268046663200,0.0346630859375,-0.9993438720703125,-0.2464447021484375,-0.01806640625
1667857268056683500,0.04468359375,-0.99267578125,-0.2410430908203125,-0.0195465087890625
1667857268066704400,0.054704345703125,-0.9886474609375,-0.231903076171875,-0.0209808349609375
1667857268076724500,0.064724365234375,-0.9877777099609375,-0.225311279296875,-0.0245513916015625
1667857268086745600,0.07474560546875,-0.9813232421875,-0.2202911376953125,-0.0296478271484375
1667857268096765400,0.084765380859375,-0.970977783203125,-0.2196807861328125,-0.0337066650390625
1667857268106786800,0.094786865234375,-0.956878662109375,-0.215301513671875,-0.0337371826171875
1667857268116806400,0.104806396484375,-0.9460601806640625,-0.212860107421875,-0.0340423583984375
1667857268126827800,0.114827880859375,-0.9485321044921875,-0.2129364013671875,-0.0345611572265625
1667857268136847600,0.12484765625,-0.95196533203125,-0.21533203125,-0.0326385498046875
1667857268146868700,0.13486865234375,-0.9549102783203125,-0.21875,-0.034210205078125
1667857268156889600,0.1448896484375,-0.9618377685546875,-0.221649169921875,-0.03515625
1667857268166909700,0.15490966796875,-0.976165771484375,-0.2202911376953125,-0.0331268310546875
1667857268176930600,0.1649306640625,-0.9851837158203125,-0.2161865234375,-0.0328826904296875
1667857268186950700,0.17495068359375,-0.98565673828125,-0.21075439453125,-0.03131103515625
1667857268196971800,0.1849716796875,-0.983856201171875,-0.2064971923828125,-0.034912109375
1667857268206991600,0.19499169921875,-0.9795989990234375,-0.2045745849609375,-0.0355224609375
1667857268217012700,0.2050126953125,-0.97607421875,-0.2054595947265625,-0.0337371826171875
1667857268227032600,0.215032470703125,-0.9782257080078125,-0.21368408203125,-0.0383148193359375
1667857268237053700,0.2250537109375,-0.9896087646484375,-0.22406005859375,-0.0477294921875
1667857268247073500,0.235073486328125,-0.9994659423828125,-0.2289886474609375,-0.059417724609375
1667857268257094700,0.2450947265625,-1.01104736328125,-0.225860595703125,-0.0742950439453125
1667857268267114800,0.25511474609375,-1.0163726806640625,-0.21697998046875,-0.07867431640625
1667857268277135600,0.265135498046875,-1.0028533935546875,-0.20220947265625,-0.0750274658203125
1667857268287155700,0.27515576171875,-0.9669342041015625,-0.1813201904296875,-0.0702362060546875
1667857268297176600,0.285176513671875,-0.9268341064453125,-0.1641998291015625,-0.0597991943359375
1667857268307196700,0.29519677734375,-0.894012451171875,-0.154541015625,-0.05023193359375
1667857268317217500,0.305217529296875,-0.8679046630859375,-0.1634521484375,-0.048004150390625
1667857268327237600,0.315237548828125,-0.8692626953125,-0.1854095458984375,-0.0457611083984375
1667857268337258500,0.325258544921875,-0.890777587890625,-0.209503173828125,-0.03997802734375
1667857268347278600,0.335278564453125,-0.9203033447265625,-0.2223052978515625,-0.0267181396484375
1667857268357299500,0.345299560546875,-0.949005126953125,-0.2256011962890625,-0.008544921875
1667857268367319600,0.355319580078125,-0.9785919189453125,-0.232574462890625,0.0068206787109375
1667857268377340700,0.365340576171875,-1.007781982421875,-0.245330810546875,0.0102081298828125
1667857268387360500,0.375360595703125,-1.0241546630859375,-0.2578125,0.006072998046875
1667857268397381600,0.385381591796875,-1.023681640625,-0.2605133056640625,-0.00555419921875
1667857268407401500,0.3954013671875,-1.017608642578125,-0.248443603515625,-0.0106658935546875
1667857268417422600,0.405422607421875,-0.998809814453125,-0.2308807373046875,-0.019744873046875
1667857268427442400,0.4154423828125,-0.959136962890625,-0.21502685546875,-0.0316009521484375
1667857268437463600,0.425463623046875,-0.9049835205078125,-0.202789306640625,-0.036865234375
1667857268447483600,0.435483642578125,-0.855224609375,-0.1998291015625,-0.0349884033203125
1667857268457504500,0.44550439453125,-0.8322296142578125,-0.2111358642578125,-0.027984619140625
1667857268467524600,0.455524658203125,-0.8222808837890625,-0.2249298095703125,-0.01312255859375
1667857268477545500,0.46554541015625,-0.8150634765625,-0.2239990234375,0.0088653564453125
1667857268487566600,0.475566650390625,-0.83154296875,-0.2200775146484375,0.0115814208984375
1667857268497586700,0.485586669921875,-0.8489990234375,-0.2180633544921875,-0.0009002685546875
1667857268507607800,0.49560791015625,-0.86700439453125,-0.2091217041015625,-0.0018768310546875
1667857268517627600,0.505627685546875,-0.875823974609375,-0.1935577392578125,-0.002197265625
1667857268527648800,0.515648681640625,-0.8812255859375,-0.1789703369140625,-0.0060882568359375
1667857268537668600,0.525668701171875,-0.8724517822265625,-0.1746063232421875,-0.0093536376953125
1667857268547689700,0.535689697265625,-0.8599090576171875,-0.1774139404296875,-0.0242156982421875
1667857268557709600,0.54570947265625,-0.8479156494140625,-0.1676483154296875,-0.0458984375
1667857268567730700,0.555730712890625,-0.8487701416015625,-0.1470489501953125,-0.072723388671875
1667857268577750800,0.565750732421875,-0.857269287109375,-0.12884521484375,-0.0846099853515625
1667857268587771600,0.575771728515625,-0.8791351318359375,-0.1276397705078125,-0.079437255859375
1667857268597791700,0.585791748046875,-0.9278411865234375,-0.123291015625,-0.067901611328125
1667857268607812600,0.5958125,-0.981536865234375,-0.1133880615234375,-0.0530548095703125
1667857268617832700,0.605832763671875,-1.0484619140625,-0.108428955078125,-0.0310516357421875
1667857268627853600,0.615853515625,-1.146087646484375,-0.0933074951171875,-0.025970458984375
1667857268637873700,0.625873779296875,-1.2169189453125,-0.063201904296875,-0.03741455078125
1667857268647894500,0.63589453125,-1.2365875244140625,-0.03509521484375,-0.023284912109375
1667857268657914600,0.64591455078125,-1.2222442626953125,-0.011627197265625,-0.0027923583984375
1667857268667935500,0.655935546875,-1.207183837890625,-0.0005645751953125,0.0240936279296875
1667857268677955600,0.66595556640625,-1.189605712890625,0.0162353515625,0.0535430908203125
1667857268687976700,0.675976806640625,-1.170379638671875,0.03680419921875,0.033294677734375
1667857268697996500,0.68599658203125,-1.129547119140625,0.0649566650390625,-0.004364013671875
1667857268708017700,0.696017578125,-1.05401611328125,0.124725341796875,-0.0214385986328125
1667857268718037500,0.70603759765625,-0.992431640625,0.188568115234375,-0.021820068359375
1667857268728058600,0.71605859375,-0.9585418701171875,0.2153472900390625,-0.02386474609375
1667857268738078700,0.72607861328125,-0.93310546875,0.2250213623046875,-0.0335235595703125
1667857268748099600,0.736099609375,-0.874420166015625,0.247100830078125,-0.01824951171875
1667857268758119700,0.74611962890625,-0.913543701171875,0.23931884765625,0.0392608642578125
1667857268768140500,0.756140625,-0.9843597412109375,0.2021636962890625,0.0562744140625
1667857268778160600,0.76616064453125,-1.004150390625,0.1532440185546875,0.0668792724609375
1667857268788181500,0.776181396484375,-1.0784912109375,0.1455078125,0.0836334228515625
1667857268798202600,0.78620263671875,-1.1558685302734375,0.1385040283203125,0.1128692626953125
1667857268808222500,0.796222412109375,-1.182647705078125,0.1123504638671875,0.1332855224609375
1667857268818243600,0.80624365234375,-1.1196441650390625,0.073883056640625,0.1424407958984375
1667857268828263400,0.816263427734375,-1.000518798828125,0.062347412109375,0.1427154541015625
1667857268838284500,0.826284423828125,-0.8781280517578125,0.12591552734375,0.128143310546875
1667857268848304400,0.836304443359375,-0.81341552734375,0.1457672119140625,0.1141357421875
1667857268858325800,0.84632568359375,-0.7832183837890625,0.11956787109375,0.10198974609375
1667857268868345600,0.856345703125,-0.795867919921875,0.12945556640625,0.1120147705078125
1667857268878366700,0.86636669921875,-0.8209381103515625,0.1729736328125,0.100982666015625
1667857268888386800,0.87638671875,-0.8501129150390625,0.211212158203125,0.072998046875
1667857268898407700,0.88640771484375,-0.910186767578125,0.228515625,0.051910400390625
1667857268908427800,0.896427734375,-0.9822998046875,0.2315216064453125,0.0489654541015625
1667857268918448600,0.90644873046875,-1.05224609375,0.238800048828125,0.06768798828125
1667857268928468700,0.91646875,-1.11138916015625,0.2463836669921875,0.0831298828125
1667857268938489600,0.926489501953125,-1.1666107177734375,0.235504150390625,0.0845489501953125
1667857268948509700,0.936509765625,-1.1850433349609375,0.220306396484375,0.0886383056640625
1667857268958530600,0.946530517578125,-1.1707000732421875,0.2111358642578125,0.0899200439453125
1667857268968550700,0.956550537109375,-1.133453369140625,0.2066497802734375,0.06329345703125
1667857268978571800,0.96657177734375,-1.0928497314453125,0.205413818359375,0.0441131591796875
1667857268988591600,0.976591552734375,-1.06610107421875,0.2080841064453125,0.0474700927734375
1667857268998612700,0.98661279296875,-1.0504608154296875,0.2120208740234375,0.0538177490234375
1667857269008632600,0.996632568359375,-1.034423828125,0.2094268798828125,0.060333251953125
1667857269018653700,1.00665380859375,-1.0161895751953125,0.1903076171875,0.064239501953125
1667857269028673500,1.016673583984375,-1.01214599609375,0.176300048828125,0.065765380859375
1667857269038694700,1.026694580078125,-1.0129547119140625,0.1744842529296875,0.063232421875
1667857269048714800,1.03671484375,-1.01885986328125,0.1767425537109375,0.0628204345703125
1667857269058734800,1.04673486328125,-1.037811279296875,0.174774169921875,0.0637054443359375
1667857269068755000,1.0567548828125,-1.042694091796875,0.1712493896484375,0.0667572021484375
1667857269078775800,1.06677587890625,-1.043212890625,0.170989990234375,0.062286376953125
1667857269088796000,1.0767958984375,-1.041351318359375,0.1775054931640625,0.051055908203125
1667857269098816800,1.086816650390625,-1.0401763916015625,0.1811370849609375,0.0479736328125
1667857269108836900,1.0968369140625,-1.0270538330078125,0.178955078125,0.052764892578125
1667857269118858000,1.10685791015625,-1.018829345703125,0.1708526611328125,0.0550384521484375
1667857269128879000,1.116879150390625,-1.0106964111328125,0.1678466796875,0.052825927734375
1667857269138899200,1.126899169921875,-1.0045928955078125,0.16619873046875,0.0414886474609375
1667857269148920000,1.136920166015625,-1.006134033203125,0.1624755859375,0.03875732421875
1667857269158940200,1.146940185546875,-1.0164794921875,0.1524810791015625,0.036956787109375
1667857269168961000,1.1569609375,-1.027587890625,0.1502685546875,0.043609619140625
1667857269178981000,1.166981201171875,-1.03118896484375,0.144683837890625,0.0470428466796875
1667857269189002000,1.177001953125,-1.026092529296875,0.13787841796875,0.0474395751953125
1667857269199022000,1.18702197265625,-1.0101470947265625,0.1287841796875,0.0479583740234375
1667857269209043000,1.19704296875,-0.9914093017578125,0.126800537109375,0.046051025390625
1667857269219063000,1.20706298828125,-0.982208251953125,0.12847900390625,0.0364837646484375
1667857269229084000,1.217083984375,-0.9836273193359375,0.12835693359375,0.027679443359375
1667857269239104000,1.22710400390625,-0.9903106689453125,0.1306915283203125,0.02703857421875
1667857269249125000,1.237125,-1.0066986083984375,0.1304779052734375,0.0238494873046875
1667857269259145000,1.24714501953125,-1.018157958984375,0.129119873046875,0.0214691162109375
1667857269269166000,1.257166015625,-1.0230560302734375,0.12933349609375,0.02294921875
1667857269279186000,1.26718603515625,-1.0276336669921875,0.127044677734375,0.02740478515625
1667857269289207000,1.27720703125,-1.029937744140625,0.1203765869140625,0.0274505615234375
1667857269299227000,1.287226806640625,-1.019622802734375,0.110443115234375,0.02947998046875
1667857269309248000,1.297248046875,-1.0130615234375,0.099945068359375,0.0301055908203125
1667857269319268000,1.30726806640625,-1.0084381103515625,0.0987396240234375,0.0298309326171875
1667857269329289000,1.3172890625,-1.0115966796875,0.1015625,0.03033447265625
1667857269339309000,1.32730908203125,-1.02105712890625,0.092681884765625,0.0328369140625
1667857269349330000,1.337329833984375,-1.020355224609375,0.0817718505859375,0.0296630859375
1667857269359350000,1.34735009765625,-1.009735107421875,0.076751708984375,0.0225982666015625
1667857269369371000,1.357370849609375,-0.9949798583984375,0.076263427734375,0.01806640625
1667857269379391000,1.367390869140625,-0.97515869140625,0.07452392578125,0.015869140625
1667857269389411800,1.377411865234375,-0.96453857421875,0.0740509033203125,0.0108184814453125
1667857269399432000,1.387431884765625,-0.9632720947265625,0.070526123046875,0.0069732666015625
1667857269409452800,1.397452880859375,-0.9582672119140625,0.06512451171875,0.012115478515625
1667857269419473000,1.407472900390625,-0.95703125,0.0667724609375,0.01593017578125
1667857269429494000,1.417493896484375,-0.962005615234375,0.0654754638671875,0.0136260986328125
1667857269439513900,1.427513916015625,-0.963775634765625,0.0660400390625,0.01495361328125
1667857269449535000,1.437534912109375,-0.965179443359375,0.0650634765625,0.016448974609375
1667857269459556000,1.44755615234375,-0.962127685546875,0.0615386962890625,0.0205230712890625
1667857269469576000,1.457575927734375,-0.96124267578125,0.05963134765625,0.0214691162109375
1667857269479597000,1.46759716796875,-0.9666900634765625,0.0543060302734375,0.0179595947265625
1667857269489617000,1.477616943359375,-0.9737548828125,0.051177978515625,0.0172119140625
1667857269499638000,1.487637939453125,-0.980865478515625,0.0466766357421875,0.01641845703125
1667857269509658000,1.497658203125,-0.9885406494140625,0.0445098876953125,0.016357421875
1667857269519679000,1.507678955078125,-0.9925689697265625,0.0353851318359375,0.011688232421875
1667857269529699000,1.517698974609375,-0.9879608154296875,0.0238037109375,0.0121612548828125
1667857269539720000,1.527719970703125,-0.9832305908203125,0.01202392578125,0.0099639892578125
1667857269549740000,1.537739990234375,-0.974700927734375,-0.0009765625,0.007476806640625
1667857269559761200,1.54776123046875,-0.972198486328125,-0.0154876708984375,0.0066375732421875
1667857269569781000,1.557781005859375,-0.972930908203125,-0.0298614501953125,0.014892578125
1667857269579802000,1.567802001953125,-0.9771270751953125,-0.0438232421875,0.0214080810546875
1667857269589822000,1.577822021484375,-0.9773712158203125,-0.0599365234375,0.0162200927734375
1667857269599843000,1.587843017578125,-0.97491455078125,-0.0720672607421875,0.010894775390625
1667857269609863200,1.59786328125,-0.971099853515625,-0.0824737548828125,0.0135955810546875
1667857269619884000,1.607884033203125,-0.9603118896484375,-0.095367431640625,0.011199951171875
1667857269629904100,1.617904052734375,-0.9462890625,-0.1036529541015625,0.0093994140625
1667857269639925000,1.627925048828125,-0.937652587890625,-0.108673095703125,0.008758544921875
1667857269649945000,1.637945068359375,-0.9397125244140625,-0.115142822265625,0.0059661865234375
1667857269659966000,1.647966064453125,-0.947357177734375,-0.12115478515625,0.010162353515625
1667857269669986000,1.657986083984375,-0.9517669677734375,-0.1249237060546875,0.0130462646484375
1667857269680007000,1.6680068359375,-0.944854736328125,-0.1275787353515625,0.0133514404296875
1667857269690027000,1.678027099609375,-0.93255615234375,-0.1282196044921875,0.013824462890625
1667857269700048000,1.6880478515625,-0.9235382080078125,-0.1260986328125,0.0167999267578125
1667857269710068000,1.69806787109375,-0.9202117919921875,-0.1187896728515625,0.025146484375
1667857269720088800,1.7080888671875,-0.9183502197265625,-0.1009674072265625,0.033721923828125
1667857269730109000,1.71810888671875,-0.9265289306640625,-0.0808563232421875,0.04052734375
1667857269740130000,1.728130126953125,-0.946197509765625,-0.0655517578125,0.040283203125
1667857269750150000,1.73814990234375,-0.960693359375,-0.0522918701171875,0.03460693359375
1667857269760171000,1.7481708984375,-0.9700164794921875,-0.0380859375,0.0335235595703125
1667857269770190800,1.75819091796875,-0.9752960205078125,-0.01495361328125,0.04010009765625
1667857269780212000,1.7682119140625,-0.970672607421875,-0.004302978515625,0.03070068359375
1667857269790232000,1.778232177734375,-0.9496612548828125,-0.0014495849609375,0.0167388916015625
1667857269800253000,1.7882529296875,-0.923553466796875,-0.002197265625,0.0132598876953125
1667857269810273000,1.79827294921875,-0.8978118896484375,0.0045318603515625,0.0084686279296875
1667857269820294000,1.8082939453125,-0.8836212158203125,0.008026123046875,-0.0082244873046875
1667857269830314000,1.81831396484375,-0.88848876953125,-0.0071258544921875,-0.020660400390625
1667857269840334800,1.8283349609375,-0.9398040771484375,-0.04034423828125,-0.0208892822265625
1667857269850355000,1.83835498046875,-1.0371551513671875,-0.101470947265625,-0.0356292724609375
1667857269860375800,1.848375732421875,-1.1483612060546875,-0.152313232421875,-0.027008056640625
1667857269870396000,1.85839599609375,-1.252227783203125,-0.166473388671875,-0.0363922119140625
1667857269880416800,1.868416748046875,-1.3375091552734375,-0.116363525390625,-0.0597381591796875
1667857269890438100,1.878438232421875,-1.3215789794921875,-0.04046630859375,-0.0958709716796875
1667857269900458000,1.8884580078125,-1.1731719970703125,0.0102691650390625,-0.105743408203125
1667857269910479000,1.89847900390625,-0.9575347900390625,0.0319061279296875,-0.078704833984375
1667857269920499200,1.908499267578125,-0.751007080078125,0.0315399169921875,-0.0600433349609375
1667857269930520000,1.91852001953125,-0.6163482666015625,-0.0111541748046875,-0.049560546875
1667857269940540200,1.9285400390625,-0.5873260498046875,-0.060638427734375,-0.023712158203125
1667857269950561000,1.93856103515625,-0.695281982421875,-0.0747528076171875,0.01885986328125
1667857269960581000,1.9485810546875,-0.9391326904296875,-0.0334320068359375,0.0709991455078125
1667857269970602000,1.95860205078125,-1.249176025390625,0.0450286865234375,0.07513427734375
1667857269980622000,1.9686220703125,-1.476654052734375,0.1170654296875,0.0385894775390625
1667857269990643000,1.978642822265625,-1.5749053955078125,0.1770477294921875,0.009185791015625
1667857270000663000,1.9886630859375,-1.60137939453125,0.211212158203125,-0.0029754638671875
1667857270010684000,1.998683837890625,-1.5870208740234375,0.237396240234375,0.010467529296875
1667857270020704000,2.0087041015625,-1.512054443359375,0.2651824951171875,0.0556182861328125
1667857270030725000,2.01872509765625,-1.408172607421875,0.285491943359375,0.0903778076171875
1667857270040745000,2.028744873046875,-1.2942352294921875,0.3350982666015625,0.1140289306640625
1667857270050766600,2.0387666015625,-1.189788818359375,0.3801422119140625,0.1050567626953125
1667857270060786400,2.048786376953125,-1.1309814453125,0.4124755859375,0.080810546875
1667857270070807600,2.0588076171875,-1.122039794921875,0.4261322021484375,0.0242919921875
1667857270080827400,2.068827392578125,-1.1763916015625,0.4271392822265625,-0.042694091796875
1667857270090848500,2.0788486328125,-1.2838287353515625,0.42755126953125,-0.102264404296875
1667857270100868400,2.088868408203125,-1.420989990234375,0.4165496826171875,-0.1456146240234375
1667857270110889500,2.098889404296875,-1.5652008056640625,0.39141845703125,-0.1272430419921875
1667857270120909600,2.10890966796875,-1.6725311279296875,0.3630828857421875,-0.0647430419921875
1667857270130930400,2.118930419921875,-1.722503662109375,0.32330322265625,-0.0698089599609375
1667857270140950500,2.128950439453125,-1.705780029296875,0.2816009521484375,-0.082000732421875
1667857270150971400,2.138971435546875,-1.625762939453125,0.2634735107421875,-0.07147216796875
1667857270160991500,2.148991455078125,-1.533111572265625,0.242156982421875,-0.0641021728515625
1667857270171012400,2.159012451171875,-1.406524658203125,0.246795654296875,-0.0521697998046875
1667857270181032400,2.169032470703125,-1.2691497802734375,0.2273101806640625,-0.0717315673828125
1667857270191053300,2.17905322265625,-1.195709228515625,0.2076568603515625,-0.05816650390625
1667857270201073400,2.189073486328125,-1.16552734375,0.2033233642578125,-0.03302001953125
1667857270211094300,2.19909423828125,-1.1555023193359375,0.207733154296875,-0.0274810791015625
1667857270221114400,2.2091142578125,-1.1510772705078125,0.20458984375,-0.0318145751953125
1667857270231135500,2.219135498046875,-1.1413421630859375,0.190032958984375,-0.03424072265625
1667857270241155300,2.2291552734375,-1.12188720703125,0.182403564453125,-0.0354766845703125
1667857270251176700,2.2391767578125,-1.066925048828125,0.1680450439453125,-0.041839599609375
1667857270261196300,2.2491962890625,-1.0063323974609375,0.15191650390625,-0.04547119140625
1667857270271217700,2.2592177734375,-0.9590606689453125,0.138519287109375,-0.0529937744140625
1667857270281237500,2.269237548828125,-0.9261627197265625,0.1297607421875,-0.0526275634765625
1667857270291258600,2.279258544921875,-0.910919189453125,0.1306610107421875,-0.048980712890625
1667857270301278500,2.289278564453125,-0.885650634765625,0.1264495849609375,-0.051605224609375
1667857270311299600,2.299299560546875,-0.85272216796875,0.1156768798828125,-0.0601806640625
1667857270321319700,2.309319580078125,-0.8157958984375,0.102996826171875,-0.069549560546875
1667857270331340500,2.319340576171875,-0.77142333984375,0.0892486572265625,-0.0731353759765625
1667857270341360600,2.329360595703125,-0.7203369140625,0.0819091796875,-0.080841064453125
1667857270351381500,2.339381591796875,-0.6700439453125,0.082061767578125,-0.0909576416015625
1667857270361401600,2.349401611328125,-0.6384124755859375,0.0825653076171875,-0.0907135009765625
1667857270371422500,2.35942236328125,-0.6345672607421875,0.0770111083984375,-0.0877532958984375
1667857270381442600,2.369442626953125,-0.6414337158203125,0.063751220703125,-0.0876007080078125
1667857270391463400,2.37946337890625,-0.6576080322265625,0.056915283203125,-0.0843505859375
1667857270401483500,2.3894833984375,-0.6712188720703125,0.0572662353515625,-0.0890045166015625
1667857270411504400,2.39950439453125,-0.693267822265625,0.057281494140625,-0.10845947265625
1667857270421524500,2.4095244140625,-0.7214508056640625,0.0618896484375,-0.120819091796875
1667857270431545600,2.419545654296875,-0.7388763427734375,0.060333251953125,-0.1250457763671875
1667857270441565400,2.4295654296875,-0.742523193359375,0.0541839599609375,-0.117431640625
1667857270451586600,2.439586669921875,-0.740753173828125,0.050201416015625,-0.1041107177734375
1667857270461607400,2.449607421875,-0.7303314208984375,0.049652099609375,-0.1009674072265625
1667857270471627500,2.45962744140625,-0.7160186767578125,0.0485382080078125,-0.106201171875
1667857270481648400,2.4696484375,-0.694000244140625,0.0459136962890625,-0.1115570068359375
1667857270491668500,2.47966845703125,-0.6715087890625,0.0402679443359375,-0.1082916259765625
1667857270501689300,2.489689453125,-0.668701171875,0.031463623046875,-0.10333251953125
1667857270511709400,2.49970947265625,-0.6681671142578125,0.02459716796875,-0.100799560546875
1667857270521730300,2.509730224609375,-0.6726226806640625,0.0223236083984375,-0.100128173828125
1667857270531750400,2.51975048828125,-0.6841583251953125,0.023681640625,-0.0985870361328125
1667857270541771500,2.529771484375,-0.698883056640625,0.0246429443359375,-0.10009765625
1667857270551791400,2.539791259765625,-0.70574951171875,0.0242156982421875,-0.1019287109375
1667857270561812500,2.5498125,-0.7106170654296875,0.021575927734375,-0.10015869140625
1667857270571832300,2.559832275390625,-0.7249908447265625,0.02471923828125,-0.095855712890625
1667857270581853400,2.569853515625,-0.7498779296875,0.0251617431640625,-0.097869873046875
1667857270591873300,2.579873291015625,-0.794464111328125,0.0290069580078125,-0.1062469482421875
1667857270601894400,2.589894287109375,-0.8306884765625,0.0269622802734375,-0.1209259033203125
1667857270611914500,2.59991455078125,-0.8512420654296875,0.02911376953125,-0.1286468505859375
1667857270621935400,2.609935302734375,-0.8709259033203125,0.0312347412109375,-0.13446044921875
1667857270631955500,2.61995556640625,-0.8900146484375,0.0365142822265625,-0.137786865234375
1667857270641976600,2.6299765625,-0.9189300537109375,0.0317230224609375,-0.144622802734375
1667857270651996400,2.639996337890625,-0.9445953369140625,0.0279388427734375,-0.15447998046875
1667857270662017500,2.650017578125,-0.9538726806640625,0.0218048095703125,-0.1608428955078125
1667857270672037600,2.66003759765625,-0.9565887451171875,0.015869140625,-0.1728973388671875
1667857270682058500,2.67005859375,-0.9549407958984375,0.0126953125,-0.18231201171875
1667857270692078600,2.68007861328125,-0.9558563232421875,0.008026123046875,-0.1960296630859375
1667857270702099500,2.690099365234375,-0.9462890625,0.002685546875,-0.2077178955078125
1667857270712119600,2.70011962890625,-0.9385833740234375,-0.000579833984375,-0.2120819091796875
1667857270722140700,2.710140625,-0.952423095703125,-0.0008392333984375,-0.221771240234375
1667857270732160500,2.720160400390625,-0.9689178466796875,0.002655029296875,-0.2317352294921875
1667857270742181600,2.730181640625,-0.9830474853515625,0.0003509521484375,-0.249176025390625
1667857270752201500,2.740201416015625,-0.97894287109375,-0.003082275390625,-0.2728118896484375
1667857270762222600,2.75022265625,-0.9580078125,-0.001434326171875,-0.2864227294921875
1667857270772242400,2.760242431640625,-0.9545745849609375,0.0026397705078125,-0.296875
1667857270782263600,2.770263671875,-0.951171875,-0.0036468505859375,-0.306854248046875
1667857270792283600,2.78028369140625,-0.933135986328125,-0.010009765625,-0.3099212646484375
1667857270802304500,2.790304443359375,-0.919189453125,-0.01043701171875,-0.3016357421875
1667857270812324600,2.80032470703125,-0.9196014404296875,-0.0124359130859375,-0.2864837646484375
1667857270822345500,2.810345458984375,-0.936279296875,-0.0170745849609375,-0.280609130859375
1667857270832365600,2.820365478515625,-0.9600372314453125,-0.037750244140625,-0.278228759765625
1667857270842386400,2.830386474609375,-0.9851226806640625,-0.0721435546875,-0.2762908935546875
1667857270852406500,2.840406494140625,-1.0101318359375,-0.116241455078125,-0.27716064453125
1667857270862427400,2.850427490234375,-1.03466796875,-0.1583251953125,-0.2722930908203125
1667857270872447500,2.860447509765625,-1.0573883056640625,-0.1883392333984375,-0.2658538818359375
1667857270882468400,2.87046826171875,-1.04925537109375,-0.2122802734375,-0.25665283203125
1667857270892488400,2.880488525390625,-1.0136871337890625,-0.213592529296875,-0.2205963134765625
1667857270902509600,2.890509521484375,-0.966278076171875,-0.18963623046875,-0.17095947265625
1667857270912529400,2.900529296875,-0.9308013916015625,-0.1534881591796875,-0.148895263671875
1667857270922550500,2.910550537109375,-0.928314208984375,-0.11480712890625,-0.1464385986328125
1667857270932570400,2.9205703125,-0.9464263916015625,-0.08123779296875,-0.11749267578125
1667857270942591500,2.930591552734375,-0.9591217041015625,-0.0526123046875,-0.0623626708984375
1667857270952611300,2.940611328125,-0.9672393798828125,-0.0287628173828125,-0.0229949951171875
1667857270962632400,2.950632568359375,-0.97998046875,-0.0138702392578125,-0.005126953125
1667857270972652500,2.960652587890625,-0.9991302490234375,-0.012664794921875,-0.0049896240234375
1667857270982673400,2.97067333984375,-1.025299072265625,-0.02459716796875,0.0030517578125
1667857270992693500,2.980693603515625,-1.0577392578125,-0.05419921875,0.0169219970703125
1667857271002714400,2.99071435546875,-1.0660552978515625,-0.083526611328125,0.034515380859375
1667857271012735500,3.000735595703125,-1.0380706787109375,-0.0892791748046875,0.053192138671875
1667857271022755300,3.01075537109375,-0.98223876953125,-0.067474365234375,0.065673828125
1667857271032776700,3.020776611328125,-0.9166717529296875,-0.023590087890625,0.0751495361328125
1667857271042796300,3.03079638671875,-0.8663482666015625,0.021697998046875,0.0847015380859375
1667857271052818000,3.04081787109375,-0.850738525390625,0.0507354736328125,0.0999755859375
1667857271062837800,3.050837646484375,-0.862030029296875,0.0629425048828125,0.1072235107421875
1667857271072859000,3.06085888671875,-0.889251708984375,0.065093994140625,0.100433349609375
1667857271082878700,3.070878662109375,-0.92413330078125,0.05712890625,0.080108642578125
1667857271092899800,3.08089990234375,-0.9471588134765625,0.0417327880859375,0.0537261962890625
1667857271102920000,3.090919921875,-0.9560089111328125,0.0270843505859375,0.021942138671875
1667857271112940800,3.10094091796875,-0.954132080078125,0.0147247314453125,-0.014190673828125
1667857271122961000,3.1109609375,-0.9560699462890625,0.0079498291015625,-0.0483856201171875
1667857271132981800,3.120981689453125,-0.9608612060546875,0.0054931640625,-0.08233642578125
1667857271143001900,3.131001953125,-0.962158203125,0.003662109375,-0.1169281005859375
1667857271153022700,3.141022705078125,-0.9599609375,-0.0030670166015625,-0.1474609375
1667857271163042800,3.151042724609375,-0.9594268798828125,-0.0088043212890625,-0.16937255859375
1667857271173063700,3.161063720703125,-0.9644775390625,-0.0099029541015625,-0.1780242919921875
1667857271183083800,3.171083740234375,-0.95916748046875,-0.01580810546875,-0.1815185546875
1667857271193104600,3.181104736328125,-0.933929443359375,-0.01776123046875,-0.17840576171875
1667857271203124700,3.191124755859375,-0.892578125,-0.01312255859375,-0.185211181640625
1667857271213145900,3.201145751953125,-0.84576416015625,-0.0041351318359375,-0.1740570068359375
1667857271223165700,3.211165771484375,-0.8110198974609375,0.0119171142578125,-0.157989501953125
1667857271233187000,3.22118701171875,-0.8041839599609375,0.0265960693359375,-0.1589508056640625
1667857271243207000,3.23120703125,-0.8211822509765625,0.023529052734375,-0.15777587890625
1667857271253228000,3.24122802734375,-0.84869384765625,0.0152435302734375,-0.1491241455078125
1667857271263248000,3.251247802734375,-0.859405517578125,0.0041351318359375,-0.1395416259765625
1667857271273269000,3.26126904296875,-0.8460693359375,-0.001007080078125,-0.1276092529296875
1667857271283288800,3.271288818359375,-0.8132171630859375,-0.0053863525390625,-0.1120452880859375
1667857271293310000,3.28131005859375,-0.77447509765625,-0.0005950927734375,-0.09771728515625
1667857271303330000,3.291330078125,-0.7357177734375,0.002349853515625,-0.0936431884765625
1667857271313351000,3.301350830078125,-0.7143096923828125,-0.00396728515625,-0.09417724609375
1667857271323371000,3.31137109375,-0.7183837890625,-0.022186279296875,-0.0917816162109375
1667857271333392000,3.321391845703125,-0.7322540283203125,-0.0369873046875,-0.08612060546875
1667857271343412000,3.331411865234375,-0.7475433349609375,-0.0458221435546875,-0.082855224609375
1667857271353432800,3.341432861328125,-0.763671875,-0.0515594482421875,-0.08367919921875
1667857271363453000,3.351452880859375,-0.74261474609375,-0.0617523193359375,-0.066253662109375
1667857271373473800,3.361473876953125,-0.7080841064453125,-0.0735321044921875,-0.0539703369140625
1667857271383494000,3.371493896484375,-0.657012939453125,-0.0776519775390625,-0.0569000244140625
1667857271393514800,3.3815146484375,-0.606964111328125,-0.0711822509765625,-0.0619964599609375
1667857271403534800,3.391534912109375,-0.5714874267578125,-0.056243896484375,-0.058746337890625
1667857271413556000,3.401555908203125,-0.54278564453125,-0.04595947265625,-0.05560302734375
1667857271423575800,3.411575927734375,-0.5261993408203125,-0.03961181640625,-0.04315185546875
1667857271433597000,3.421596923828125,-0.5310516357421875,-0.0329742431640625,-0.0277252197265625
1667857271443616800,3.43161669921875,-0.5284881591796875,-0.0212554931640625,-0.017425537109375
1667857271453638000,3.441637939453125,-0.514495849609375,-0.0005035400390625,-0.0145111083984375
1667857271463657700,3.45165771484375,-0.507720947265625,0.0231170654296875,-0.015869140625
1667857271473678800,3.461678955078125,-0.5109405517578125,0.044830322265625,-0.01568603515625
1667857271483699000,3.471698974609375,-0.5099334716796875,0.0638427734375,-0.0122833251953125
1667857271493719800,3.4817197265625,-0.511993408203125,0.081024169921875,-0.0004119873046875
1667857271503740000,3.491739990234375,-0.5347747802734375,0.0950164794921875,0.0144500732421875
1667857271513760800,3.5017607421875,-0.58612060546875,0.1102752685546875,0.023468017578125
1667857271523780900,3.51178076171875,-0.65301513671875,0.1248931884765625,0.020538330078125
1667857271533801700,3.5218017578125,-0.7336273193359375,0.12689208984375,0.025177001953125
1667857271543822800,3.53182275390625,-0.8412933349609375,0.1054534912109375,0.031463623046875
1667857271553842700,3.5418427734375,-0.971649169921875,0.0573577880859375,0.0200042724609375
1667857271563863800,3.55186376953125,-1.0867919921875,0.0157623291015625,0.02001953125
1667857271573883600,3.561883544921875,-1.162567138671875,-0.0159454345703125,0.03216552734375
1667857271583904800,3.57190478515625,-1.2031097412109375,-0.04022216796875,0.0270843505859375
1667857271593924900,3.5819248046875,-1.1915435791015625,-0.041107177734375,0.0146484375
1667857271603946000,3.591946044921875,-1.1750335693359375,-0.0237274169921875,0.0094146728515625
1667857271613965800,3.6019658203125,-1.1808929443359375,0.004302978515625,0.010345458984375
1667857271623987000,3.611987060546875,-1.2037353515625,0.029815673828125,0.00244140625
1667857271634007000,3.622007080078125,-1.2466278076171875,0.055694580078125,-0.009857177734375
1667857271644028000,3.63202783203125,-1.2876434326171875,0.0771636962890625,-0.0147857666015625
1667857271654048000,3.642048095703125,-1.311126708984375,0.0871734619140625,-0.018890380859375
1667857271664068900,3.65206884765625,-1.3368377685546875,0.08203125,-0.0185394287109375
1667857271674089000,3.6620888671875,-1.353271484375,0.06622314453125,-0.0099029541015625
1667857271684109800,3.67210986328125,-1.354644775390625,0.045501708984375,-0.00958251953125
1667857271694130000,3.6821298828125,-1.3441162109375,0.0379180908203125,-0.013580322265625
1667857271704151000,3.692151123046875,-1.3382720947265625,0.038360595703125,-0.0220489501953125
1667857271714171000,3.7021708984375,-1.3556060791015625,0.041046142578125,-0.0348663330078125
1667857271724192000,3.71219189453125,-1.3973388671875,0.037933349609375,-0.0464935302734375
1667857271734211800,3.7222119140625,-1.458648681640625,0.036773681640625,-0.065216064453125
1667857271744233000,3.73223291015625,-1.491424560546875,0.0338287353515625,-0.1152496337890625
1667857271754252800,3.742252685546875,-1.47528076171875,-0.114837646484375,-0.4479827880859375
1667857271764274000,3.75227392578125,-1.7515716552734375,-0.4402618408203125,-0.9565582275390625
1667857271774294000,3.7622939453125,-2.3095245361328125,-0.4039154052734375,-0.7851715087890625
1667857271784315000,3.77231494140625,-2.582763671875,-0.0380859375,-0.1710662841796875
1667857271794335000,3.7823349609375,-2.34954833984375,0.205108642578125,0.1998291015625
1667857271804355800,3.79235595703125,-1.8457489013671875,0.186859130859375,0.245269775390625
1667857271814376000,3.8023759765625,-1.3510589599609375,0.1032562255859375,0.25982666015625
1667857271824396800,3.812396728515625,-0.98260498046875,0.049835205078125,0.3731536865234375
1667857271834417000,3.8224169921875,-0.7384796142578125,-0.0592498779296875,0.546905517578125
1667857271844437800,3.832437744140625,-0.6889801025390625,-0.175689697265625,0.6736602783203125
1667857271854457900,3.842457763671875,-0.8590087890625,-0.203643798828125,0.563629150390625
1667857271864478700,3.852478759765625,-1.0996246337890625,-0.1507568359375,0.31268310546875
1667857271874498800,3.862498779296875,-1.2747344970703125,-0.09375,0.095794677734375
1667857271884520000,3.87252001953125,-1.3438873291015625,0.016693115234375,0.0513458251953125
1667857271894539800,3.882539794921875,-1.32928466796875,0.1184234619140625,0.0724029541015625
1667857271904561000,3.892560791015625,-1.2780609130859375,0.08721923828125,0.0820159912109375
1667857271914580700,3.902580810546875,-1.193359375,0.011749267578125,0.1197052001953125
1667857271924601900,3.912601806640625,-1.100982666015625,-0.0089111328125,0.1716156005859375
1667857271934621700,3.92262158203125,-1.0249481201171875,0.0022735595703125,0.1728363037109375
1667857271944642800,3.932642822265625,-0.983673095703125,0.01654052734375,0.130218505859375
1667857271954663000,3.942662841796875,-0.936859130859375,0.0410919189453125,0.069000244140625
1667857271964683800,3.952683837890625,-0.863006591796875,0.059661865234375,0.02716064453125
1667857271974703900,3.962703857421875,-0.768096923828125,0.0637359619140625,-0.0115966796875
1667857271984724700,3.972724853515625,-0.6669464111328125,0.053680419921875,-0.060455322265625
1667857271994744800,3.982744873046875,-0.60577392578125,0.04071044921875,-0.079986572265625
1667857272004765700,3.992765625,-0.59588623046875,0.0110321044921875,-0.094696044921875
1667857272014785800,4.002785888671875,-0.6008453369140625,-0.0401153564453125,-0.106903076171875
1667857272024807000,4.012806884765625,-0.630767822265625,-0.10723876953125,-0.0960845947265625
1667857272034828000,4.022828125,-0.686553955078125,-0.1898651123046875,-0.06964111328125
1667857272044847900,4.032847900390625,-0.7641143798828125,-0.2704010009765625,-0.0388641357421875
1667857272054868000,4.042867919921875,-0.8715057373046875,-0.33331298828125,0.03289794921875
1667857272064888000,4.05288818359375,-0.9698486328125,-0.378265380859375,0.0737762451171875
1667857272074909000,4.062908935546875,-1.0384674072265625,-0.4117889404296875,0.1051483154296875
1667857272084929000,4.072928955078125,-1.0814971923828125,-0.4268798828125,0.134674072265625
1667857272094950000,4.082949951171875,-1.0979766845703125,-0.42547607421875,0.1591644287109375
1667857272104970000,4.092969970703125,-1.100982666015625,-0.4160308837890625,0.174835205078125
1667857272114990800,4.102990966796875,-1.109130859375,-0.3994903564453125,0.178070068359375
1667857272125011000,4.113010986328125,-1.10333251953125,-0.3595428466796875,0.18804931640625
1667857272135032000,4.123031982421875,-1.0778656005859375,-0.322601318359375,0.1728057861328125
1667857272145052000,4.133052001953125,-1.043914794921875,-0.297119140625,0.1367034912109375
1667857272155073000,4.143072998046875,-1.0063934326171875,-0.27996826171875,0.0989227294921875
1667857272165092900,4.1530927734375,-0.95001220703125,-0.2598876953125,0.0675506591796875
1667857272175114000,4.163114013671875,-0.9033660888671875,-0.2434234619140625,0.0293121337890625
1667857272185133800,4.1731337890625,-0.87353515625,-0.2352142333984375,-0.009033203125
1667857272195155200,4.1831552734375,-0.8613128662109375,-0.23114013671875,-0.0315093994140625
1667857272205175000,4.193175048828125,-0.87890625,-0.2159881591796875,-0.0408782958984375
1667857272215196200,4.203196044921875,-0.9198760986328125,-0.1989593505859375,-0.0440673828125
1667857272225216000,4.213216064453125,-0.9608612060546875,-0.1872100830078125,-0.0519256591796875
1667857272235237000,4.223237060546875,-1.0060882568359375,-0.1788787841796875,-0.0614166259765625
1667857272245257200,4.23325732421875,-1.0525970458984375,-0.177886962890625,-0.0638885498046875
1667857272255278000,4.243278076171875,-1.082305908203125,-0.18310546875,-0.0564117431640625
1667857272265298200,4.253298095703125,-1.0972137451171875,-0.1951904296875,-0.0414581298828125
1667857272275319000,4.263319091796875,-1.093658447265625,-0.2039031982421875,-0.0290985107421875
1667857272285339100,4.273339111328125,-1.063629150390625,-0.2149658203125,-0.021759033203125
1667857272295360000,4.283360107421875,-1.0218963623046875,-0.2220916748046875,-0.0072479248046875
1667857272305380000,4.293380126953125,-0.9901275634765625,-0.2297210693359375,0.0023956298828125
1667857272315401000,4.30340087890625,-0.9723052978515625,-0.235809326171875,0.0029449462890625
1667857272325421000,4.313421142578125,-0.97039794921875,-0.235595703125,0.000213623046875
1667857272335442200,4.323442138671875,-0.9748687744140625,-0.2288360595703125,0.00579833984375
1667857272345462000,4.3334619140625,-0.9766082763671875,-0.220550537109375,0.0184478759765625
1667857272355483100,4.343483154296875,-0.9857330322265625,-0.2126617431640625,0.0322723388671875
1667857272365503000,4.3535029296875,-1.01470947265625,-0.2180938720703125,0.0297393798828125
1667857272375524000,4.363524169921875,-1.0812530517578125,-0.230712890625,0.00665283203125
1667857272385544000,4.3735439453125,-1.1174468994140625,-0.2514190673828125,-0.0162506103515625
1667857272395565000,4.38356494140625,-1.09857177734375,-0.263092041015625,-0.0103759765625
1667857272405585200,4.393585205078125,-1.061767578125,-0.26318359375,0.00640869140625
1667857272415606000,4.40360595703125,-1.0107879638671875,-0.2701873779296875,0.0140838623046875
1667857272425626000,4.413626220703125,-0.949859619140625,-0.277496337890625,0.0139007568359375
1667857272435647000,4.42364697265625,-0.896240234375,-0.2833251953125,0.0114288330078125
1667857272445668000,4.433668212890625,-0.856658935546875,-0.2841644287109375,0.014862060546875
1667857272455688000,4.44368798828125,-0.833404541015625,-0.281829833984375,0.0122222900390625
1667857272465709000,4.453708984375,-0.8215789794921875,-0.2827301025390625,0.0051422119140625
1667857272475729000,4.46372900390625,-0.813995361328125,-0.288421630859375,-0.0001068115234375
1667857272485750000,4.47375,-0.8159332275390625,-0.30694580078125,0.002532958984375
1667857272495769900,4.483769775390625,-0.8275604248046875,-0.3262481689453125,0.0098876953125
1667857272505791000,4.493791015625,-0.833648681640625,-0.3419342041015625,0.027496337890625
1667857272515811000,4.50381103515625,-0.8404541015625,-0.353912353515625,0.0454254150390625
1667857272525832000,4.51383203125,-0.8535919189453125,-0.3648529052734375,0.0622711181640625
1667857272535852000,4.52385205078125,-0.8672943115234375,-0.3713836669921875,0.070343017578125
1667857272545873000,4.533872802734375,-0.8765869140625,-0.37652587890625,0.07379150390625
1667857272555893000,4.54389306640625,-0.8858184814453125,-0.384307861328125,0.0753631591796875
1667857272565913900,4.553913818359375,-0.9068603515625,-0.3982391357421875,0.076873779296875
1667857272575934000,4.563933837890625,-0.9250335693359375,-0.4161529541015625,0.0700225830078125
1667857272585955000,4.573955078125,-0.93780517578125,-0.427947998046875,0.0611419677734375
1667857272595975000,4.583974853515625,-0.9503173828125,-0.434051513671875,0.0608062744140625
1667857272605996000,4.59399609375,-0.9600067138671875,-0.4387054443359375,0.061798095703125
1667857272616016000,4.604015869140625,-0.964569091796875,-0.4436187744140625,0.0614471435546875
1667857272626037200,4.614037353515625,-0.9627227783203125,-0.4440460205078125,0.0588836669921875
1667857272636057000,4.62405712890625,-0.94781494140625,-0.4386138916015625,0.0556640625
1667857272646078200,4.634078125,-0.9348297119140625,-0.427703857421875,0.052825927734375
1667857272656098000,4.64409814453125,-0.9276885986328125,-0.4140777587890625,0.0484161376953125
1667857272666119200,4.654119140625,-0.916748046875,-0.4035797119140625,0.041839599609375
1667857272676139000,4.664138916015625,-0.9036407470703125,-0.389404296875,0.0358123779296875
1667857272686160100,4.67416015625,-0.9055328369140625,-0.3750457763671875,0.0311279296875
1667857272696180200,4.68418017578125,-0.912841796875,-0.3603973388671875,0.02789306640625
1667857272706201000,4.694201171875,-0.9173583984375,-0.3438873291015625,0.0271148681640625
1667857272716221200,4.70422119140625,-0.9171600341796875,-0.33135986328125,0.02197265625
1667857272726242000,4.714241943359375,-0.9203338623046875,-0.3153076171875,0.0193328857421875
1667857272736262100,4.72426220703125,-0.9233856201171875,-0.3009490966796875,0.0168609619140625
1667857272746283000,4.734282958984375,-0.9189300537109375,-0.29083251953125,0.014678955078125
1667857272756303000,4.74430322265625,-0.909698486328125,-0.285308837890625,0.0182952880859375
1667857272766324000,4.754323974609375,-0.9083251953125,-0.2848663330078125,0.024505615234375
1667857272776344000,4.764343994140625,-0.91680908203125,-0.2887725830078125,0.032928466796875
1667857272786365000,4.774364990234375,-0.92047119140625,-0.292755126953125,0.041046142578125
1667857272796385000,4.784385009765625,-0.9216766357421875,-0.2922821044921875,0.0501708984375
1667857272806406100,4.79440625,-0.9211578369140625,-0.29443359375,0.046417236328125
1667857272816426000,4.804426025390625,-0.9171142578125,-0.2976837158203125,0.040924072265625
1667857272826447000,4.814447021484375,-0.9149932861328125,-0.3006744384765625,0.0346527099609375
1667857272836467000,4.824467041015625,-0.9241180419921875,-0.3037872314453125,0.0338897705078125
1667857272846486000,4.834486083984375,-0.9327545166015625,-0.3060302734375,0.0349273681640625
1667857272856507100,4.844507080078125,-0.9365997314453125,-0.313720703125,0.034759521484375
1667857272866527000,4.85452685546875,-0.9467620849609375,-0.3166046142578125,0.03662109375
1667857272876548000,4.864548095703125,-0.966156005859375,-0.318939208984375,0.0347747802734375
1667857272886568200,4.874568115234375,-0.9857635498046875,-0.3155670166015625,0.0278167724609375
1667857272896589000,4.884589111328125,-0.98065185546875,-0.3160400390625,0.0169830322265625
1667857272906609200,4.894609130859375,-0.959075927734375,-0.319732666015625,0.0181732177734375
1667857272916630000,4.904630126953125,-0.930633544921875,-0.32379150390625,0.019073486328125
1667857272926650000,4.914650146484375,-0.90264892578125,-0.3184967041015625,0.0164031982421875
1667857272936671000,4.9246708984375,-0.886993408203125,-0.300537109375,0.012420654296875
1667857272946691000,4.934691162109375,-0.8831939697265625,-0.2837066650390625,0.0109100341796875
1667857272956712000,4.9447119140625,-0.869537353515625,-0.273162841796875,0.0211029052734375
1667857272966732000,4.95473193359375,-0.84576416015625,-0.2650146484375,0.0301055908203125
1667857272976753000,4.9647529296875,-0.81512451171875,-0.25201416015625,0.041900634765625
1667857272986773000,4.97477294921875,-0.800018310546875,-0.2327117919921875,0.0551910400390625
1667857272996794000,4.984794189453125,-0.7947845458984375,-0.2115020751953125,0.0739898681640625
1667857273006815000,4.99481494140625,-0.791717529296875,-0.202606201171875,0.116851806640625
1667857273016835000,5.0048349609375,-0.7936248779296875,-0.19775390625,0.170166015625
1667857273026856000,5.01485595703125,-0.830413818359375,-0.2147216796875,0.2022857666015625
1667857273036876000,5.0248759765625,-0.9185943603515625,-0.229461669921875,0.1702880859375
1667857273046897000,5.03489697265625,-0.9884490966796875,-0.2271270751953125,0.11279296875
1667857273056917500,5.04491748046875,-1.0258331298828125,-0.22186279296875,0.068450927734375
1667857273066938400,5.0549384765625,-1.032928466796875,-0.235565185546875,0.0473175048828125
1667857273076958500,5.06495849609375,-1.0469970703125,-0.25482177734375,0.0658111572265625
1667857273086979300,5.074979248046875,-1.08026123046875,-0.281982421875,0.10107421875
1667857273096999400,5.08499951171875,-1.0963897705078125,-0.2954864501953125,0.1134490966796875
1667857273107020300,5.095020263671875,-1.1095733642578125,-0.2444915771484375,0.0681304931640625
1667857273117040400,5.105040283203125,-1.0802459716796875,-0.181976318359375,-0.0254974365234375
1667857273127061200,5.115061279296875,-1.0446319580078125,-0.14544677734375,-0.0717010498046875
1667857273137081300,5.125081298828125,-1.057647705078125,-0.1330413818359375,-0.0961761474609375
1667857273147102500,5.1351025390625,-1.1012725830078125,-0.09234619140625,-0.1179962158203125
1667857273157122300,5.145122314453125,-1.0937652587890625,-0.092742919921875,-0.108551025390625
1667857273167143400,5.155143310546875,-1.0342864990234375,-0.0762786865234375,-0.1129150390625
1667857273177163300,5.165163330078125,-0.9862823486328125,-0.036865234375,-0.111785888671875
1667857273187184400,5.175184326171875,-0.9478759765625,-0.0075225830078125,-0.106689453125
1667857273197204200,5.185204345703125,-0.9264373779296875,-0.013458251953125,-0.0914306640625
1667857273207225300,5.195225341796875,-0.9229583740234375,-0.041259765625,-0.0131072998046875
1667857273217245400,5.205245361328125,-0.972259521484375,-0.0592041015625,0.099090576171875
1667857273227266300,5.215266357421875,-1.014862060546875,-0.044708251953125,0.16888427734375
1667857273237286400,5.225286376953125,-1.068206787109375,0.0446929931640625,0.169891357421875
1667857273247307300,5.235307373046875,-1.106170654296875,0.1592254638671875,0.1081695556640625
1667857273257327400,5.245327392578125,-1.0879364013671875,0.228302001953125,0.065887451171875
1667857273267348200,5.25534814453125,-1.0465087890625,0.2742767333984375,0.0674591064453125
1667857273277368300,5.265368408203125,-1.0256805419921875,0.3270721435546875,0.0781402587890625
1667857273287391500,5.2753916015625,-1.0127105712890625,0.3627777099609375,0.0710296630859375
1667857273297411300,5.285411376953125,-0.998382568359375,0.39483642578125,0.0657501220703125
1667857273307432400,5.295432373046875,-1.0088958740234375,0.433746337890625,0.07147216796875
1667857273317452500,5.30545263671875,-1.0792999267578125,0.4698638916015625,0.110076904296875
1667857273327473400,5.315473388671875,-1.15203857421875,0.491790771484375,0.1578369140625
1667857273337493500,5.325493408203125,-1.2180633544921875,0.4993438720703125,0.17425537109375
1667857273347514400,5.335514404296875,-1.2606964111328125,0.4988555908203125,0.163299560546875
1667857273357534500,5.345534423828125,-1.2678680419921875,0.49346923828125,0.140869140625
1667857273367555300,5.355555419921875,-1.280487060546875,0.4997100830078125,0.160247802734375
1667857273377575400,5.365575439453125,-1.3744354248046875,0.470123291015625,0.13470458984375
1667857273387596300,5.37559619140625,-1.57318115234375,0.414276123046875,0.1160888671875
1667857273397616400,5.385616455078125,-1.832672119140625,0.3504486083984375,0.0831451416015625
1667857273407637200,5.39563720703125,-2.06671142578125,0.2812042236328125,0.065460205078125
1667857273417657300,5.4056572265625,-2.15460205078125,0.218231201171875,0.06494140625
1667857273427678500,5.415678466796875,-2.113861083984375,0.149383544921875,0.0413970947265625
1667857273437698300,5.4256982421875,-2.0076446533203125,0.1002197265625,0.0343475341796875
1667857273447719400,5.435719482421875,-1.8614044189453125,0.046295166015625,0.0549468994140625
1667857273457739300,5.4457392578125,-1.71405029296875,-0.0147247314453125,0.0768280029296875
1667857273467760400,5.455760498046875,-1.5644989013671875,-0.0514373779296875,0.0960693359375
1667857273477780200,5.4657802734375,-1.4230194091796875,-0.062042236328125,0.10931396484375
1667857273487801300,5.47580126953125,-1.3049163818359375,-0.057830810546875,0.1175689697265625
1667857273497821400,5.485821533203125,-1.2125091552734375,-0.053436279296875,0.13037109375
1667857273507842300,5.49584228515625,-1.144775390625,-0.0576629638671875,0.1217041015625
1667857273517862400,5.5058623046875,-1.08929443359375,-0.0621337890625,0.11175537109375
1667857273527883300,5.51588330078125,-1.0366668701171875,-0.06201171875,0.0988006591796875
1667857273537903400,5.5259033203125,-0.9989166259765625,-0.0588836669921875,0.0882720947265625
1667857273547924500,5.535924560546875,-0.9810028076171875,-0.0654144287109375,0.054931640625
1667857273557944300,5.5459443359375,-0.9918975830078125,-0.0709228515625,0.0565948486328125
1667857273567965400,5.55596533203125,-0.9866943359375,-0.07000732421875,0.06121826171875
1667857273577985300,5.5659853515625,-0.983856201171875,-0.0630035400390625,0.0442962646484375
1667857273588006400,5.57600634765625,-0.9885711669921875,-0.0528411865234375,0.03814697265625
1667857273598026500,5.586026611328125,-0.968994140625,-0.043853759765625,0.035552978515625
1667857273608047400,5.59604736328125,-0.936553955078125,-0.042724609375,0.018280029296875
1667857273618068500,5.606068359375,-0.9033660888671875,-0.0453033447265625,-0.0028839111328125
1667857273628088600,5.616088623046875,-0.873016357421875,-0.0523223876953125,-0.017547607421875
1667857273638109400,5.626109375,-0.8568878173828125,-0.05828857421875,-0.0124664306640625
1667857273648129500,5.636129638671875,-0.8618621826171875,-0.061676025390625,-0.006988525390625
1667857273658150400,5.646150390625,-0.8702545166015625,-0.0629425048828125,-0.012786865234375
1667857273668170500,5.65617041015625,-0.8747100830078125,-0.0554046630859375,-0.017791748046875
1667857273678191400,5.66619140625,-0.87530517578125,-0.0509796142578125,-0.01531982421875
1667857273688211500,5.67621142578125,-0.8630523681640625,-0.0471038818359375,-0.0147247314453125
1667857273698232300,5.686232421875,-0.8328094482421875,-0.0397186279296875,-0.010498046875
1667857273708252400,5.69625244140625,-0.79541015625,-0.0335540771484375,-0.005096435546875
1667857273718273300,5.706273193359375,-0.756683349609375,-0.0307769775390625,0.007171630859375
1667857273728293400,5.71629345703125,-0.728515625,-0.0218353271484375,0.013671875
1667857273738314500,5.726314453125,-0.698150634765625,-0.0130767822265625,0.0101165771484375
1667857273748334300,5.736334228515625,-0.6642913818359375,0.0053558349609375,0.0088043212890625
1667857273758355500,5.74635546875,-0.6379852294921875,0.0299072265625,0.0072174072265625
1667857273768375300,5.756375244140625,-0.613311767578125,0.0484161376953125,-0.000274658203125
1667857273778396400,5.766396484375,-0.5889129638671875,0.06298828125,-0.0072174072265625
1667857273788416500,5.77641650390625,-0.5762481689453125,0.07733154296875,-0.0120697021484375
1667857273798437400,5.786437255859375,-0.570526123046875,0.0893707275390625,-0.0125274658203125
1667857273808457500,5.79645751953125,-0.5682525634765625,0.1004638671875,0.01025390625
1667857273818478300,5.806478271484375,-0.563629150390625,0.1109161376953125,0.0249786376953125
1667857273828498400,5.81649853515625,-0.5579071044921875,0.1281890869140625,0.025726318359375
1667857273838519300,5.826519287109375,-0.5514984130859375,0.1466827392578125,0.0257720947265625
1667857273848539400,5.836539306640625,-0.542999267578125,0.161346435546875,0.0203704833984375
1667857273858560300,5.846560302734375,-0.5350341796875,0.1719818115234375,0.0160369873046875
1667857273868580400,5.856580322265625,-0.5312957763671875,0.1724090576171875,0.0074005126953125
1667857273878601200,5.866601318359375,-0.5403289794921875,0.1655120849609375,0.0025482177734375
1667857273888621300,5.876621337890625,-0.55877685546875,0.146331787109375,-0.00335693359375
1667857273898642200,5.88664208984375,-0.584228515625,0.1163787841796875,-0.0168304443359375
1667857273908662300,5.896662353515625,-0.614044189453125,0.0850982666015625,-0.0295867919921875
1667857273918683400,5.906683349609375,-0.6424560546875,0.06463623046875,-0.0311126708984375
1667857273928703200,5.916703125,-0.6790771484375,0.0490264892578125,-0.0305633544921875
1667857273938724600,5.926724609375,-0.7182159423828125,0.037506103515625,-0.0351104736328125
1667857273948745500,5.936745361328125,-0.7508697509765625,0.02801513671875,-0.0404205322265625
1667857273958765600,5.946765625,-0.7794952392578125,0.0236358642578125,-0.04400634765625
1667857273968786400,5.956786376953125,-0.8072662353515625,0.0193328857421875,-0.0449981689453125
1667857273978806500,5.966806640625,-0.8300018310546875,0.016448974609375,-0.0456390380859375
1667857273988827400,5.976827392578125,-0.8554534912109375,0.014404296875,-0.0465545654296875
1667857273998847500,5.986847412109375,-0.88873291015625,0.014984130859375,-0.0543365478515625
1667857274008868400,5.996868408203125,-0.913818359375,0.018951416015625,-0.0631103515625
1667857274018888400,6.006888427734375,-0.9329071044921875,0.0213775634765625,-0.0593109130859375
1667857274028909600,6.01690966796875,-0.954925537109375,0.0159912109375,-0.0527191162109375
1667857274038929400,6.026929443359375,-0.9808197021484375,0.0025482177734375,-0.0481414794921875
1667857274048950500,6.036950439453125,-1.007598876953125,-0.0166473388671875,-0.044464111328125
1667857274058969900,6.046969970703125,-1.036102294921875,-0.0443115234375,-0.0391693115234375
1667857274068991000,6.056990966796875,-1.05548095703125,-0.0736236572265625,-0.038604736328125
1667857274079011000,6.067010986328125,-1.063934326171875,-0.0997161865234375,-0.0377349853515625
1667857274089032000,6.077031982421875,-1.0607757568359375,-0.11737060546875,-0.035003662109375
1667857274099052000,6.087052001953125,-1.0496978759765625,-0.1310882568359375,-0.0344696044921875
1667857274109073000,6.097072998046875,-1.041351318359375,-0.1413116455078125,-0.0342254638671875
1667857274119093000,6.107093017578125,-1.0350494384765625,-0.146881103515625,-0.0332183837890625
1667857274129113900,6.11711376953125,-1.03436279296875,-0.14764404296875,-0.029998779296875
1667857274139134000,6.127134033203125,-1.0251617431640625,-0.1509246826171875,-0.0311279296875
1667857274149154800,6.13715478515625,-1.0157623291015625,-0.1540679931640625,-0.03192138671875
1667857274159175000,6.1471748046875,-1.0155029296875,-0.153472900390625,-0.029144287109375
1667857274169195800,6.15719580078125,-1.0207366943359375,-0.15277099609375,-0.0279998779296875
1667857274179216000,6.1672158203125,-1.020721435546875,-0.1438751220703125,-0.029083251953125
1667857274189237000,6.177237060546875,-1.0096435546875,-0.134765625,-0.0299224853515625
1667857274199256800,6.1872568359375,-0.993408203125,-0.13348388671875,-0.0285186767578125
1667857274209278000,6.19727783203125,-0.9727630615234375,-0.136688232421875,-0.028076171875
1667857274219297800,6.2072978515625,-0.951690673828125,-0.1399078369140625,-0.025848388671875
1667857274229319000,6.21731884765625,-0.930999755859375,-0.1346893310546875,-0.0202789306640625
1667857274239338800,6.2273388671875,-0.9163818359375,-0.1243438720703125,-0.0218505859375
1667857274249360000,6.23735986328125,-0.9062042236328125,-0.112060546875,-0.0249786376953125
1667857274259380000,6.2473798828125,-0.8974456787109375,-0.0988922119140625,-0.0277862548828125
1667857274269400800,6.25740087890625,-0.8881072998046875,-0.086029052734375,-0.030426025390625
1667857274279421700,6.267421630859375,-0.8780364990234375,-0.0742034912109375,-0.0351104736328125
1667857274289441800,6.27744189453125,-0.8591461181640625,-0.067230224609375,-0.0395660400390625
1667857274299463000,6.287462890625,-0.8384552001953125,-0.063812255859375,-0.0387115478515625
1667857274309482800,6.297482666015625,-0.824462890625,-0.056549072265625,-0.0375518798828125
1667857274319504000,6.30750390625,-0.814666748046875,-0.0523834228515625,-0.0381011962890625
1667857274329523700,6.317523681640625,-0.7845306396484375,-0.0481719970703125,-0.0431671142578125
1667857274339545000,6.327545166015625,-0.751312255859375,-0.0406341552734375,-0.038909912109375
1667857274349564700,6.337564697265625,-0.7265625,-0.0277557373046875,-0.0337066650390625
1667857274359586000,6.3475859375,-0.707611083984375,-0.0027618408203125,-0.0311279296875
1667857274369606100,6.357606201171875,-0.6982879638671875,0.0260467529296875,-0.0319671630859375
1667857274379627000,6.367626953125,-0.695281982421875,0.048919677734375,-0.0392608642578125
1667857274389647000,6.377647216796875,-0.67877197265625,0.063751220703125,-0.0418243408203125
1667857274399668000,6.38766796875,-0.678375244140625,0.0701751708984375,-0.0458221435546875
1667857274409688000,6.39768798828125,-0.6692047119140625,0.0748748779296875,-0.0450592041015625
1667857274419709000,6.407708984375,-0.65045166015625,0.07293701171875,-0.0420074462890625
1667857274429729000,6.41772900390625,-0.6293182373046875,0.0671539306640625,-0.037506103515625
1667857274439750000,6.42775,-0.618682861328125,0.064056396484375,-0.0319061279296875
1667857274449770000,6.43777001953125,-0.6152801513671875,0.0682525634765625,-0.02740478515625
1667857274459790800,6.447790771484375,-0.6207427978515625,0.075225830078125,-0.0226898193359375
1667857274469811000,6.45781103515625,-0.6382598876953125,0.075225830078125,-0.0165863037109375
1667857274479831800,6.467831787109375,-0.67498779296875,0.0655364990234375,-0.0165252685546875
1667857274489852000,6.477851806640625,-0.7261962890625,0.0552825927734375,-0.030487060546875
1667857274499873000,6.487873046875,-0.761444091796875,0.0504608154296875,-0.0372467041015625
1667857274509892900,6.497892822265625,-0.7801055908203125,0.05853271484375,-0.0299224853515625
1667857274519914000,6.5079140625,-0.7900543212890625,0.0816650390625,-0.027313232421875
1667857274529933800,6.517933837890625,-0.80322265625,0.1174774169921875,-0.033782958984375
1667857274539955000,6.527954833984375,-0.829315185546875,0.143524169921875,-0.047027587890625
1667857274549975000,6.53797509765625,-0.87628173828125,0.14324951171875,-0.0649566650390625
1667857274559996000,6.547995849609375,-0.9192047119140625,0.125030517578125,-0.076202392578125
1667857274570016000,6.55801611328125,-0.9393463134765625,0.1029815673828125,-0.067413330078125
1667857274580036900,6.568036865234375,-0.9397430419921875,0.087127685546875,-0.0496826171875
1667857274590057700,6.5780576171875,-0.912628173828125,0.0780029296875,-0.0520477294921875
1667857274600077800,6.588077880859375,-0.89813232421875,0.0762176513671875,-0.0708770751953125
1667857274610099000,6.598098876953125,-0.9312286376953125,0.0900115966796875,-0.0880279541015625
1667857274620118800,6.608118896484375,-0.9998779296875,0.1057586669921875,-0.10418701171875
1667857274630140000,6.618139892578125,-1.089996337890625,0.121734619140625,-0.1214752197265625
1667857274640159700,6.62815966796875,-1.2156829833984375,0.1201324462890625,-0.1425018310546875
1667857274650180900,6.638180908203125,-1.334869384765625,0.0911712646484375,-0.1807708740234375
1667857274660201000,6.648200927734375,-1.4340362548828125,0.0271453857421875,-0.210601806640625
1667857274670221800,6.658221923828125,-1.5003814697265625,-0.0522918701171875,-0.19873046875
1667857274680242000,6.668241943359375,-1.5414581298828125,-0.1091156005859375,-0.15948486328125
1667857274690262800,6.6782626953125,-1.5700225830078125,-0.12872314453125,-0.111083984375
1667857274700283000,6.688282958984375,-1.573699951171875,-0.1133270263671875,-0.0799560546875
1667857274710304000,6.698303955078125,-1.497314453125,-0.103363037109375,-0.15826416015625
1667857274720323800,6.70832373046875,-1.4026336669921875,-0.2339935302734375,-0.590545654296875
1667857274730345000,6.718344970703125,-1.6419219970703125,-0.441436767578125,-1.1671600341796875
1667857274740364800,6.72836474609375,-2.0307159423828125,-0.4219512939453125,-1.289215087890625
1667857274750386000,6.738385986328125,-2.3045806884765625,-0.1593017578125,-0.6839599609375
1667857274760406000,6.748406005859375,-2.175689697265625,0.0254669189453125,0.045135498046875
1667857274770427000,6.758427001953125,-1.7373046875,0.021820068359375,0.348968505859375
1667857274780447000,6.768447021484375,-1.338592529296875,-0.03875732421875,0.4073333740234375
1667857274790468000,6.778468017578125,-0.9593505859375,0.002410888671875,0.452972412109375
1667857274800488000,6.788488037109375,-0.730194091796875,0.0721282958984375,0.4906005859375
1667857274810509000,6.798509033203125,-0.7171630859375,0.08514404296875,0.3958587646484375
1667857274820529000,6.80852880859375,-0.7941131591796875,0.063507080078125,0.1187591552734375
1667857274830550000,6.818550048828125,-0.9286346435546875,0.0614776611328125,-0.13275146484375
1667857274840569900,6.82856982421875,-1.0932464599609375,0.1317596435546875,-0.2769927978515625
1667857274850591000,6.838591064453125,-1.22808837890625,0.2222442626953125,-0.3729400634765625
1667857274860611000,6.848611083984375,-1.2707672119140625,0.3003692626953125,-0.400787353515625
1667857274870632000,6.8586318359375,-1.20111083984375,0.363006591796875,-0.323577880859375
1667857274880652000,6.868652099609375,-1.1045379638671875,0.3817901611328125,-0.21514892578125
1667857274890673000,6.8786728515625,-1.031982421875,0.3543853759765625,-0.12664794921875
1667857274900693000,6.88869287109375,-1.0491485595703125,0.2957000732421875,-0.03472900390625
1667857274910713900,6.8987138671875,-1.1131744384765625,0.238525390625,0.0329437255859375
1667857274920734000,6.90873388671875,-1.1934661865234375,0.204193115234375,0.038604736328125
1667857274930754800,6.9187548828125,-1.2637481689453125,0.193511962890625,-0.006500244140625
1667857274940776000,6.92877587890625,-1.2680816650390625,0.203125,-0.0812225341796875
1667857274950795800,6.938795654296875,-1.220703125,0.2313079833984375,-0.1375732421875
1667857274960817000,6.94881689453125,-1.178192138671875,0.2551116943359375,-0.156829833984375
1667857274970837000,6.9588369140625,-1.16693115234375,0.2574310302734375,-0.1378173828125
1667857274980857900,6.96885791015625,-1.1621551513671875,0.2454376220703125,-0.104400634765625
1667857274990878000,6.9788779296875,-1.14288330078125,0.2331085205078125,-0.087158203125
1667857275000898800,6.98889892578125,-1.1206817626953125,0.2150115966796875,-0.0815887451171875
1667857275010919000,6.9989189453125,-1.1016693115234375,0.16363525390625,-0.0828399658203125
1667857275020939800,7.008939697265625,-1.0787506103515625,0.0850982666015625,-0.0614471435546875
1667857275030959900,7.0189599609375,-1.0661163330078125,0.0014190673828125,-0.01806640625
1667857275040980700,7.028980712890625,-1.060699462890625,-0.064544677734375,-0.009674072265625
1667857275051000800,7.039000732421875,-1.0493621826171875,-0.10369873046875,-0.023040771484375
1667857275061022000,7.04902197265625,-1.023590087890625,-0.10687255859375,-0.0476531982421875
1667857275071042000,7.0590419921875,-0.978790283203125,-0.077667236328125,-0.0698394775390625
1667857275081063000,7.06906298828125,-0.8919219970703125,-0.0339813232421875,-0.077545166015625
1667857275091083000,7.0790830078125,-0.7721405029296875,0.007598876953125,-0.0673828125
1667857275101104000,7.089104248046875,-0.6702880859375,0.02392578125,-0.0548248291015625
1667857275111124000,7.0991240234375,-0.61346435546875,0.014862060546875,-0.0476837158203125
1667857275121145000,7.10914501953125,-0.6068572998046875,-0.0129852294921875,-0.0325775146484375
1667857275131165000,7.1191650390625,-0.625244140625,-0.0624847412109375,-0.0330047607421875
1667857275141186000,7.12918603515625,-0.66741943359375,-0.1352996826171875,-0.040863037109375
1667857275151206100,7.1392060546875,-0.7327423095703125,-0.197357177734375,-0.0298919677734375
1667857275161227300,7.149227294921875,-0.82159423828125,-0.2484283447265625,-0.0204620361328125
1667857275171247000,7.1592470703125,-0.8986053466796875,-0.283843994140625,-0.0188140869140625
1667857275181268200,7.169268310546875,-0.9627838134765625,-0.3065338134765625,-0.0208587646484375
1667857275191288000,7.1792880859375,-1.0146026611328125,-0.3238372802734375,-0.0299224853515625
1667857275201309200,7.18930908203125,-1.057586669921875,-0.33990478515625,-0.0470428466796875
1667857275211330000,7.199330078125,-1.0883331298828125,-0.3632965087890625,-0.0707855224609375
1667857275221350100,7.20935009765625,-1.1070556640625,-0.3978271484375,-0.077911376953125
1667857275231370200,7.219370361328125,-1.1092529296875,-0.424560546875,-0.07269287109375
1667857275241391000,7.22939111328125,-1.1069793701171875,-0.4401702880859375,-0.0577850341796875
1667857275251412200,7.239412109375,-1.1023712158203125,-0.4531097412109375,-0.0328521728515625
1667857275261432000,7.24943212890625,-1.07513427734375,-0.4668426513671875,-0.01153564453125
1667857275271453200,7.259453125,-1.0294647216796875,-0.464630126953125,-0.001312255859375
1667857275281473300,7.269473388671875,-0.987945556640625,-0.434539794921875,0.001190185546875
1667857275291494100,7.279494140625,-0.9579620361328125,-0.3907012939453125,-0.025115966796875
1667857275301514200,7.28951416015625,-0.91693115234375,-0.340850830078125,-0.044647216796875
1667857275311535000,7.29953515625,-0.87115478515625,-0.2948150634765625,-0.0514678955078125
1667857275321555200,7.30955517578125,-0.8321380615234375,-0.2611236572265625,-0.068817138671875
1667857275331576000,7.319576171875,-0.8077392578125,-0.2424468994140625,-0.088134765625
1667857275341596200,7.32959619140625,-0.797576904296875,-0.237701416015625,-0.101318359375
1667857275351617000,7.339616943359375,-0.800445556640625,-0.235382080078125,-0.110626220703125
1667857275361637000,7.34963720703125,-0.8102569580078125,-0.232208251953125,-0.1153564453125
1667857275371658000,7.359657958984375,-0.8201751708984375,-0.2210845947265625,-0.1239013671875
1667857275381678000,7.369677978515625,-0.8263702392578125,-0.20233154296875,-0.124786376953125
1667857275391699200,7.37969921875,-0.833251953125,-0.186187744140625,-0.1120758056640625
1667857275401719000,7.389718994140625,-0.8544464111328125,-0.1789398193359375,-0.0975341796875
1667857275411740200,7.399740234375,-0.889862060546875,-0.1804962158203125,-0.0774078369140625
1667857275421760000,7.409760009765625,-0.937591552734375,-0.1903076171875,-0.0531005859375
1667857275431781000,7.419781005859375,-0.975341796875,-0.21337890625,-0.023040771484375
1667857275441801000,7.429801025390625,-1.0037994384765625,-0.24462890625,-0.00054931640625
1667857275451822000,7.439822021484375,-1.0263824462890625,-0.269378662109375,0.0228118896484375
1667857275461842200,7.44984228515625,-1.0349273681640625,-0.2922210693359375,0.0518341064453125
1667857275471863000,7.459863037109375,-1.0443115234375,-0.3121185302734375,0.0651092529296875
1667857275481883100,7.469883056640625,-1.0504150390625,-0.3285980224609375,0.0631256103515625
1667857275491904000,7.479904052734375,-1.0590362548828125,-0.33251953125,0.0637969970703125
1667857275501924000,7.489924072265625,-1.05950927734375,-0.3276519775390625,0.060302734375
1667857275511945000,7.499945068359375,-1.0513153076171875,-0.31817626953125,0.0593109130859375
1667857275521966300,7.50996630859375,-1.040283203125,-0.3048553466796875,0.0547637939453125
1667857275531986000,7.51998583984375,-1.0302581787109375,-0.297149658203125,0.0430145263671875
1667857275542007300,7.53000732421875,-1.0199737548828125,-0.294403076171875,0.03485107421875
1667857275552027100,7.540027099609375,-1.0089111328125,-0.2872772216796875,0.029449462890625
1667857275562048300,7.55004833984375,-1.002532958984375,-0.2798919677734375,0.0265350341796875
1667857275572068000,7.560068115234375,-0.9912872314453125,-0.27655029296875,0.023468017578125
1667857275582089200,7.570089111328125,-0.979400634765625,-0.272216796875,0.0224456787109375
1667857275592109300,7.580109375,-0.97344970703125,-0.26763916015625,0.018310546875
1667857275602130200,7.590130126953125,-0.965911865234375,-0.260101318359375,0.01873779296875
1667857275612150300,7.600150390625,-0.9569549560546875,-0.253814697265625,0.01220703125
1667857275622171100,7.610171142578125,-0.9420318603515625,-0.2517242431640625,0.0033111572265625
1667857275632191200,7.620191162109375,-0.922027587890625,-0.2530975341796875,0.0089874267578125
1667857275642212000,7.630212158203125,-0.9056243896484375,-0.2566986083984375,0.01910400390625
1667857275652232200,7.640232177734375,-0.9015350341796875,-0.2682952880859375,0.0195159912109375
1667857275662253000,7.650253173828125,-0.9072265625,-0.278778076171875,0.015380859375
1667857275672273200,7.660273193359375,-0.9083404541015625,-0.2923126220703125,0.011566162109375
1667857275682294000,7.6702939453125,-0.902740478515625,-0.3019866943359375,0.0186309814453125
1667857275692314000,7.680314208984375,-0.8997650146484375,-0.3114013671875,0.0290374755859375
1667857275702335200,7.690335205078125,-0.902313232421875,-0.322784423828125,0.040374755859375
1667857275712355000,7.70035498046875,-0.91748046875,-0.3307037353515625,0.0485076904296875
1667857275722376200,7.710376220703125,-0.941925048828125,-0.3398895263671875,0.04547119140625
1667857275732396000,7.72039599609375,-0.9480133056640625,-0.3424530029296875,0.026885986328125
1667857275742417200,7.730417236328125,-0.9332733154296875,-0.3372802734375,0.017120361328125
1667857275752437000,7.74043701171875,-0.9264984130859375,-0.327667236328125,0.0244140625
1667857275762458000,7.7504580078125,-0.929443359375,-0.32354736328125,0.0276031494140625
1667857275772478200,7.760478271484375,-0.9434051513671875,-0.32080078125,0.025390625
1667857275782499000,7.7704990234375,-0.958831787109375,-0.3184356689453125,0.020355224609375
1667857275792520000,7.78052001953125,-0.9635162353515625,-0.3100128173828125,0.018157958984375
1667857275802540000,7.7905400390625,-0.957275390625,-0.298858642578125,0.0150604248046875
1667857275812561200,7.80056103515625,-0.9567718505859375,-0.2891082763671875,0.0140380859375
1667857275822581000,7.8105810546875,-0.954833984375,-0.2786102294921875,0.0167999267578125
1667857275832602000,7.82060205078125,-0.9553985595703125,-0.269287109375,0.0193634033203125
1667857275842622000,7.8306220703125,-0.9619903564453125,-0.26324462890625,0.021087646484375
1667857275852643000,7.84064306640625,-0.966949462890625,-0.259735107421875,0.0211639404296875
1667857275862663000,7.850662841796875,-0.9667205810546875,-0.262908935546875,0.0201873779296875
1667857275872684000,7.86068408203125,-0.966522216796875,-0.269012451171875,0.0239715576171875
1667857275882704100,7.8707041015625,-0.9661102294921875,-0.27313232421875,0.02349853515625
1667857275892725200,7.880725341796875,-0.9685211181640625,-0.2743682861328125,0.023681640625
1667857275902745000,7.8907451171875,-0.968414306640625,-0.269317626953125,0.0255126953125
1667857275912766200,7.90076611328125,-0.9720306396484375,-0.264129638671875,0.0289764404296875
1667857275922786000,7.9107861328125,-0.9652557373046875,-0.266448974609375,0.0303497314453125
1667857275932807200,7.92080712890625,-0.94805908203125,-0.2725830078125,0.0274810791015625
1667857275942827300,7.9308271484375,-0.9440155029296875,-0.2776031494140625,0.0231781005859375
1667857275952848100,7.94084814453125,-0.9413299560546875,-0.2801055908203125,0.0216064453125
1667857275962868200,7.9508681640625,-0.930694580078125,-0.2785186767578125,0.028717041015625
1667857275972889000,7.96088916015625,-0.9169158935546875,-0.275390625,0.0229034423828125
1667857275982909200,7.9709091796875,-0.906982421875,-0.2787933349609375,0.0196380615234375
1667857275992930000,7.980929931640625,-0.9113006591796875,-0.2840728759765625,0.0176544189453125
1667857276002950100,7.9909501953125,-0.9212799072265625,-0.291900634765625,0.0201416015625
1667857276012971300,8.00097119140625,-0.9239959716796875,-0.296539306640625,0.023162841796875
1667857276022991000,8.0109912109375,-0.924591064453125,-0.29168701171875,0.028839111328125
1667857276033012200,8.02101220703125,-0.92315673828125,-0.2829437255859375,0.02984619140625
1667857276043032000,8.031031982421876,-0.91400146484375,-0.2676239013671875,0.0266265869140625
1667857276053053200,8.04105322265625,-0.901214599609375,-0.252044677734375,0.0288238525390625
1667857276063073300,8.0510732421875,-0.8862762451171875,-0.2447509765625,0.036376953125
1667857276073094400,8.061094482421876,-0.8644561767578125,-0.2471466064453125,0.0382843017578125
1667857276083115300,8.071115234375,-0.836944580078125,-0.251556396484375,0.0418548583984375
1667857276093135400,8.08113525390625,-0.8134613037109375,-0.2592620849609375,0.052032470703125
1667857276103156200,8.09115625,-0.78900146484375,-0.2573089599609375,0.0607147216796875
1667857276113176300,8.10117626953125,-0.77056884765625,-0.2498931884765625,0.059173583984375
1667857276123197400,8.111197509765624,-0.7453460693359375,-0.24273681640625,0.05584716796875
1667857276133217300,8.12121728515625,-0.729461669921875,-0.2364501953125,0.0443878173828125
1667857276143238400,8.13123828125,-0.7101287841796875,-0.234588623046875,0.0203857421875
1667857276153258200,8.14125830078125,-0.690277099609375,-0.22955322265625,-0.022369384765625
1667857276163279400,8.151279296875,-0.6821136474609375,-0.215972900390625,-0.0614471435546875
1667857276173299200,8.16129931640625,-0.6809844970703125,-0.214691162109375,-0.087158203125
1667857276183320600,8.171320556640625,-0.6811981201171875,-0.2310791015625,-0.1326446533203125
1667857276193340400,8.18134033203125,-0.706756591796875,-0.255615234375,-0.17462158203125
1667857276203361500,8.191361572265626,-0.8108367919921875,-0.2718963623046875,-0.1537628173828125
1667857276213381400,8.20138134765625,-0.9777984619140625,-0.260955810546875,-0.1023712158203125
1667857276223402500,8.211402587890625,-1.1646728515625,-0.2665252685546875,-0.0842742919921875
1667857276233422600,8.221422607421875,-1.3682861328125,-0.280792236328125,-0.089813232421875
1667857276243443500,8.231443359375,-1.52587890625,-0.2681732177734375,-0.1268157958984375
1667857276253463600,8.241463623046876,-1.61676025390625,-0.2475128173828125,-0.14794921875
1667857276263484400,8.251484375,-1.6065521240234375,-0.21771240234375,-0.1350555419921875
1667857276273504500,8.26150439453125,-1.5650482177734375,-0.1734161376953125,-0.0803375244140625
1667857276283525400,8.271525390625,-1.439910888671875,-0.1101226806640625,-0.0876922607421875
1667857276293545500,8.28154541015625,-1.25555419921875,-0.05511474609375,-0.1983489990234375
1667857276303566300,8.29156640625,-1.035125732421875,0.0897979736328125,-0.1675262451171875
1667857276313586400,8.30158642578125,-0.8162841796875,0.1535797119140625,-0.0077056884765625
1667857276323607600,8.311607666015625,-0.6124114990234375,0.057891845703125,0.092041015625
1667857276333627400,8.32162744140625,-0.4411163330078125,-0.0264434814453125,0.225067138671875
1667857276343648500,8.3316484375,-0.5238494873046875,0.016845703125,0.2894744873046875
1667857276353669400,8.34166943359375,-0.8079376220703125,0.0968780517578125,0.1988067626953125
1667857276363689500,8.351689453125,-1.159515380859375,0.16961669921875,0.0966796875
1667857276373710300,8.36171044921875,-1.442718505859375,0.2297821044921875,-0.015350341796875
1667857276383730400,8.37173046875,-1.507904052734375,0.262054443359375,-0.05548095703125
1667857276393751300,8.381751220703125,-1.464263916015625,0.32452392578125,-0.006256103515625
1667857276403771400,8.391771484375,-1.3709869384765625,0.3987884521484375,0.010101318359375
1667857276413792300,8.401792236328125,-1.2454833984375,0.4735260009765625,0.0164337158203125
1667857276423812400,8.411812255859376,-1.14862060546875,0.5309295654296875,0.0224609375
1667857276433833500,8.42183349609375,-1.0948028564453125,0.5752410888671875,0.0279388427734375
1667857276443853300,8.431853271484375,-1.085906982421875,0.6106414794921875,0.0320587158203125
1667857276453874400,8.44187451171875,-1.1220855712890625,0.6336212158203125,0.040924072265625
1667857276463894300,8.451894287109376,-1.15863037109375,0.629730224609375,0.0281219482421875
1667857276473915400,8.461915283203124,-1.2121734619140625,0.607025146484375,0.0318756103515625
1667857276483935200,8.471935302734375,-1.298736572265625,0.5959320068359375,0.093353271484375
1667857276493956400,8.481956298828125,-1.3985443115234375,0.5609130859375,0.1732635498046875
1667857276503976400,8.4919765625,-1.4873504638671875,0.4919586181640625,0.2240447998046875
1667857276513997300,8.501997314453124,-1.61700439453125,0.40478515625,0.2381591796875
1667857276524017400,8.512017333984375,-1.789886474609375,0.3023834228515625,0.2404937744140625
1667857276534038300,8.522038330078125,-1.8720703125,0.2868194580078125,0.2595977783203125
1667857276544058400,8.532058349609375,-1.868194580078125,0.2454833984375,0.2322540283203125
1667857276554079200,8.542079345703126,-1.841094970703125,0.16357421875,0.18511962890625
1667857276564099300,8.552099365234374,-1.756256103515625,0.0820159912109375,0.13104248046875
1667857276574120400,8.562120361328125,-1.615875244140625,-0.0013580322265625,0.101654052734375
1667857276584140300,8.572140380859375,-1.4800567626953125,-0.073822021484375,0.0669097900390625
1667857276594161400,8.582161376953126,-1.3930511474609375,-0.130950927734375,0.056243896484375
1667857276604181200,8.59218115234375,-1.300628662109375,-0.17706298828125,0.0332489013671875
1667857276614202600,8.60220263671875,-1.1451873779296875,-0.243377685546875,-0.0001373291015625
1667857276624223500,8.612223388671875,-1.0165557861328125,-0.3019561767578125,-0.0089111328125
1667857276634243600,8.62224365234375,-0.9607696533203125,-0.3190460205078125,0.0031585693359375
1667857276644264400,8.632264404296874,-0.93389892578125,-0.3274383544921875,0.0152130126953125
1667857276654284500,8.642284423828125,-0.938720703125,-0.325164794921875,0.0048980712890625
1667857276664305400,8.652305419921875,-0.92584228515625,-0.308135986328125,-0.044647216796875
1667857276674325500,8.662325439453125,-0.909423828125,-0.2781524658203125,-0.1096038818359375
1667857276684346400,8.672346435546874,-0.884735107421875,-0.2425384521484375,-0.1461181640625
1667857276694366500,8.682366455078125,-0.868316650390625,-0.201629638671875,-0.1526031494140625
1667857276704387300,8.69238720703125,-0.8816680908203125,-0.1646881103515625,-0.1357269287109375
1667857276714407400,8.702407470703125,-0.90997314453125,-0.138214111328125,-0.119659423828125
1667857276724428300,8.71242822265625,-0.938629150390625,-0.1173248291015625,-0.1126861572265625
1667857276734448400,8.722448486328124,-0.9555206298828125,-0.0988006591796875,-0.110137939453125
1667857276744469500,8.732469482421875,-0.9481201171875,-0.0804901123046875,-0.118316650390625
1667857276754489300,8.7424892578125,-0.923492431640625,-0.05706787109375,-0.1162109375
1667857276764510500,8.752510498046876,-0.893524169921875,-0.041748046875,-0.1026611328125
1667857276774530300,8.7625302734375,-0.853790283203125,-0.0309295654296875,-0.0865325927734375
1667857276784551400,8.772551513671875,-0.802490234375,-0.0314483642578125,-0.06536865234375
1667857276794571500,8.782571533203125,-0.7503509521484375,-0.0315704345703125,-0.0532684326171875
1667857276804592400,8.79259228515625,-0.7168731689453125,-0.0247650146484375,-0.05572509765625
1667857276814612500,8.802612548828124,-0.7030029296875,-0.0133209228515625,-0.06689453125
1667857276824633300,8.81263330078125,-0.688385009765625,-0.008331298828125,-0.06964111328125
1667857276834653400,8.8226533203125,-0.65380859375,0.0004730224609375,-0.064727783203125
1667857276844674300,8.83267431640625,-0.61273193359375,0.0202178955078125,-0.061920166015625
1667857276854693400,8.842693359375,-0.5790863037109375,0.043548583984375,-0.060577392578125
1667857276864713500,8.85271337890625,-0.5557098388671875,0.0686492919921875,-0.0569610595703125
1667857276874734300,8.862734375,-0.547454833984375,0.0963287353515625,-0.049072265625
1667857276884754400,8.87275439453125,-0.5542449951171875,0.1282958984375,-0.04779052734375
1667857276894775300,8.882775390625,-0.57489013671875,0.16668701171875,-0.0474090576171875
1667857276904795400,8.89279541015625,-0.60552978515625,0.20343017578125,-0.03179931640625
1667857276914816300,8.902816162109374,-0.6212005615234375,0.2292327880859375,-0.0247955322265625
1667857276924836400,8.91283642578125,-0.6246490478515625,0.251220703125,-0.01458740234375
1667857276934857500,8.922857421875,-0.631683349609375,0.2747955322265625,0.0109710693359375
1667857276944877300,8.932877197265626,-0.6295166015625,0.3005828857421875,0.0316925048828125
1667857276954898400,8.9428984375,-0.62353515625,0.312408447265625,0.0408782958984375
1667857276964918300,8.952918212890625,-0.614501953125,0.2962188720703125,0.0435333251953125
1667857276974939400,8.962939453125,-0.6304168701171875,0.271881103515625,0.01629638671875
1667857276984959500,8.97295947265625,-0.6679229736328125,0.24212646484375,-0.00640869140625
1667857276994980400,8.98298046875,-0.7245330810546875,0.1976165771484375,-0.017852783203125
1667857277005001200,8.993001220703125,-0.7701568603515625,0.143524169921875,-0.0120849609375
1667857277015021300,9.003021240234375,-0.805999755859375,0.0756683349609375,0.0007781982421875
1667857277025042200,9.013042236328126,-0.821502685546875,0.0098114013671875,-0.001495361328125
1667857277035062300,9.023062255859376,-0.831817626953125,-0.0407867431640625,-0.0117340087890625
1667857277045083400,9.03308349609375,-0.843841552734375,-0.071502685546875,-0.005218505859375
1667857277055103200,9.043103271484375,-0.84356689453125,-0.0868682861328125,0.0124359130859375
1667857277065123600,9.05312353515625,-0.848907470703125,-0.0829620361328125,0.0317230224609375
1667857277075143700,9.063143798828126,-0.857421875,-0.0599365234375,0.040374755859375
1667857277085164500,9.07316455078125,-0.8803863525390625,-0.028717041015625,0.0445098876953125
1667857277095184600,9.0831845703125,-0.903350830078125,-0.0003204345703125,0.045623779296875
1667857277105205500,9.09320556640625,-0.930389404296875,0.01904296875,0.0400390625
1667857277115225600,9.1032255859375,-0.963470458984375,0.0193023681640625,0.0317535400390625
1667857277125246500,9.11324658203125,-0.9842071533203125,0.0061492919921875,0.015960693359375
1667857277135266600,9.1232666015625,-0.998016357421875,0.00103759765625,0.0012054443359375
1667857277145287400,9.133287353515625,-1.008819580078125,-0.00299072265625,-0.0152587890625
1667857277155307500,9.1433076171875,-1.0152587890625,-0.0074462890625,-0.028076171875
1667857277165328400,9.153328369140626,-1.01605224609375,-0.00872802734375,-0.0339813232421875
1667857277175348500,9.163348388671874,-1.006988525390625,-0.0147247314453125,-0.039215087890625
1667857277185369900,9.173369873046875,-0.989166259765625,-0.02294921875,-0.0462493896484375
1667857277195389400,9.183389404296875,-0.9750823974609375,-0.03253173828125,-0.0526580810546875
1667857277205410800,9.193410888671876,-0.96258544921875,-0.036712646484375,-0.0522003173828125
1667857277215430400,9.203430419921874,-0.9451446533203125,-0.0324249267578125,-0.0503692626953125
1667857277225451800,9.21345166015625,-0.9336395263671875,-0.019256591796875,-0.0418853759765625
1667857277235471600,9.2234716796875,-0.9315032958984375,-0.0053253173828125,-0.032684326171875
1667857277245492700,9.23349267578125,-0.93670654296875,0.004150390625,-0.025177001953125
1667857277255512800,9.243512939453124,-0.94329833984375,0.0133209228515625,-0.02093505859375
1667857277265534700,9.25353466796875,-0.9484405517578125,0.01702880859375,-0.01312255859375
1667857277275554600,9.263554443359375,-0.9552154541015625,0.01513671875,0.0032196044921875
1667857277285575700,9.27357568359375,-0.9614715576171875,0.0069580078125,0.018402099609375
1667857277295595500,9.283595458984376,-0.959228515625,0.000823974609375,0.0264129638671875
1667857277305616600,9.29361669921875,-0.9493865966796875,-0.005615234375,0.0291900634765625
1667857277315636700,9.30363671875,-0.9430999755859375,-0.013458251953125,0.0248260498046875
1667857277325657600,9.31365771484375,-0.932281494140625,-0.01617431640625,0.016387939453125
1667857277335677700,9.323677734375,-0.9243316650390625,-0.011871337890625,0.005615234375
1667857277345698600,9.333698486328124,-0.91778564453125,-0.004241943359375,-0.005126953125
1667857277355718700,9.34371875,-0.9072418212890625,0.0048065185546875,-0.013336181640625
1667857277365739500,9.353739501953125,-0.8990631103515625,0.00604248046875,-0.0174102783203125
1667857277375759600,9.363759521484376,-0.8818359375,0.0085296630859375,-0.0169677734375
1667857277385780500,9.373780517578124,-0.854339599609375,0.0084686279296875,-0.01953125
1667857277395800600,9.383800537109375,-0.831756591796875,0.0078277587890625,-0.0155181884765625
1667857277405821400,9.393821533203125,-0.81634521484375,0.007659912109375,-0.0138092041015625
1667857277415841500,9.403841552734375,-0.8093719482421875,0.0135498046875,-0.014892578125
1667857277425862700,9.413862548828124,-0.8088226318359375,0.025726318359375,-0.01629638671875
1667857277435882500,9.423882568359375,-0.80810546875,0.0372314453125,-0.0138702392578125
1667857277445903600,9.433903564453125,-0.8087310791015625,0.04620361328125,-0.0185699462890625
1667857277455923500,9.44392333984375,-0.8110198974609375,0.052520751953125,-0.0273895263671875
1667857277465944600,9.453944580078126,-0.805938720703125,0.0463714599609375,-0.0382080078125
1667857277475965400,9.46396533203125,-0.79364013671875,0.040008544921875,-0.055511474609375
1667857277485985500,9.473985595703125,-0.77435302734375,0.0399627685546875,-0.0679473876953125
1667857277496006700,9.484006591796875,-0.7600250244140625,0.047607421875,-0.0739288330078125
1667857277506026500,9.494026611328126,-0.737579345703125,0.0641326904296875,-0.0684661865234375
1667857277516047600,9.504047607421874,-0.7220306396484375,0.0836029052734375,-0.0554962158203125
1667857277526067500,9.5140673828125,-0.71881103515625,0.108001708984375,-0.0364990234375
1667857277536088800,9.5240888671875,-0.73370361328125,0.122589111328125,-0.0176239013671875
1667857277546108700,9.534108642578126,-0.7663726806640625,0.1240692138671875,-0.0013885498046875
1667857277556129800,9.5441298828125,-0.8023529052734375,0.1094970703125,0.011962890625
1667857277566149600,9.554149658203125,-0.839508056640625,0.080047607421875,0.0023651123046875
1667857277576170800,9.564170654296875,-0.887298583984375,0.0409698486328125,-0.0316925048828125
1667857277586190600,9.574190673828125,-0.9239501953125,0.0127105712890625,-0.048553466796875
1667857277596211700,9.584211669921874,-0.923980712890625,0.0810394287109375,-0.01568603515625
1667857277606231800,9.594231689453125,-0.8558197021484375,0.1275787353515625,-0.00665283203125
1667857277616252700,9.604252685546875,-0.805328369140625,0.142791748046875,0.0294342041015625
1667857277626272800,9.614272705078125,-0.7403717041015625,0.1963653564453125,0.040802001953125
1667857277636293600,9.624293701171876,-0.704925537109375,0.2344207763671875,0.0088653564453125
1667857277646313700,9.634313720703124,-0.7056732177734375,0.2406005859375,-0.0320587158203125
1667857277656334600,9.64433447265625,-0.7539215087890625,0.222808837890625,-0.0789031982421875
1667857277666354700,9.654354736328125,-0.787109375,0.163299560546875,-0.13861083984375
1667857277676375600,9.66437548828125,-0.7895660400390625,0.0937957763671875,-0.1258544921875
1667857277686395600,9.674395751953124,-0.81072998046875,0.064056396484375,-0.067718505859375
1667857277696416500,9.68441650390625,-0.8586883544921875,0.06805419921875,0.0014801025390625
1667857277706436600,9.6944365234375,-0.91064453125,0.10357666015625,0.0100250244140625
1667857277716457700,9.704457763671876,-0.960235595703125,0.1509857177734375,-0.04296875
1667857277726478600,9.714478515625,-1.02001953125,0.189453125,-0.1077880859375
1667857277736498700,9.724498779296875,-1.1073760986328125,0.211578369140625,-0.1608123779296875
1667857277746519600,9.73451953125,-1.2115631103515625,0.210357666015625,-0.175140380859375
1667857277756539600,9.74453955078125,-1.29534912109375,0.176239013671875,-0.1588134765625
1667857277766560500,9.754560546875,-1.3228912353515625,0.1295928955078125,-0.1398162841796875
1667857277776580600,9.76458056640625,-1.3496246337890625,0.049591064453125,-0.2963104248046875
1667857277786601500,9.7746015625,-1.551605224609375,-0.116607666015625,-0.7551727294921875
1667857277796621600,9.78462158203125,-2.18133544921875,-0.2471160888671875,-1.10833740234375
1667857277806642400,9.794642333984376,-2.648834228515625,-0.211090087890625,-1.0667266845703125
1667857277816662500,9.80466259765625,-2.4398193359375,-0.0590057373046875,-0.391815185546875
1667857277826683600,9.81468359375,-2.1909332275390625,-0.118927001953125,0.4718170166015625
1667857277836703500,9.824703369140625,-1.95904541015625,-0.3352508544921875,0.9886322021484375
1667857277846724600,9.834724609375,-1.6979217529296875,-0.40631103515625,0.833282470703125
1667857277856744400,9.844744384765624,-1.5638427734375,-0.136199951171875,0.5073394775390625
1667857277866765600,9.854765625,-1.2802581787109375,0.3609466552734375,0.26544189453125
1667857277876785400,9.864785400390625,-0.94244384765625,0.6579742431640625,0.1083984375
1667857277886806800,9.874806884765626,-0.7393035888671875,0.663818359375,-0.0530853271484375
1667857277896826600,9.88482666015625,-0.6774749755859375,0.57415771484375,-0.1815185546875
1667857277906847700,9.89484765625,-0.6733551025390625,0.531036376953125,-0.286712646484375
1667857277916867600,9.90486767578125,-0.6671600341796875,0.526885986328125,-0.322662353515625
1667857277926888700,9.914888671875,-0.7236328125,0.51708984375,-0.284698486328125
1667857277936908800,9.92490869140625,-0.8986968994140625,0.4462738037109375,-0.1959381103515625
1667857277946929700,9.9349296875,-1.1374969482421875,0.330413818359375,-0.0204620361328125
1667857277956949800,9.94494970703125,-1.297515869140625,0.2556915283203125,0.167816162109375
1667857277966970600,9.954970703125,-1.3649749755859375,0.22283935546875,0.2439727783203125
1667857277976991700,9.96499169921875,-1.3809814453125,0.21563720703125,0.131378173828125
1667857277987011600,9.975011474609374,-1.34674072265625,0.2810821533203125,-0.024383544921875
1667857277997032700,9.98503271484375,-1.2758636474609375,0.3846282958984375,-0.1150360107421875
1667857278007052500,9.995052490234375,-1.2036590576171875,0.420166015625,-0.168182373046875
1667857278017073700,10.00507373046875,-1.11590576171875,0.3839263916015625,-0.2016143798828125
1667857278027093800,10.01509375,-1.0201263427734375,0.32421875,-0.197998046875
1667857278037114600,10.025114501953125,-0.911224365234375,0.274871826171875,-0.16986083984375
1667857278047134700,10.035134765625,-0.8363494873046875,0.2506866455078125,-0.1210174560546875
1667857278057155600,10.045155517578126,-0.793121337890625,0.2088470458984375,-0.0561981201171875
1667857278067176200,10.05517626953125,-0.79827880859375,0.1385650634765625,-0.032501220703125
1667857278077197000,10.065197021484375,-0.876251220703125,0.0815277099609375,-0.0367431640625
1667857278087217200,10.075217041015625,-0.9969940185546875,0.05804443359375,-0.0891571044921875
1667857278097238000,10.085238037109375,-1.1463470458984375,0.082611083984375,-0.122161865234375
1667857278107258000,10.095258056640626,-1.22393798828125,0.120269775390625,-0.21002197265625
1667857278117279000,10.105279052734375,-1.212799072265625,0.136474609375,-0.240203857421875
1667857278127299000,10.115299072265625,-1.19476318359375,0.1185302734375,-0.2285919189453125
1667857278137320000,10.12531982421875,-1.1415252685546875,0.10516357421875,-0.2400665283203125
1667857278147340000,10.135340087890626,-1.0666961669921875,0.0926361083984375,-0.22418212890625
1667857278157361200,10.145361083984374,-1.00347900390625,0.042724609375,-0.1748504638671875
1667857278167381000,10.155381103515625,-0.9561309814453125,-0.0255126953125,-0.1294097900390625
1667857278177402000,10.165402099609375,-0.9170379638671875,-0.072357177734375,-0.103912353515625
1667857278187422000,10.175421875,-0.89892578125,-0.1013336181640625,-0.0825347900390625
1667857278197443000,10.185443115234374,-0.88372802734375,-0.1112060546875,-0.0663299560546875
1667857278207463000,10.195462890625,-0.847930908203125,-0.116058349609375,-0.0591888427734375
1667857278217484000,10.205484130859375,-0.8058929443359375,-0.1160888671875,-0.060333251953125
1667857278227505000,10.2155048828125,-0.7406005859375,-0.108917236328125,-0.060394287109375
1667857278237525000,10.22552490234375,-0.669342041015625,-0.0961761474609375,-0.060699462890625
1667857278247545900,10.2355458984375,-0.6295623779296875,-0.0821380615234375,-0.0645294189453125
1667857278257566000,10.24556591796875,-0.6304168701171875,-0.073638916015625,-0.0726318359375
1667857278267587000,10.255587158203125,-0.663604736328125,-0.078704833984375,-0.078369140625
1667857278277607000,10.26560693359375,-0.7246246337890625,-0.07415771484375,-0.0785369873046875
1667857278287628000,10.2756279296875,-0.8010101318359375,-0.075775146484375,-0.0513458251953125
1667857278297647900,10.28564794921875,-0.8771820068359375,-0.0833740234375,-0.027313232421875
1667857278307669000,10.2956689453125,-0.9217987060546875,-0.1000213623046875,-0.019989013671875
1667857278317688800,10.305688720703126,-0.9468994140625,-0.125457763671875,-0.025054931640625
1667857278327710000,10.3157099609375,-0.9747467041015625,-0.1510162353515625,-0.0317535400390625
1667857278337730000,10.32572998046875,-0.978759765625,-0.1732635498046875,-0.049072265625
1667857278347751200,10.335751220703125,-0.9703826904296875,-0.1852569580078125,-0.054290771484375
1667857278357771000,10.34577099609375,-0.968048095703125,-0.1852264404296875,-0.04156494140625
1667857278367792000,10.355792236328124,-0.98321533203125,-0.173919677734375,-0.013641357421875
1667857278377812200,10.365812255859375,-1.016326904296875,-0.1682586669921875,0.0017547607421875
1667857278387833000,10.3758330078125,-1.051849365234375,-0.1786346435546875,0.0023345947265625
1667857278397853200,10.385853271484375,-1.0864715576171875,-0.1890869140625,-0.0002288818359375
1667857278407874000,10.3958740234375,-1.111053466796875,-0.1844940185546875,-0.0059356689453125
1667857278417894100,10.40589404296875,-1.123016357421875,-0.166839599609375,-0.0212860107421875
1667857278427915000,10.4159150390625,-1.124298095703125,-0.13836669921875,-0.0391998291015625
1667857278437935000,10.42593505859375,-1.1245269775390625,-0.1069793701171875,-0.0652618408203125
1667857278447956000,10.4359560546875,-1.127838134765625,-0.087371826171875,-0.093292236328125
1667857278457977000,10.44597705078125,-1.1267242431640625,-0.082427978515625,-0.10479736328125
1667857278467997200,10.4559970703125,-1.1114349365234375,-0.0790252685546875,-0.0939788818359375
1667857278478018000,10.46601806640625,-1.0836334228515625,-0.07794189453125,-0.072967529296875
1667857278488038100,10.4760380859375,-1.0622406005859375,-0.080841064453125,-0.064208984375
1667857278498059000,10.48605908203125,-1.0142059326171875,-0.0790557861328125,-0.080230712890625
1667857278508079000,10.4960791015625,-0.9451751708984375,-0.06463623046875,-0.0984954833984375
1667857278518100000,10.506099853515625,-0.8875885009765625,-0.0527191162109375,-0.097686767578125
1667857278528120000,10.5161201171875,-0.8521270751953125,-0.043426513671875,-0.085723876953125
1667857278538141000,10.526140869140624,-0.841888427734375,-0.040618896484375,-0.07427978515625
1667857278548161000,10.5361611328125,-0.853179931640625,-0.041290283203125,-0.0601043701171875
1667857278558182000,10.546181884765625,-0.8704681396484375,-0.0456695556640625,-0.0502471923828125
1667857278568202000,10.556201904296875,-0.887359619140625,-0.0512237548828125,-0.0406036376953125
1667857278578223000,10.56622314453125,-0.9026336669921875,-0.0552520751953125,-0.0285797119140625
1667857278588243000,10.576242919921874,-0.9237518310546875,-0.06341552734375,-0.013641357421875
1667857278598264000,10.58626416015625,-0.9488372802734375,-0.08294677734375,0.00640869140625
1667857278608284000,10.596283935546875,-0.9804229736328125,-0.107330322265625,0.0229644775390625
1667857278618305000,10.606304931640626,-1.0224151611328125,-0.126312255859375,0.0337371826171875
1667857278628324900,10.616324951171874,-1.0584564208984375,-0.1377105712890625,0.0452880859375
1667857278638346000,10.626345947265625,-1.0788421630859375,-0.1480865478515625,0.045318603515625
1667857278648366000,10.636365966796875,-1.0935821533203125,-0.1521759033203125,0.035186767578125
1667857278658387000,10.646386962890626,-1.111083984375,-0.148101806640625,0.0142974853515625
1667857278668407000,10.656406982421874,-1.116790771484375,-0.139739990234375,0.001953125
1667857278678428000,10.666427978515625,-1.107757568359375,-0.12713623046875,0.0040130615234375
1667857278688449000,10.676448974609375,-1.0999755859375,-0.1055145263671875,0.0046844482421875
1667857278698468900,10.68646875,-1.095062255859375,-0.0872344970703125,-0.0011444091796875
1667857278708490200,10.696490234375,-1.0752105712890625,-0.08380126953125,-0.0130615234375
1667857278718509800,10.706509765625,-1.0453033447265625,-0.0863494873046875,-0.01776123046875
1667857278728531200,10.71653125,-1.013763427734375,-0.089141845703125,-0.017547607421875
1667857278738551000,10.726551025390625,-0.984710693359375,-0.087005615234375,-0.012969970703125
1667857278748572200,10.736572265625,-0.9564056396484375,-0.08056640625,-0.0077667236328125
1667857278758592300,10.74659228515625,-0.9391632080078125,-0.075897216796875,-0.0003814697265625
1667857278768613000,10.756613037109375,-0.9311370849609375,-0.0740966796875,0.0107269287109375
1667857278778633200,10.76663330078125,-0.931488037109375,-0.0752716064453125,0.0150604248046875
1667857278788654000,10.776654052734376,-0.931488037109375,-0.082000732421875,0.019622802734375
1667857278798674200,10.786674072265624,-0.929962158203125,-0.0848388671875,0.0238800048828125
1667857278808695000,10.796695068359375,-0.93719482421875,-0.088165283203125,0.0292816162109375
1667857278818715100,10.806715087890625,-0.96160888671875,-0.0897064208984375,0.0234375
1667857278828736000,10.816736083984376,-0.972137451171875,-0.094268798828125,0.0186004638671875
1667857278838756000,10.826756103515624,-0.9707794189453125,-0.0991668701171875,0.024505615234375
1667857278848777000,10.83677685546875,-0.97186279296875,-0.1017913818359375,0.028228759765625
1667857278858797000,10.846797119140625,-0.9838409423828125,-0.107574462890625,0.0297698974609375
1667857278868818000,10.85681787109375,-1.001251220703125,-0.1100921630859375,0.025726318359375
1667857278878838000,10.866838134765626,-1.020233154296875,-0.1068115234375,0.0176849365234375
1667857278888859100,10.876859130859375,-1.0231781005859375,-0.1039276123046875,0.003997802734375
1667857278898879000,10.88687890625,-1.0126495361328125,-0.1032562255859375,-0.00390625
1667857278908900000,10.896900146484375,-1.00146484375,-0.104888916015625,-0.0050048828125
1667857278918920000,10.906919921875,-0.9962310791015625,-0.1015167236328125,-0.0067138671875
1667857278928941000,10.916941162109374,-1.0010986328125,-0.093994140625,-0.0135498046875
1667857278938962000,10.9269619140625,-1.0001068115234375,-0.08453369140625,-0.0211334228515625
1667857278948982000,10.93698193359375,-0.9951019287109375,-0.0773468017578125,-0.0273284912109375
1667857278959003000,10.9470029296875,-0.9993133544921875,-0.0728912353515625,-0.02899169921875
1667857278969023000,10.95702294921875,-0.9931793212890625,-0.073333740234375,-0.0268707275390625
1667857278979043800,10.9670439453125,-0.9808807373046875,-0.076629638671875,-0.0174713134765625
1667857278989064000,10.97706396484375,-0.9725494384765625,-0.079193115234375,-0.016632080078125
1667857278999085000,10.9870849609375,-0.9694061279296875,-0.0749969482421875,-0.0184783935546875
1667857279009105000,10.99710498046875,-0.9708251953125,-0.0662384033203125,-0.0188446044921875
1667857279019126000,11.0071259765625,-0.9678192138671875,-0.0635223388671875,-0.014678955078125
1667857279029145900,11.017145751953125,-0.9679412841796875,-0.06890869140625,-0.0160369873046875
1667857279039167000,11.0271669921875,-0.9808349609375,-0.0703125,-0.0205535888671875
1667857279049187000,11.03718701171875,-0.993560791015625,-0.074066162109375,-0.026123046875
1667857279059208000,11.0472080078125,-0.994659423828125,-0.0776214599609375,-0.022857666015625
1667857279069228500,11.057228515625,-0.9916229248046875,-0.079376220703125,-0.0179595947265625
1667857279079249700,11.067249755859375,-0.9956207275390625,-0.077911376953125,-0.018096923828125
1667857279089269800,11.077269775390626,-1.000946044921875,-0.0741119384765625,-0.010894775390625
1667857279099291000,11.087290771484374,-1.008148193359375,-0.0753936767578125,-0.018096923828125
1667857279109310700,11.097310791015625,-1.002899169921875,-0.0786590576171875,-0.023956298828125
1667857279119331800,11.107331787109375,-0.9901580810546875,-0.0749969482421875,-0.0192413330078125
1667857279129352000,11.11735205078125,-0.9644012451171875,-0.0753936767578125,-0.02178955078125
1667857279139372800,11.127372802734374,-0.932891845703125,-0.0731658935546875,-0.019287109375
1667857279149393000,11.137392822265625,-0.9253082275390625,-0.0610504150390625,-0.017913818359375
1667857279159413800,11.147413818359375,-0.9345245361328125,-0.05731201171875,-0.0342254638671875
1667857279169435000,11.157434814453126,-0.932098388671875,-0.0570831298828125,-0.044921875
1667857279179454700,11.167454833984374,-0.9071197509765625,-0.0540924072265625,-0.0443572998046875
1667857279189475800,11.177475830078125,-0.863800048828125,-0.04327392578125,-0.020416259765625
1667857279199495700,11.18749560546875,-0.81536865234375,-0.0255279541015625,0.013275146484375
1667857279209516800,11.197516845703126,-0.7996978759765625,-0.019439697265625,0.0157623291015625
1667857279219537000,11.207536865234376,-0.817718505859375,-0.0300140380859375,-0.002044677734375
1667857279229557800,11.217557861328125,-0.864105224609375,-0.06072998046875,-0.0209197998046875
1667857279239577900,11.227577880859375,-0.9451446533203125,-0.108184814453125,-0.015472412109375
1667857279249598700,11.2375986328125,-1.0428009033203125,-0.1516876220703125,0.015655517578125
1667857279259618800,11.247618896484376,-1.1245880126953125,-0.1794281005859375,0.05511474609375
1667857279269639700,11.2576396484375,-1.195526123046875,-0.198883056640625,0.0724334716796875
1667857279279659800,11.26765966796875,-1.2485198974609375,-0.22039794921875,0.0514373779296875
1667857279289680600,11.2776806640625,-1.26116943359375,-0.231353759765625,0.0451202392578125
1667857279299700700,11.28770068359375,-1.229400634765625,-0.2129364013671875,0.057861328125
1667857279309721600,11.2977216796875,-1.1240997314453125,-0.16937255859375,0.049407958984375
1667857279319741700,11.30774169921875,-0.9925384521484375,-0.1239166259765625,0.035980224609375
1667857279329762800,11.3177626953125,-0.8944549560546875,-0.069671630859375,0.02752685546875
1667857279339782700,11.32778271484375,-0.8033447265625,-0.0094757080078125,0.0141143798828125
1667857279349803800,11.3378037109375,-0.7112579345703125,0.0456390380859375,0.0234375
1667857279359823600,11.34782373046875,-0.660736083984375,0.0864105224609375,0.0511016845703125
1667857279369844700,11.3578447265625,-0.6919403076171875,0.1244049072265625,0.0664825439453125
1667857279379864600,11.367864501953125,-0.7941436767578125,0.1646881103515625,0.0560150146484375
1667857279389885700,11.3778857421875,-0.8994598388671875,0.2246246337890625,0.0745086669921875
1667857279399905800,11.38790576171875,-0.9851226806640625,0.301849365234375,0.1139373779296875
1667857279409926700,11.3979267578125,-1.0619659423828125,0.3774871826171875,0.12518310546875
1667857279419946800,11.40794677734375,-1.1194915771484375,0.425994873046875,0.1084747314453125
1667857279429967600,11.417967529296876,-1.1787109375,0.438201904296875,0.0603790283203125
1667857279439988700,11.42798876953125,-1.238494873046875,0.4411468505859375,0.0346221923828125
1667857279450008600,11.438008544921875,-1.2865447998046875,0.4624786376953125,0.0504302978515625
1667857279460030000,11.448030029296875,-1.2908782958984375,0.498138427734375,0.07720947265625
1667857279470049500,11.458049560546876,-1.2409210205078125,0.5406646728515625,0.11767578125
1667857279480071000,11.46807080078125,-1.1943511962890625,0.582061767578125,0.1692047119140625
1667857279490090800,11.4780908203125,-1.16259765625,0.6304779052734375,0.197418212890625
1667857279500112000,11.48811181640625,-1.1474456787109375,0.6770782470703125,0.219146728515625
1667857279510131700,11.498131591796875,-1.1537322998046875,0.7142486572265625,0.24334716796875
1667857279520152800,11.50815283203125,-1.2013092041015625,0.7335662841796875,0.2421112060546875
1667857279530173000,11.5181728515625,-1.2659149169921875,0.7232513427734375,0.2232818603515625
1667857279540193800,11.52819384765625,-1.390960693359375,0.6983642578125,0.19207763671875
1667857279550214000,11.5382138671875,-1.555328369140625,0.645599365234375,0.15301513671875
1667857279560234800,11.54823486328125,-1.7270660400390625,0.574615478515625,0.092681884765625
1667857279570254800,11.5582548828125,-1.841888427734375,0.52142333984375,0.046356201171875
1667857279580275700,11.568275634765625,-1.8735504150390625,0.463287353515625,-0.0099945068359375
1667857279590295800,11.5782958984375,-1.811614990234375,0.3990936279296875,-0.0643463134765625
1667857279600316700,11.588316650390626,-1.6826629638671875,0.3229217529296875,-0.0899200439453125
1667857279610336800,11.598336669921874,-1.5730133056640625,0.25433349609375,-0.0825347900390625
1667857279620357600,11.608357666015625,-1.520355224609375,0.214935302734375,-0.0775604248046875
1667857279630377700,11.618377685546875,-1.4839935302734375,0.1903839111328125,-0.0791778564453125
1667857279640398800,11.62839892578125,-1.4496917724609375,0.178497314453125,-0.092559814453125
1667857279650418700,11.638418701171876,-1.405426025390625,0.170928955078125,-0.1097259521484375
1667857279660439800,11.648439697265625,-1.34326171875,0.1645660400390625,-0.106292724609375
1667857279670460700,11.658460693359375,-1.270294189453125,0.16278076171875,-0.0723724365234375
1667857279680480800,11.668480712890625,-1.197509765625,0.1642303466796875,-0.0538177490234375
1667857279690501600,11.678501708984374,-1.1311798095703125,0.163787841796875,-0.0651702880859375
1667857279700521700,11.688521728515624,-1.068817138671875,0.1531524658203125,-0.0820770263671875
1667857279710542600,11.69854248046875,-1.0131988525390625,0.1380462646484375,-0.100738525390625
1667857279720562700,11.708562744140625,-0.960784912109375,0.129638671875,-0.109954833984375
1667857279730583600,11.71858349609375,-0.921051025390625,0.120208740234375,-0.11688232421875
1667857279740603600,11.728603759765624,-0.8854217529296875,0.1159210205078125,-0.1123809814453125
1667857279750624800,11.738624755859375,-0.840789794921875,0.11029052734375,-0.1095733642578125
1667857279760644600,11.74864453125,-0.8122100830078125,0.1192626953125,-0.101654052734375
1667857279770665700,11.758665771484376,-0.7939910888671875,0.135772705078125,-0.0967864990234375
1667857279780685600,11.768685546875,-0.7634429931640625,0.1468963623046875,-0.0880126953125
1667857279790706700,11.778706787109375,-0.7374725341796875,0.152618408203125,-0.070953369140625
1667857279800726500,11.7887265625,-0.72467041015625,0.1569366455078125,-0.0601348876953125
1667857279810747600,11.79874755859375,-0.7062530517578125,0.1575927734375,-0.0527801513671875
1667857279820767700,11.808767822265626,-0.6870269775390625,0.1562957763671875,-0.04241943359375
1667857279830788900,11.818788818359375,-0.668487548828125,0.1443634033203125,-0.038726806640625
1667857279840808700,11.82880859375,-0.6488494873046875,0.133331298828125,-0.037109375
1667857279850829800,11.838829833984375,-0.634490966796875,0.131072998046875,-0.040496826171875
1667857279860849700,11.848849609375,-0.6244354248046875,0.1313323974609375,-0.041015625
1667857279870870800,11.858870849609374,-0.6101531982421875,0.1346893310546875,-0.0402679443359375
1667857279880891000,11.868890869140625,-0.595001220703125,0.1462860107421875,-0.0343170166015625
1667857279890911700,11.878911865234375,-0.587371826171875,0.158538818359375,-0.0316162109375
1667857279900931800,11.888931884765626,-0.57904052734375,0.1715545654296875,-0.0353546142578125
1667857279910952700,11.89895263671875,-0.5761566162109375,0.1885986328125,-0.0311126708984375
1667857279920973800,11.908973876953125,-0.5953521728515625,0.214996337890625,-0.0213165283203125
1667857279930994000,11.918993896484375,-0.61798095703125,0.236846923828125,-0.0279693603515625
1667857279941014800,11.929014892578126,-0.6271514892578125,0.249481201171875,-0.035736083984375
1667857279951035000,11.939034912109374,-0.6047210693359375,0.258026123046875,-0.034210205078125
1667857279961055700,11.9490556640625,-0.5912322998046875,0.2459869384765625,-0.04132080078125
1667857279971075800,11.959075927734375,-0.59246826171875,0.2357025146484375,-0.0350189208984375
1667857279981096700,11.9690966796875,-0.584381103515625,0.230926513671875,-0.014617919921875
1667857279991116800,11.97911669921875,-0.6015625,0.225921630859375,-0.012603759765625
1667857280001137700,11.9891376953125,-0.6467132568359375,0.2321014404296875,-0.0212860107421875
1667857280011157800,11.99915771484375,-0.683868408203125,0.232696533203125,-0.032806396484375
1667857280021178600,12.0091787109375,-0.6979827880859375,0.228179931640625,-0.0333099365234375
1667857280031198700,12.01919873046875,-0.699066162109375,0.224700927734375,-0.0396728515625
1667857280041219600,12.029219482421874,-0.6900177001953125,0.221771240234375,-0.0490264892578125
1667857280051239700,12.03923974609375,-0.683380126953125,0.218597412109375,-0.0548095703125
1667857280061260800,12.0492607421875,-0.693389892578125,0.2149810791015625,-0.0594940185546875
1667857280071280000,12.059280029296875,-0.712371826171875,0.211944580078125,-0.0585784912109375
1667857280081301200,12.06930126953125,-0.7390594482421875,0.2084503173828125,-0.0518646240234375
1667857280091321300,12.0793212890625,-0.7760009765625,0.2074127197265625,-0.0451812744140625
1667857280101342200,12.08934228515625,-0.815826416015625,0.21356201171875,-0.040679931640625
1667857280111362300,12.0993623046875,-0.8503570556640625,0.22027587890625,-0.039825439453125
1667857280121383200,12.109383056640626,-0.8793182373046875,0.21905517578125,-0.042144775390625
1667857280131403300,12.1194033203125,-0.9149169921875,0.2112884521484375,-0.0439605712890625
1667857280141424000,12.129424072265625,-0.9468994140625,0.1992950439453125,-0.0481719970703125
1667857280151445500,12.139445556640625,-0.975677490234375,0.1880950927734375,-0.0527496337890625
1667857280161465000,12.149465087890626,-0.9987030029296875,0.1772918701171875,-0.0484619140625
1667857280171486500,12.159486572265624,-1.0038299560546875,0.162322998046875,-0.0341949462890625
1667857280181506300,12.16950634765625,-0.991973876953125,0.153656005859375,-0.0236968994140625
1667857280191527400,12.17952734375,-0.9739837646484375,0.15093994140625,-0.0205230712890625
1667857280201547300,12.18954736328125,-0.9569549560546875,0.1519317626953125,-0.020965576171875
1667857280211568400,12.199568359375,-0.9510650634765625,0.1557464599609375,-0.01885986328125
1667857280221588500,12.20958837890625,-0.9581146240234375,0.1601715087890625,-0.016326904296875
1667857280231609300,12.219609375,-0.9655914306640625,0.1634674072265625,-0.01776123046875
1667857280241629400,12.22962939453125,-0.969207763671875,0.16046142578125,-0.011260986328125
1667857280251650300,12.239650390625,-0.9710540771484375,0.1490020751953125,-0.00262451171875
1667857280261670400,12.24967041015625,-0.9679107666015625,0.1373291015625,0.008209228515625
1667857280271691300,12.259691162109375,-0.9687042236328125,0.1299591064453125,0.020660400390625
1667857280281711400,12.26971142578125,-0.9695892333984375,0.1271820068359375,0.031768798828125
1667857280291732200,12.279732177734376,-0.9708099365234375,0.1243438720703125,0.0413360595703125
1667857280301752300,12.28975244140625,-0.9747161865234375,0.1217803955078125,0.0468292236328125
1667857280311773200,12.299773193359375,-0.97479248046875,0.1141204833984375,0.0468292236328125
1667857280321793300,12.309793212890625,-0.965057373046875,0.1079864501953125,0.0484466552734375
1667857280331814400,12.319814453125,-0.950286865234375,0.1007843017578125,0.0519561767578125
1667857280341834200,12.329834228515624,-0.9311065673828125,0.0863800048828125,0.05517578125
1667857280351855400,12.33985546875,-0.9050750732421875,0.069061279296875,0.0560455322265625
1667857280361875200,12.349875244140625,-0.8869781494140625,0.0630950927734375,0.0553131103515625
1667857280371896300,12.359896240234375,-0.858734130859375,0.058349609375,0.0567169189453125
1667857280381916200,12.369916259765626,-0.836334228515625,0.0386810302734375,0.0675048828125
1667857280391937300,12.379937255859375,-0.820098876953125,0.0498046875,0.0621337890625
1667857280401957400,12.389957275390625,-0.8027801513671875,0.075286865234375,0.055084228515625
1667857280411978200,12.399978271484375,-0.7832489013671875,0.1000823974609375,0.0502166748046875
1667857280421999000,12.4099990234375,-0.7789764404296875,0.1192626953125,0.04339599609375
1667857280432019200,12.420019287109374,-0.787811279296875,0.1331939697265625,0.03778076171875
1667857280442040300,12.430040283203125,-0.8036346435546875,0.134918212890625,0.0377655029296875
1667857280452060200,12.44006005859375,-0.8206787109375,0.1299285888671875,0.03125
1667857280462081300,12.450081298828126,-0.8253326416015625,0.119415283203125,0.0247802734375
1667857280472101000,12.46010107421875,-0.8197784423828125,0.107208251953125,0.01922607421875
1667857280482122200,12.470122314453125,-0.82421875,0.0961761474609375,0.00982666015625
1667857280492142000,12.48014208984375,-0.8167572021484375,0.0839080810546875,0.001495361328125
1667857280502163200,12.4901630859375,-0.785064697265625,0.076141357421875,0.0052642822265625
1667857280512183300,12.500183349609374,-0.755950927734375,0.076141357421875,0.006072998046875
1667857280522204200,12.5102041015625,-0.736328125,0.0860443115234375,-0.001434326171875
1667857280532224300,12.520224365234375,-0.7228240966796875,0.10443115234375,-0.0047149658203125
1667857280542245400,12.530245361328125,-0.715576171875,0.1263275146484375,-0.00103759765625
1667857280552265200,12.54026513671875,-0.724884033203125,0.140167236328125,0.0021820068359375
1667857280562286300,12.550286376953125,-0.755584716796875,0.1466522216796875,-0.0028076171875
1667857280572306400,12.560306396484375,-0.772003173828125,0.139373779296875,-0.0063934326171875
1667857280582327300,12.570327392578125,-0.7808074951171875,0.1265106201171875,0.0052490234375
1667857280592347400,12.580347412109376,-0.8005523681640625,0.1173553466796875,0.017059326171875
1667857280602368300,12.5903681640625,-0.8200836181640625,0.1227569580078125,0.02142333984375
1667857280612388400,12.600388427734375,-0.83172607421875,0.1477508544921875,0.025360107421875
1667857280622409200,12.6104091796875,-0.8479461669921875,0.183349609375,0.0157470703125
1667857280632429300,12.62042919921875,-0.86993408203125,0.21014404296875,-0.0034332275390625
1667857280642450400,12.630450439453124,-0.8740234375,0.21661376953125,-0.0234832763671875
1667857280652471300,12.64047119140625,-0.8777313232421875,0.1981353759765625,-0.031585693359375
1667857280662491400,12.650491455078125,-0.8870697021484375,0.1670074462890625,-0.0288848876953125
1667857280672512300,12.66051220703125,-0.8874969482421875,0.1324920654296875,-0.0214691162109375
1667857280682532400,12.670532470703124,-0.89251708984375,0.1157379150390625,-0.0145721435546875
1667857280692553200,12.68055322265625,-0.9162750244140625,0.1142425537109375,-0.0087890625
1667857280702573300,12.6905732421875,-0.95489501953125,0.1173858642578125,-0.014404296875
1667857280712594200,12.70059423828125,-0.9962615966796875,0.1143035888671875,-0.03106689453125
1667857280722614300,12.7106142578125,-1.0403594970703125,0.095977783203125,-0.0428466796875
1667857280732635100,12.72063525390625,-1.08740234375,0.056976318359375,-0.0478057861328125
1667857280742655200,12.7306552734375,-1.1164703369140625,0.0192413330078125,-0.04888916015625
1667857280752676400,12.74067626953125,-1.1237640380859375,-0.0143585205078125,-0.04510498046875
1667857280762696200,12.7506962890625,-1.1253509521484375,-0.019775390625,-0.0385589599609375
1667857280772717300,12.76071728515625,-1.1439208984375,0.0139617919921875,-0.028106689453125
1667857280782737200,12.770737060546875,-1.1775970458984375,0.0808563232421875,-0.022491455078125
1667857280792758300,12.78075830078125,-1.1993408203125,0.1466827392578125,-0.0297698974609375
1667857280802778400,12.7907783203125,-1.207061767578125,0.2076263427734375,-0.03021240234375
1667857280812799200,12.80079931640625,-1.2392120361328125,0.2465362548828125,-0.0034637451171875
1667857280822819300,12.8108193359375,-1.288543701171875,0.2401885986328125,0.013214111328125
1667857280832840200,12.820840087890625,-1.333984375,0.1998443603515625,0.0013427734375
1667857280842860300,12.8308603515625,-1.334228515625,0.15362548828125,-0.0123748779296875
1667857280852880100,12.840880126953126,-1.2738189697265625,0.1027984619140625,-0.0206298828125
1667857280862901200,12.8509013671875,-1.161285400390625,0.03759765625,-0.1064300537109375
1667857280872921300,12.86092138671875,-1.166015625,-0.0296630859375,-0.348785400390625
1667857280882942200,12.870942138671875,-1.375946044921875,-0.0645751953125,-0.5594024658203125
1667857280892962300,12.88096240234375,-1.7362823486328125,-0.0360870361328125,-0.5675506591796875
1667857280902983200,12.890983154296874,-1.9564208984375,-0.0198974609375,-0.2617340087890625
1667857280913003300,12.901003173828125,-1.9796905517578125,-0.0768890380859375,0.306854248046875
