time,seconds_elapsed,z,y,x
1667857268028415500,0.01641552734375,27.645401000976562,28.85968017578125,94.31471252441406
1667857268038568400,0.026568359375,27.730499267578125,28.818222045898438,94.24485778808594
1667857268048723500,0.036723388671875,27.754867553710938,28.904159545898438,94.2801513671875
1667857268058876400,0.04687646484375,27.82452392578125,28.945327758789062,94.25440979003906
1667857268069030400,0.057030517578125,27.995819091796875,29.071563720703125,94.20928955078125
1667857268079184600,0.0671845703125,27.915283203125,29.1134033203125,94.17161560058594
1667857268089338600,0.077338623046875,28.050460815429688,28.956069946289062,94.28103637695312
1667857268099491600,0.08749169921875,27.969497680664062,28.979034423828125,94.25558471679688
1667857268109644500,0.09764453125,28.003662109375,29.165863037109375,94.33180236816406
1667857268119797800,0.1077978515625,28.007293701171875,29.145782470703125,94.1324462890625
1667857268129950500,0.117950439453125,28.072052001953125,29.147354125976562,94.1314697265625
1667857268140103700,0.128103759765625,27.974807739257812,29.135238647460938,94.21522521972656
1667857268150257700,0.138257568359375,27.62030029296875,29.352813720703125,93.84024047851562
1667857268160411600,0.14841162109375,27.788726806640625,29.327529907226562,94.06353759765625
1667857268170564600,0.158564697265625,27.990921020507812,29.433700561523438,93.94035339355469
1667857268180717800,0.1687177734375,27.887115478515625,29.415283203125,94.09283447265625
1667857268190870500,0.17887060546875,28.066299438476562,29.572509765625,94.09725952148438
1667857268201022700,0.189022705078125,28.134475708007812,29.56024169921875,93.95866394042969
1667857268211175700,0.19917578125,27.853500366210938,29.485153198242188,93.9156494140625
1667857268221328400,0.209328369140625,28.016860961914062,29.62957763671875,94.02861022949219
1667857268231482600,0.219482666015625,28.135238647460938,29.566802978515625,93.93695068359375
1667857268241635600,0.229635498046875,27.8726806640625,29.851760864257812,93.88948059082031
1667857268251788500,0.23978857421875,27.895782470703125,29.851318359375,93.67134094238281
1667857268261941800,0.249941650390625,28.1019287109375,29.987747192382812,93.615966796875
1667857268272094700,0.2600947265625,28.0328369140625,30.029769897460938,93.55528259277344
1667857268282247400,0.270247314453125,28.049301147460938,29.899124145507812,93.75503540039062
1667857268292400600,0.280400634765625,28.348220825195312,30.121505737304688,93.95654296875
1667857268302553600,0.2905537109375,27.889541625976562,29.886001586914062,94.02162170410156
1667857268312706800,0.300706787109375,28.067520141601562,29.948333740234375,94.21682739257812
1667857268322859500,0.310859619140625,28.257705688476562,30.18353271484375,94.02589416503906
1667857268333013500,0.321013427734375,28.030227661132812,30.231292724609375,94.12861633300781
1667857268343167500,0.33116748046875,28.2474365234375,30.45013427734375,94.18614196777344
1667857268353320700,0.34132080078125,28.590240478515625,30.8873291015625,93.97761535644531
1667857268363474700,0.351474609375,28.607330322265625,31.28045654296875,93.81852722167969
1667857268373627600,0.361627685546875,28.4034423828125,31.511627197265625,93.78775024414062
1667857268383780600,0.371780517578125,28.635040283203125,31.925949096679688,93.59831237792969
1667857268393934800,0.381934814453125,29.025985717773438,32.25048828125,93.41767883300781
1667857268404087600,0.392087646484375,28.817062377929688,32.5318603515625,93.33950805664062
1667857268414240500,0.402240478515625,29.045928955078125,32.85406494140625,93.29142761230469
1667857268424394500,0.41239453125,29.331939697265625,33.16920471191406,93.2802734375
1667857268434547700,0.422547607421875,29.360626220703125,33.44573974609375,93.4593505859375
1667857268444701700,0.43270166015625,29.4151611328125,33.98735046386719,93.4447021484375
1667857268454854700,0.442854736328125,29.497055053710938,34.16593933105469,93.55747985839844
1667857268465008400,0.45300830078125,29.5977783203125,34.480804443359375,93.64132690429688
1667857268475161600,0.46316162109375,30.010223388671875,35.04652404785156,93.58807373046875
1667857268485315600,0.473315673828125,30.049835205078125,35.1861572265625,93.92869567871094
1667857268495468500,0.483468505859375,30.219558715820312,35.30487060546875,93.95085144042969
1667857268505621800,0.493621826171875,29.978195190429688,35.61860656738281,94.07711791992188
1667857268515774700,0.503774658203125,30.181564331054688,35.67118835449219,94.15835571289062
1667857268525927400,0.513927490234375,29.968795776367188,36.131591796875,94.13169860839844
1667857268536080600,0.52408056640625,29.9599609375,36.08171081542969,94.18264770507812
1667857268546232600,0.534232666015625,30.08856201171875,36.05262756347656,94.22346496582031
1667857268556384500,0.544384521484375,30.503097534179688,36.339569091796875,94.01370239257812
1667857268566536700,0.55453662109375,30.48028564453125,36.55938720703125,94.18919372558594
1667857268576689700,0.564689697265625,30.643692016601562,36.74505615234375,94.17109680175781
1667857268586841600,0.574841552734375,30.784027099609375,37.088592529296875,94.26615905761719
1667857268596994600,0.58499462890625,30.929122924804688,37.33747863769531,94.34478759765625
1667857268607146500,0.595146484375,30.990982055664062,37.67205810546875,94.71310424804688
1667857268617299500,0.605299560546875,31.425079345703125,38.193389892578125,95.09580993652344
1667857268627452700,0.61545263671875,31.381454467773438,38.72087097167969,95.55569458007812
1667857268637604600,0.6256044921875,31.599441528320312,39.11131286621094,96.36940002441406
1667857268647757600,0.635757568359375,31.973800659179688,39.21437072753906,96.78227233886719
1667857268657911600,0.64591162109375,31.9205322265625,39.4156494140625,97.25013732910156
1667857268668064500,0.656064453125,31.93646240234375,39.61833190917969,97.76856994628906
1667857268678217700,0.6662177734375,32.1656494140625,39.837738037109375,98.06501770019531
1667857268688370700,0.67637060546875,32.05564880371094,39.803497314453125,98.25144958496094
1667857268698522600,0.686522705078125,31.914779663085938,39.78337097167969,98.27011108398438
1667857268708677600,0.696677734375,32.17034912109375,40.069854736328125,97.95822143554688
1667857268718830600,0.70683056640625,32.30293273925781,39.710662841796875,98.24530029296875
1667857268728983600,0.716983642578125,32.07188415527344,39.882293701171875,98.144287109375
1667857268739136800,0.72713671875,32.145294189453125,39.856201171875,98.2581787109375
1667857268749289500,0.73728955078125,32.070098876953125,39.96492004394531,98.17558288574219
1667857268759442700,0.747442626953125,31.948394775390625,40.00215148925781,98.38156127929688
1667857268769595600,0.757595703125,32.19258117675781,40.35057067871094,98.27548217773438
1667857268779748600,0.76774853515625,32.467864990234375,40.49308776855469,98.13719177246094
1667857268789901600,0.777901611328125,32.40509033203125,41.00042724609375,97.74594116210938
1667857268800053500,0.788053466796875,32.784698486328125,41.20384216308594,97.72996520996094
1667857268810206700,0.798206787109375,33.26441955566406,41.52803039550781,97.63442993164062
1667857268820360700,0.808360595703125,32.838165283203125,41.48197937011719,97.59690856933594
1667857268830513700,0.818513671875,33.43482971191406,41.730560302734375,97.41627502441406
1667857268840667600,0.828667724609375,33.49009704589844,42.00453186035156,97.65597534179688
1667857268850820600,0.838820556640625,33.2291259765625,41.89900207519531,97.84683227539062
1667857268860972500,0.84897265625,33.61566162109375,42.31898498535156,97.81092834472656
1667857268871125800,0.859125732421875,33.62249755859375,42.48918151855469,98.20918273925781
1667857268881278500,0.869278564453125,34.02925109863281,42.965301513671875,98.19332885742188
1667857268891431700,0.879431640625,34.2816162109375,43.31562805175781,98.15773010253906
1667857268901584600,0.889584716796875,34.19297790527344,43.58638000488281,98.1385498046875
1667857268911738600,0.899738525390625,34.66644287109375,43.99519348144531,98.1011962890625
1667857268921891600,0.9098916015625,35.13737487792969,44.157196044921875,98.05989074707031
1667857268932044500,0.92004443359375,34.95506286621094,44.52604675292969,97.88746643066406
1667857268942198500,0.930198486328125,35.2047119140625,44.602630615234375,97.75309753417969
1667857268952351500,0.9403515625,35.28564453125,44.61358642578125,97.72239685058594
1667857268962504700,0.950504638671875,35.11082458496094,44.87391662597656,97.48419189453125
1667857268972657700,0.96065771484375,35.415557861328125,44.93553161621094,97.49253845214844
1667857268982811600,0.970811767578125,35.603424072265625,45.22706604003906,97.25582885742188
1667857268992964600,0.980964599609375,35.598876953125,44.93621826171875,97.41505432128906
1667857269003117600,0.99111767578125,35.260772705078125,44.8804931640625,97.2222900390625
1667857269013271600,1.001271484375,35.50816345214844,44.95045471191406,97.17402648925781
1667857269023424500,1.011424560546875,35.62579345703125,45.05857849121094,97.26219177246094
1667857269033578800,1.021578857421875,35.74748229980469,45.1759033203125,97.26863098144531
1667857269043731700,1.031731689453125,35.68011474609375,45.212982177734375,97.17143249511719
1667857269053884000,1.0418837890625,35.48402404785156,45.290618896484375,96.881591796875
1667857269064035800,1.052035888671875,35.41259765625,45.25843811035156,96.86932373046875
1667857269074189800,1.06218994140625,35.3692626953125,45.273773193359375,96.90689086914062
1667857269084343000,1.072343017578125,35.26014709472656,45.1116943359375,96.85171508789062
1667857269094496000,1.08249609375,35.22196960449219,44.93116760253906,96.86189270019531
1667857269104650000,1.09264990234375,35.16291809082031,44.78324890136719,96.71266174316406
1667857269114803200,1.10280322265625,35.08897399902344,44.63575744628906,96.77787780761719
1667857269124956000,1.112955810546875,35.00529479980469,44.615020751953125,96.47370910644531
1667857269135108900,1.12310888671875,34.94517517089844,44.569427490234375,96.52392578125
1667857269145262800,1.133262939453125,35.024749755859375,44.37493896484375,96.83399963378906
1667857269155416000,1.143416015625,35.12162780761719,44.514556884765625,96.60005187988281
1667857269165570000,1.153570068359375,34.91548156738281,44.44627380371094,96.41802978515625
1667857269175723000,1.163722900390625,34.809112548828125,44.211151123046875,96.56539916992188
1667857269185875000,1.173875,34.76908874511719,43.98675537109375,96.71987915039062
1667857269196028000,1.18402783203125,34.7281494140625,44.019989013671875,96.41856384277344
1667857269206182000,1.194181884765625,34.58790588378906,43.79789733886719,96.55068969726562
1667857269216335000,1.204335205078125,34.64402770996094,43.79023742675781,96.35452270507812
1667857269226487800,1.21448779296875,34.44081115722656,43.67695617675781,96.49462890625
1667857269236641800,1.224641845703125,34.4715576171875,43.55143737792969,96.40170288085938
1667857269246795000,1.234794921875,34.299530029296875,43.1827392578125,96.62149047851562
1667857269256948000,1.244947998046875,34.31114196777344,43.22370910644531,96.65318298339844
1667857269267102000,1.25510205078125,34.18598937988281,43.05519104003906,96.64399719238281
1667857269277255200,1.265255126953125,34.02235412597656,42.838470458984375,96.48446655273438
1667857269287407900,1.275407958984375,33.94329833984375,42.8564453125,96.4176025390625
1667857269297561900,1.285561767578125,33.63645935058594,42.59376525878906,96.60906982421875
1667857269307714800,1.29571484375,33.83348083496094,42.45137023925781,96.40701293945312
1667857269317868000,1.305867919921875,33.5069580078125,42.37353515625,96.31744384765625
1667857269328021000,1.31602099609375,33.28253173828125,42.079559326171875,96.44345092773438
1667857269338174200,1.32617431640625,33.49969482421875,42.055389404296875,96.36726379394531
1667857269348327000,1.336326904296875,33.04151916503906,41.8082275390625,96.17256164550781
1667857269358480000,1.34647998046875,33.273895263671875,41.316741943359375,96.151611328125
1667857269368634000,1.356634033203125,33.12510681152344,41.11492919921875,96.40480041503906
1667857269378787000,1.366787109375,33.130767822265625,41.05267333984375,96.2781982421875
1667857269388940000,1.37693994140625,32.64463806152344,40.9407958984375,96.01898193359375
1667857269399093000,1.387093017578125,32.71543884277344,40.52272033691406,96.26472473144531
1667857269409247000,1.3972470703125,32.54252624511719,40.52049255371094,96.22727966308594
1667857269419401000,1.40740087890625,32.65574645996094,40.17970275878906,96.15045166015625
1667857269429554000,1.417553955078125,32.520660400390625,40.074615478515625,96.30165100097656
1667857269439708000,1.4277080078125,32.373870849609375,39.96903991699219,96.14256286621094
1667857269449862000,1.43786181640625,32.044036865234375,39.8641357421875,96.18399047851562
1667857269460016000,1.44801611328125,32.190673828125,39.62603759765625,96.19938659667969
1667857269470169000,1.458169189453125,31.826141357421875,39.46174621582031,96.13883972167969
1667857269480323000,1.468322998046875,31.734542846679688,39.51033020019531,96.13157653808594
1667857269490475800,1.478475830078125,31.504608154296875,39.085845947265625,96.26472473144531
1667857269500631000,1.488631103515625,31.615921020507812,39.0714111328125,95.94236755371094
1667857269510785000,1.498784912109375,31.437057495117188,38.932281494140625,96.2220458984375
1667857269520938800,1.508938720703125,31.45843505859375,38.66645812988281,96.21061706542969
1667857269531092000,1.519092041015625,31.173629760742188,38.578155517578125,96.25357055664062
1667857269541245000,1.529244873046875,31.082489013671875,38.1881103515625,96.12718200683594
1667857269551399000,1.53939892578125,30.982406616210938,38.05995178222656,96.38528442382812
1667857269561552100,1.54955224609375,30.936782836914062,38.07447814941406,96.38067626953125
1667857269571706000,1.5597060546875,30.610885620117188,37.81422424316406,96.26286315917969
1667857269581858800,1.56985888671875,30.803497314453125,37.59812927246094,96.26472473144531
1667857269592012800,1.5800126953125,30.5540771484375,37.48078918457031,96.12284851074219
1667857269602166000,1.590166015625,30.736526489257812,37.3310546875,96.36320495605469
1667857269612320000,1.600320068359375,30.67840576171875,37.216094970703125,96.39356994628906
1667857269622473000,1.610472900390625,30.792877197265625,36.97975158691406,96.45829772949219
1667857269632627000,1.620626953125,30.51983642578125,36.966583251953125,96.21473693847656
1667857269642780200,1.6307802734375,30.55572509765625,36.84686279296875,96.35647583007812
1667857269652934100,1.64093408203125,30.7103271484375,36.85804748535156,96.11141967773438
1667857269663086800,1.6510869140625,30.736724853515625,36.83967590332031,96.240966796875
1667857269673240800,1.66124072265625,30.593505859375,37.037841796875,96.176513671875
1667857269683394000,1.67139404296875,30.5411376953125,36.89002990722656,96.05007934570312
1667857269693547000,1.681547119140625,30.960372924804688,36.898712158203125,96.17379760742188
1667857269703701000,1.691700927734375,30.757247924804688,37.29774475097656,96.02885437011719
1667857269713856000,1.70185595703125,30.943710327148438,37.02272033691406,96.0308837890625
1667857269724010000,1.712010009765625,31.253753662109375,37.431976318359375,96.00212097167969
1667857269734164000,1.7221640625,30.849807739257812,37.47215270996094,95.97314453125
1667857269744319000,1.732319091796875,30.761459350585938,37.761474609375,96.10493469238281
1667857269754472000,1.742471923828125,31.158035278320312,37.74798583984375,95.98121643066406
1667857269764625200,1.752625244140625,31.333450317382812,38.24072265625,95.9814453125
1667857269774779100,1.762779052734375,31.637786865234375,38.416107177734375,96.00032043457031
1667857269784931800,1.772931884765625,31.564865112304688,38.71543884277344,95.8765869140625
1667857269795085800,1.7830859375,31.539138793945312,38.895660400390625,95.80177307128906
1667857269805239800,1.79323974609375,31.768142700195312,39.275970458984375,95.66827392578125
1667857269815394000,1.80339404296875,32.08879089355469,39.6600341796875,95.66572570800781
1667857269825547000,1.813547119140625,32.04902648925781,39.687896728515625,95.54899597167969
1667857269835701000,1.823700927734375,32.32231140136719,40.068115234375,95.33143615722656
1667857269845855000,1.83385498046875,32.589447021484375,40.406646728515625,95.15255737304688
1667857269856010000,1.844010009765625,32.898895263671875,40.709930419921875,95.10116577148438
1667857269866164000,1.8541640625,33.274200439453125,41.1021728515625,94.85578918457031
1667857269876317000,1.86431689453125,33.141876220703125,41.48377990722656,94.40936279296875
1667857269886471000,1.874470947265625,33.688323974609375,41.73054504394531,94.36032104492188
1667857269896625200,1.884625244140625,33.83909606933594,41.91108703613281,93.98994445800781
1667857269906779100,1.894779052734375,33.952880859375,41.68592834472656,93.78193664550781
1667857269916931800,1.904931884765625,33.72381591796875,41.48954772949219,93.55477905273438
1667857269927085800,1.9150859375,34.08760070800781,41.81187438964844,93.27507019042969
1667857269937241000,1.925240966796875,33.889068603515625,41.77146911621094,93.152587890625
1667857269947395000,1.93539501953125,34.41560363769531,42.24031066894531,92.92697143554688
1667857269957549000,1.945549072265625,34.453857421875,42.75901794433594,92.95899963378906
1667857269967703000,1.955703125,35.01768493652344,43.359375,93.04080200195312
1667857269977856800,1.965856689453125,35.33650207519531,44.063232421875,93.19352722167969
1667857269988011000,1.976010986328125,35.59495544433594,44.50886535644531,93.18778991699219
1667857269998164000,1.9861640625,35.939544677734375,44.949951171875,93.67843627929688
1667857270008317000,1.99631689453125,36.332366943359375,45.100830078125,93.82154846191406
1667857270018470100,2.00647021484375,36.28926086425781,45.3944091796875,94.00346374511719
1667857270028623000,2.016623046875,36.23478698730469,45.51515197753906,93.96075439453125
1667857270038775800,2.02677587890625,36.41117858886719,45.706024169921875,94.11154174804688
1667857270048929000,2.036928955078125,36.461456298828125,45.656982421875,94.1131591796875
1667857270059082500,2.04708251953125,36.576385498046875,45.90570068359375,94.15730285644531
1667857270069234400,2.057234375,36.664398193359375,46.05104064941406,93.77894592285156
1667857270079387400,2.067387451171875,36.696014404296875,46.21553039550781,93.75253295898438
1667857270089540600,2.07754052734375,37.20599365234375,46.51173400878906,93.44166564941406
1667857270099692500,2.087692626953125,37.35585021972656,46.7706298828125,93.02607727050781
1667857270109846500,2.097846435546875,37.84312438964844,46.85935974121094,92.82044982910156
1667857270119999500,2.10799951171875,37.84513854980469,47.05320739746094,92.73445129394531
1667857270130153500,2.118153564453125,37.861419677734375,47.1102294921875,92.60185241699219
1667857270140307500,2.128307373046875,37.62945556640625,47.06639099121094,92.48023986816406
1667857270150460400,2.13846044921875,37.35221862792969,46.81645202636719,92.10467529296875
1667857270160613600,2.148613525390625,37.4893798828125,46.627471923828125,92.07365417480469
1667857270170766600,2.1587666015625,37.58624267578125,46.66630554199219,91.81889343261719
1667857270180919300,2.168919189453125,37.22052001953125,46.371429443359375,91.85986328125
1667857270191073500,2.179073486328125,37.291046142578125,46.27392578125,91.80535888671875
1667857270201226500,2.1892265625,37.24761962890625,46.19721984863281,91.53347778320312
1667857270211379500,2.19937939453125,37.31736755371094,46.496612548828125,91.42031860351562
1667857270221532700,2.20953271484375,36.91253662109375,46.39347839355469,91.39434814453125
1667857270231686700,2.219686767578125,37.13795471191406,46.37261962890625,91.35432434082031
1667857270241839400,2.22983935546875,37.25254821777344,46.511993408203125,91.50135803222656
1667857270251993300,2.239993408203125,36.879364013671875,46.34187316894531,91.61337280273438
1667857270262147300,2.250147216796875,37.057220458984375,46.30268859863281,91.93360900878906
1667857270272301300,2.26030126953125,36.99043273925781,46.15765380859375,92.21737670898438
1667857270282455600,2.27045556640625,36.892852783203125,46.317840576171875,92.05226135253906
1667857270292608500,2.2806083984375,36.48335266113281,45.88909912109375,92.23423767089844
1667857270302762500,2.290762451171875,36.44557189941406,45.75981140136719,92.35882568359375
1667857270312916500,2.30091650390625,36.08026123046875,45.4212646484375,92.43183898925781
1667857270323070500,2.311070556640625,35.82228088378906,45.27629089355469,92.47488403320312
1667857270333223700,2.3212236328125,35.50494384765625,45.03880310058594,92.50895690917969
1667857270343377700,2.331377685546875,35.04473876953125,44.86680603027344,92.69862365722656
1667857270353530400,2.3415302734375,35.31230163574219,44.73979187011719,92.67973327636719
1667857270363684400,2.351684326171875,35.208831787109375,44.4769287109375,92.78001403808594
1667857270373838300,2.36183837890625,34.955963134765625,44.44581604003906,92.73539733886719
1667857270383991600,2.371991455078125,34.83441162109375,44.380828857421875,92.85516357421875
1667857270394144500,2.38214453125,34.748565673828125,44.04069519042969,92.95169067382812
1667857270404296400,2.39229638671875,34.22648620605469,43.911041259765625,92.94561767578125
1667857270414450400,2.402450439453125,34.6387939453125,43.90037536621094,92.8253173828125
1667857270424604400,2.4126044921875,34.11360168457031,43.446014404296875,92.840576171875
1667857270434757400,2.42275732421875,33.88288879394531,43.09953308105469,92.86154174804688
1667857270444910600,2.43291064453125,33.686004638671875,42.93708801269531,92.85395812988281
1667857270455063600,2.4430634765625,33.5260009765625,42.44544982910156,93.11720275878906
1667857270465216500,2.453216552734375,33.00602722167969,42.100067138671875,93.23054504394531
1667857270475370500,2.46337060546875,32.91474914550781,41.641845703125,93.4249267578125
1667857270485523500,2.4735234375,32.72987365722656,41.049774169921875,93.580810546875
1667857270495676400,2.483676513671875,32.325836181640625,40.92041015625,93.37039184570312
1667857270505829600,2.49382958984375,32.33750915527344,40.706878662109375,93.5711669921875
1667857270515983600,2.503983642578125,31.852935791015625,40.46192932128906,93.48324584960938
1667857270526136300,2.51413623046875,31.666213989257812,40.11842346191406,93.7445068359375
1667857270536290300,2.524290283203125,31.832656860351562,40.006591796875,93.79347229003906
1667857270546444500,2.534444580078125,31.66375732421875,39.6815185546875,94.05000305175781
1667857270556598500,2.5445986328125,31.430511474609375,39.39573669433594,93.88774108886719
1667857270566752500,2.55475244140625,31.432907104492188,39.288787841796875,94.00816345214844
1667857270576905500,2.564905517578125,31.36181640625,39.03068542480469,93.93460083007812
1667857270587059500,2.5750595703125,31.147171020507812,38.757293701171875,94.00584411621094
1667857270597212700,2.585212646484375,31.186569213867188,38.76451110839844,93.94010925292969
1667857270607365400,2.595365478515625,30.988052368164062,38.44258117675781,94.07601928710938
1667857270617518300,2.605518310546875,31.140167236328125,38.11112976074219,94.00555419921875
1667857270627672300,2.61567236328125,30.542648315429688,38.05885314941406,93.85966491699219
1667857270637825500,2.625825439453125,30.5323486328125,37.82841491699219,93.77439880371094
1667857270647979500,2.6359794921875,30.712921142578125,37.61399841308594,93.65745544433594
1667857270658133500,2.646133544921875,30.31085205078125,37.566802978515625,93.35708618164062
1667857270668286500,2.656286376953125,30.201385498046875,37.29042053222656,93.51824951171875
1667857270678440400,2.6664404296875,30.27825927734375,37.23887634277344,93.16288757324219
1667857270688593400,2.676593505859375,30.188003540039062,37.34442138671875,93.14424133300781
1667857270698746400,2.686746337890625,30.221969604492188,37.05513000488281,92.71859741210938
1667857270708900400,2.696900390625,30.21905517578125,37.04948425292969,92.62884521484375
1667857270719053600,2.707053466796875,30.340866088867188,36.96192932128906,92.28155517578125
1667857270729207600,2.71720751953125,30.230575561523438,36.96696472167969,92.2611083984375
1667857270739360500,2.727360595703125,30.379592895507812,37.041778564453125,91.96340942382812
1667857270749513500,2.737513427734375,30.450485229492188,36.90992736816406,91.76878356933594
1667857270759667500,2.74766748046875,30.399185180664062,37.18309020996094,91.48490905761719
1667857270769820400,2.7578203125,30.498031616210938,37.11598205566406,91.47625732421875
1667857270779973600,2.7679736328125,30.303329467773438,37.0693359375,91.32872009277344
1667857270790127600,2.778127685546875,30.556961059570312,37.0306396484375,91.49784851074219
1667857270800280600,2.788280517578125,30.5216064453125,37.171600341796875,91.3492431640625
1667857270810434600,2.7984345703125,30.543716430664062,36.96839904785156,91.24566650390625
1667857270820588500,2.808588623046875,31.041824340820312,37.08738708496094,91.29574584960938
1667857270830742500,2.818742431640625,30.8018798828125,37.24446105957031,91.04524230957031
1667857270840895500,2.8288955078125,30.848892211914062,37.09065246582031,91.01812744140625
1667857270851049500,2.839049560546875,30.9019775390625,37.288238525390625,90.6641845703125
1667857270861202400,2.849202392578125,30.709869384765625,37.0335693359375,90.33242797851562
1667857270871356400,2.8593564453125,30.79022216796875,37.144683837890625,90.31710815429688
1667857270881510400,2.869510498046875,30.643600463867188,36.83631896972656,90.34280395507812
1667857270891663600,2.87966357421875,30.748794555664062,36.79969787597656,90.50985717773438
1667857270901817600,2.889817626953125,30.5543212890625,36.63410949707031,90.83869934082031
1667857270911970300,2.89997021484375,30.471725463867188,36.50151062011719,91.19351196289062
1667857270922123500,2.91012353515625,30.30474853515625,36.30223083496094,91.44953918457031
1667857270932276500,2.9202763671875,30.178939819335938,36.36375427246094,91.82601928710938
1667857270942430500,2.930430419921875,30.089019775390625,36.39823913574219,92.10702514648438
1667857270952583400,2.94058349609375,30.417816162109375,36.56742858886719,92.38177490234375
1667857270962737700,2.950737548828125,30.067031860351562,36.55781555175781,92.44021606445312
1667857270972891600,2.9608916015625,30.19903564453125,36.604278564453125,92.67897033691406
1667857270983045600,2.971045654296875,30.158660888671875,36.449615478515625,92.98153686523438
1667857270993199600,2.98119970703125,30.063003540039062,36.40234375,93.2205810546875
1667857271003353600,2.991353515625,29.8607177734375,36.36399841308594,93.2947998046875
1667857271013506300,3.00150634765625,29.926254272460938,36.15272521972656,93.44796752929688
1667857271023660500,3.01166064453125,29.812850952148438,36.139801025390625,93.74143981933594
1667857271033815300,3.021815185546875,29.645980834960938,35.98768615722656,93.95866394042969
1667857271043969300,3.03196923828125,29.732452392578125,35.90484619140625,94.43212890625
1667857271054123500,3.04212353515625,29.850173950195312,35.97755432128906,94.7584228515625
1667857271064278800,3.05227880859375,29.488449096679688,36.01792907714844,94.96804809570312
1667857271074433800,3.062433837890625,29.755691528320312,35.66746520996094,95.18110656738281
1667857271084588800,3.0725888671875,29.400482177734375,35.72184753417969,95.13301086425781
1667857271094742800,3.08274267578125,29.722320556640625,35.88812255859375,95.18544006347656
1667857271104898000,3.09289794921875,29.794921875,35.816314697265625,94.90318298339844
1667857271115053000,3.103052978515625,29.847076416015625,36.0517578125,94.61338806152344
1667857271125207800,3.113207763671875,29.841552734375,36.14222717285156,94.48707580566406
1667857271135361800,3.12336181640625,29.967620849609375,36.481597900390625,94.28567504882812
1667857271145515000,3.133514892578125,30.012802124023438,36.589111328125,93.94468688964844
1667857271155669000,3.1436689453125,30.242507934570312,37.06211853027344,93.99006652832031
1667857271165822700,3.15382275390625,30.148956298828125,37.27177429199219,93.52340698242188
1667857271175978000,3.16397802734375,30.7874755859375,37.55424499511719,93.19837951660156
1667857271186130700,3.174130615234375,30.763229370117188,37.83903503417969,93.2298583984375
1667857271196284700,3.18428466796875,30.745086669921875,38.03472900390625,93.08355712890625
1667857271206438700,3.194438720703125,30.744415283203125,38.12132263183594,93.22430419921875
1667857271216593000,3.204593017578125,31.084671020507812,38.1129150390625,93.36749267578125
1667857271226747000,3.214746826171875,31.154953002929688,38.4837646484375,93.26893615722656
1667857271236902000,3.22490185546875,30.972381591796875,38.4173583984375,93.59120178222656
1667857271247056000,3.235055908203125,31.169296264648438,38.75042724609375,93.90364074707031
1667857271257209900,3.2452099609375,31.211944580078125,38.802734375,94.10845947265625
1667857271267364900,3.25536474609375,30.936996459960938,38.70246887207031,94.23065185546875
1667857271277520000,3.265519775390625,30.820266723632812,38.77256774902344,94.48393249511719
1667857271287673900,3.275673828125,31.082504272460938,38.94403076171875,94.68412780761719
1667857271297828900,3.285828857421875,30.98956298828125,38.90632629394531,94.80445861816406
1667857271307984000,3.29598388671875,31.376693725585938,38.86460876464844,95.18490600585938
1667857271318137900,3.306137939453125,31.00030517578125,38.79249572753906,95.46064758300781
1667857271328292900,3.31629296875,30.859298706054688,38.89422607421875,95.73721313476562
1667857271338448000,3.32644775390625,30.84320068359375,38.90327453613281,95.87840270996094
1667857271348603000,3.336602783203125,31.086563110351562,39.05729675292969,96.15199279785156
1667857271358758000,3.3467578125,31.12353515625,38.989105224609375,96.13796997070312
1667857271368914000,3.356913818359375,31.107650756835938,38.860626220703125,96.283203125
1667857271379069000,3.36706884765625,30.867019653320312,38.6944580078125,96.42369079589844
1667857271389223000,3.377222900390625,30.990264892578125,38.64268493652344,96.25398254394531
1667857271399378000,3.3873779296875,30.781112670898438,38.5802001953125,96.25335693359375
1667857271409532000,3.397531982421875,30.8536376953125,38.55097961425781,96.2884521484375
1667857271419687000,3.40768701171875,30.7803955078125,38.58575439453125,96.01536560058594
1667857271429841000,3.4178408203125,30.806915283203125,38.33723449707031,96.16139221191406
1667857271439995000,3.427994873046875,30.944915771484375,38.429931640625,96.11912536621094
1667857271450150000,3.43814990234375,30.724273681640625,38.44441223144531,96.03041076660156
1667857271460304000,3.448303955078125,30.97991943359375,38.11161804199219,96.27279663085938
1667857271470457900,3.458457763671875,30.846664428710938,38.219207763671875,96.25413513183594
1667857271480611800,3.46861181640625,31.16290283203125,38.29109191894531,96.224609375
1667857271490765800,3.478765869140625,31.175506591796875,38.23834228515625,96.6982421875
1667857271500919800,3.488919921875,31.100433349609375,38.140869140625,96.96614074707031
1667857271511073800,3.49907373046875,31.121597290039062,38.309326171875,97.35935974121094
1667857271521227000,3.50922705078125,31.095184326171875,38.19580078125,97.78964233398438
1667857271531381000,3.519381103515625,31.134170532226562,38.287841796875,97.954833984375
1667857271541535000,3.529534912109375,31.14349365234375,38.38569641113281,98.42098999023438
1667857271551688000,3.53968798828125,31.005508422851562,38.544921875,98.56515502929688
1667857271561842000,3.549842041015625,31.246429443359375,38.33552551269531,98.48550415039062
1667857271571996000,3.559995849609375,30.893447875976562,38.43998718261719,98.55455017089844
1667857271582149600,3.570149658203125,31.213485717773438,38.225250244140625,98.32496643066406
1667857271592303900,3.580303955078125,31.217803955078125,38.32682800292969,98.22438049316406
1667857271602457900,3.590457763671875,31.448715209960938,38.46220397949219,97.957763671875
1667857271612611800,3.60061181640625,31.293365478515625,38.749725341796875,97.98165893554688
1667857271622766800,3.610766845703125,31.582778930664062,39.06251525878906,97.71453857421875
1667857271632919800,3.620919921875,31.98773193359375,39.5733642578125,97.77619934082031
1667857271643074800,3.63107470703125,32.085784912109375,39.79808044433594,97.81979370117188
1667857271653228800,3.641228759765625,32.385040283203125,39.91093444824219,97.68177795410156
1667857271663381800,3.6513818359375,32.353790283203125,40.11302185058594,97.91389465332031
1667857271673535700,3.66153564453125,32.535919189453125,40.532073974609375,97.59530639648438
1667857271683689000,3.67168896484375,32.48982238769531,40.52156066894531,97.48240661621094
1667857271693844000,3.681843994140625,32.682342529296875,40.40995788574219,97.28765869140625
1667857271703998000,3.691998046875,32.86109924316406,40.32086181640625,97.10435485839844
1667857271714152700,3.702152587890625,33.034454345703125,40.57450866699219,96.67904663085938
1667857271724307000,3.712306884765625,32.97285461425781,40.710357666015625,96.51426696777344
1667857271734461700,3.722461669921875,32.826690673828125,40.832427978515625,96.13768005371094
1667857271744615700,3.73261572265625,32.95832824707031,40.809173583984375,96.05078125
1667857271754770700,3.742770751953125,33.024444580078125,40.98887634277344,95.49812316894531
1667857271764926000,3.752926025390625,32.81166076660156,40.87480163574219,95.73014831542969
1667857271775080000,3.763079833984375,32.83660888671875,40.68559265136719,96.58401489257812
1667857271785234000,3.77323388671875,32.35394287109375,40.141937255859375,97.76071166992188
1667857271795389000,3.783388916015625,32.1729736328125,39.653228759765625,99.17958068847656
1667857271805543000,3.79354296875,31.632568359375,38.29945373535156,100.34555053710938
1667857271815696000,3.80369580078125,30.84759521484375,37.17323303222656,101.02824401855469
1667857271825851000,3.813850830078125,30.47271728515625,36.0865478515625,101.20768737792969
1667857271836004900,3.8240048828125,29.955474853515625,35.456787109375,100.7108154296875
1667857271846158800,3.834158935546875,29.8133544921875,35.104888916015625,100.20826721191406
1667857271856313900,3.84431396484375,30.08544921875,35.01905822753906,99.46609497070312
1667857271866467800,3.8544677734375,29.902145385742188,35.240936279296875,98.8470458984375
1667857271876622800,3.864622802734375,29.990478515625,35.41816711425781,98.73410034179688
1667857271886776000,3.874776123046875,30.225173950195312,35.722686767578125,98.79702758789062
1667857271896930800,3.884930908203125,30.45867919921875,35.69917297363281,99.30218505859375
1667857271907085800,3.8950859375,30.094375610351562,35.61241149902344,99.63037109375
1667857271917239800,3.90523974609375,29.905487060546875,35.21955871582031,100.14414978027344
1667857271927393800,3.915393798828125,29.88543701171875,34.63777160644531,100.1943359375
1667857271937548000,3.925548095703125,29.603225708007812,34.254638671875,100.33152770996094
1667857271947702000,3.935701904296875,29.785446166992188,33.79937744140625,100.26605224609375
1667857271957854700,3.945854736328125,29.38519287109375,33.41221618652344,100.076904296875
1667857271968008700,3.9560087890625,29.18145751953125,32.970947265625,100.12567138671875
1667857271978162700,3.96616259765625,28.832870483398438,32.51731872558594,99.95071411132812
1667857271988316700,3.976316650390625,28.727676391601562,32.2813720703125,100.10885620117188
1667857271998470700,3.986470703125,28.883682250976562,32.27052307128906,100.09068298339844
1667857272008625000,3.996625,28.599075317382812,32.029327392578125,100.15701293945312
1667857272018779600,4.006779541015625,28.581329345703125,31.852691650390625,100.58041381835938
1667857272028934000,4.016933837890625,28.647323608398438,31.68035888671875,100.76351928710938
1667857272039087900,4.027087890625,28.545730590820312,31.713043212890625,100.9688720703125
1667857272049243000,4.037242919921875,28.642105102539062,31.7470703125,101.22920227050781
1667857272059396000,4.04739599609375,28.821029663085938,31.870773315429688,101.53266906738281
1667857272069550000,4.057550048828125,28.753402709960938,31.911636352539062,101.96408081054688
1667857272079704000,4.0677041015625,28.550491333007812,31.9403076171875,102.19071960449219
1667857272089859000,4.077859130859375,28.578048706054688,31.705642700195312,102.43367004394531
1667857272100013000,4.088012939453125,28.6234130859375,31.457901000976562,102.46356201171875
1667857272110166000,4.098166015625,28.665969848632812,31.039764404296875,102.38423156738281
1667857272120320000,4.108320068359375,28.751266479492188,30.714920043945312,102.34967041015625
1667857272130474000,4.118473876953125,28.04583740234375,30.300765991210938,102.11962890625
1667857272140629000,4.12862890625,27.888885498046875,29.82073974609375,101.90571594238281
1667857272150783000,4.138782958984375,27.96136474609375,29.01226806640625,101.89289855957031
1667857272160937000,4.14893701171875,27.711349487304688,28.664108276367188,101.51921081542969
1667857272171091200,4.15909130859375,27.49066162109375,28.3057861328125,101.34666442871094
1667857272181245200,4.1692451171875,27.390350341796875,27.978240966796875,101.26176452636719
1667857272191399200,4.179399169921875,27.468719482421875,27.797088623046875,101.27645874023438
1667857272201554200,4.18955419921875,27.4149169921875,27.751541137695312,101.22331237792969
1667857272211709000,4.199708984375,27.090011596679688,28.049957275390625,101.33343505859375
1667857272221864000,4.209864013671875,27.31268310546875,28.095947265625,101.455810546875
1667857272232019000,4.22001904296875,27.168609619140625,28.360214233398438,101.44265747070312
1667857272242174000,4.230174072265625,27.436248779296875,28.435791015625,101.70248413085938
1667857272252329200,4.2403291015625,27.360763549804688,28.3482666015625,101.87458801269531
1667857272262483200,4.250483154296875,27.08209228515625,28.064208984375,101.85137939453125
1667857272272638200,4.26063818359375,26.861297607421875,27.818023681640625,101.74098205566406
1667857272282793000,4.27079296875,27.232177734375,27.670761108398438,101.60411071777344
1667857272292948000,4.280947998046875,27.02813720703125,27.29248046875,101.34478759765625
1667857272303102000,4.29110205078125,27.143661499023438,27.104644775390625,101.25192260742188
1667857272313257000,4.301257080078125,27.208053588867188,26.8536376953125,101.11930847167969
1667857272323410000,4.311409912109375,27.031692504882812,26.881607055664062,100.76004028320312
1667857272333565000,4.32156494140625,26.816375732421875,26.65228271484375,100.59799194335938
1667857272343719000,4.331718994140625,26.8424072265625,26.510223388671875,100.30326843261719
1667857272353873000,4.341872802734375,27.179779052734375,26.389816284179688,100.04266357421875
1667857272364026000,4.352026123046875,26.9927978515625,26.381881713867188,99.92083740234375
1667857272374179000,4.362178955078125,27.079574584960938,26.264602661132812,99.93923950195312
1667857272384333000,4.3723330078125,27.039810180664062,26.351043701171875,99.90447998046875
1667857272394488000,4.382488037109375,26.927001953125,26.154541015625,100.15596008300781
1667857272404642000,4.39264208984375,26.904098510742188,25.6082763671875,100.21185302734375
1667857272414796000,4.402796142578125,26.798355102539062,25.639633178710938,100.13565063476562
1667857272424950000,4.412949951171875,26.974090576171875,25.2393798828125,100.29533386230469
1667857272435103000,4.42310302734375,26.314422607421875,25.1011962890625,100.21630859375
1667857272445257000,4.433257080078125,26.6942138671875,24.857284545898438,100.31663513183594
1667857272455411000,4.443410888671875,26.705307006835938,24.608154296875,100.34483337402344
1667857272465564000,4.45356396484375,26.475341796875,24.316726684570312,100.57759094238281
1667857272475718100,4.46371826171875,26.785919189453125,24.386795043945312,100.55270385742188
1667857272485871000,4.47387109375,26.399078369140625,24.413375854492188,100.61544799804688
1667857272496025000,4.484025146484375,26.3760986328125,24.25592041015625,100.90155029296875
1667857272506179000,4.494178955078125,26.325469970703125,24.381546020507812,101.07209777832031
1667857272516332000,4.50433203125,26.631439208984375,24.236480712890625,101.15940856933594
1667857272526485000,4.514485107421875,26.613555908203125,24.397323608398438,101.36988830566406
1667857272536640000,4.524639892578125,26.57891845703125,24.349990844726562,101.51748657226562
1667857272546793000,4.53479296875,26.402587890625,24.478744506835938,101.54129028320312
1667857272556947000,4.544947021484375,26.525421142578125,24.439804077148438,101.55685424804688
1667857272567102000,4.55510205078125,26.5023193359375,24.474685668945312,101.82388305664062
1667857272577256000,4.565255859375,26.839431762695312,24.622100830078125,101.92872619628906
1667857272587410000,4.575409912109375,26.636688232421875,24.5780029296875,101.9542236328125
1667857272597564000,4.58556396484375,26.717361450195312,24.50616455078125,102.18739318847656
1667857272607718000,4.5957177734375,26.623001098632812,24.508956909179688,102.18319702148438
1667857272617873000,4.605872802734375,26.583587646484375,24.433547973632812,102.44331359863281
1667857272628027000,4.61602685546875,26.629592895507812,24.793975830078125,102.25625610351562
1667857272638180900,4.626180908203125,26.676483154296875,24.795303344726562,102.14898681640625
1667857272648335000,4.636335205078125,26.883468627929688,24.835067749023438,102.14761352539062
1667857272658488000,4.646488037109375,26.63995361328125,24.760757446289062,102.01307678222656
1667857272668642000,4.65664208984375,26.646759033203125,24.896392822265625,101.71928405761719
1667857272678795000,4.666794921875,26.689132690429688,25.076431274414062,101.69281005859375
1667857272688948000,4.676947998046875,26.629150390625,25.129989624023438,101.70249938964844
1667857272699102000,4.68710205078125,26.712844848632812,25.055450439453125,101.76853942871094
1667857272709255000,4.6972548828125,26.87042236328125,24.9818115234375,101.54904174804688
1667857272719408000,4.707408203125,26.79913330078125,25.4915771484375,101.16783142089844
1667857272729563000,4.71756298828125,26.702850341796875,25.355255126953125,101.17869567871094
1667857272739717000,4.727717041015625,26.828720092773438,25.50408935546875,101.22090148925781
1667857272749871000,4.73787109375,26.673065185546875,25.935882568359375,101.09611511230469
1667857272760025000,4.748025146484375,26.983062744140625,25.88787841796875,101.19126892089844
1667857272770179000,4.758178955078125,26.919525146484375,26.274749755859375,101.09979248046875
1667857272780333000,4.7683330078125,27.014785766601562,26.458511352539062,101.22178649902344
1667857272790486000,4.778486083984375,27.083465576171875,26.60870361328125,101.23356628417969
1667857272800640000,4.788639892578125,27.136962890625,26.710845947265625,101.43321228027344
1667857272810793000,4.79879296875,27.072158813476562,26.887237548828125,101.44660949707031
1667857272820947000,4.808947021484375,27.020294189453125,27.142257690429688,101.34573364257812
1667857272831100000,4.819099853515625,27.04364013671875,27.44921875,101.21372985839844
1667857272841253000,4.829253173828125,27.3822021484375,27.707656860351562,101.23300170898438
1667857272851407000,4.839406982421875,27.025894165039062,27.799697875976562,101.20388793945312
1667857272861559000,4.84955908203125,27.194793701171875,27.915634155273438,101.35047912597656
1667857272871712000,4.8597119140625,26.865768432617188,28.169830322265625,101.51284790039062
1667857272881866000,4.869865966796875,27.240402221679688,28.506744384765625,101.51564025878906
1667857272892019000,4.88001904296875,27.361663818359375,28.40533447265625,101.25009155273438
1667857272902174000,4.890174072265625,27.25433349609375,28.591690063476562,101.25198364257812
1667857272912328000,4.900327880859375,27.343948364257812,28.683425903320312,101.26112365722656
1667857272922482000,4.91048193359375,27.058135986328125,28.811935424804688,101.286865234375
1667857272932635100,4.92063525390625,27.509521484375,28.922927856445312,101.35404968261719
1667857272942786800,4.930786865234375,27.635833740234375,29.147598266601562,101.340087890625
1667857272952940000,4.94093994140625,27.727554321289062,29.167266845703125,101.56074523925781
1667857272963094000,4.951093994140625,27.789413452148438,29.229827880859375,101.79655456542969
1667857272973249000,4.9612490234375,27.79705810546875,29.597030639648438,101.90689086914062
1667857272983403000,4.971403076171875,27.913925170898438,29.861557006835938,102.28622436523438
1667857272993558000,4.98155810546875,28.073257446289062,29.733306884765625,102.67111206054688
1667857273003711000,4.9917109375,27.826339721679688,29.921173095703125,102.96284484863281
1667857273013865000,5.001864990234375,27.850372314453125,30.24261474609375,103.24534606933594
1667857273024019000,5.01201904296875,28.137283325195312,30.296417236328125,103.54533386230469
1667857273034174000,5.022174072265625,28.11993408203125,30.674530029296875,103.83671569824219
1667857273044328000,5.032327880859375,28.233627319335938,30.949127197265625,103.85227966308594
1667857273054481200,5.042481201171875,28.6588134765625,31.192733764648438,104.01725769042969
1667857273064636400,5.052636474609375,28.761993408203125,31.409286499023438,104.30764770507812
1667857273074790400,5.062790283203125,28.630126953125,31.772735595703125,103.979736328125
1667857273084944400,5.0729443359375,28.792068481445312,32.39408874511719,103.86207580566406
1667857273095098400,5.083098388671875,28.985183715820312,33.018463134765625,103.59867858886719
1667857273105253400,5.09325341796875,29.081863403320312,33.65367126464844,103.0810546875
1667857273115407400,5.103407470703125,29.721206665039062,34.35807800292969,102.65492248535156
1667857273125561600,5.1135615234375,29.7021484375,35.03965759277344,101.97282409667969
1667857273135716400,5.12371630859375,29.906707763671875,35.76063537597656,101.49179077148438
1667857273145869600,5.13386962890625,30.252670288085938,36.74571228027344,100.87046813964844
1667857273156024600,5.144024658203125,30.666717529296875,37.82440185546875,100.25440979003906
1667857273166179300,5.154179443359375,31.454681396484375,38.56886291503906,99.7747802734375
1667857273176333300,5.164333251953125,31.43646240234375,39.28985595703125,99.44239807128906
1667857273186487600,5.174487548828125,32.23133850097656,40.07173156738281,99.10963439941406
1667857273196641500,5.1846416015625,32.294464111328125,40.46803283691406,99.02049255371094
1667857273206795500,5.19479541015625,32.78703308105469,40.934722900390625,99.21278381347656
1667857273216949500,5.204949462890625,32.75993347167969,41.26155090332031,98.96849060058594
1667857273227103500,5.215103515625,33.15277099609375,41.76731872558594,99.26994323730469
1667857273237256200,5.225256103515625,33.51933288574219,41.938140869140625,99.28096008300781
1667857273247410200,5.23541015625,33.70429992675781,42.16986083984375,99.8460693359375
1667857273257564400,5.245564453125,33.56396484375,42.410308837890625,99.78544616699219
1667857273267717400,5.25571728515625,33.771820068359375,42.63301086425781,99.95045471191406
1667857273277871400,5.265871337890625,33.775115966796875,42.75505065917969,100.32292175292969
1667857273288024300,5.2760244140625,33.52239990234375,42.841217041015625,100.53688049316406
1667857273298178600,5.286178466796875,33.9149169921875,43.047393798828125,100.90509033203125
1667857273308332500,5.29633251953125,33.97584533691406,43.28352355957031,101.08638000488281
1667857273318485500,5.306485595703125,34.17927551269531,43.45307922363281,101.23931884765625
1667857273328638200,5.31663818359375,34.44425964355469,43.78544616699219,101.50152587890625
1667857273338793500,5.32679345703125,34.3193359375,43.98136901855469,101.61865234375
1667857273348946400,5.336946533203125,34.59690856933594,44.18721008300781,101.92337036132812
1667857273359100400,5.347100341796875,35.07789611816406,44.57002258300781,101.53273010253906
1667857273369253400,5.35725341796875,35.16044616699219,44.924896240234375,101.42268371582031
1667857273379407400,5.367407470703125,35.60166931152344,45.489501953125,101.39688110351562
1667857273389560600,5.377560546875,35.760498046875,45.922943115234375,101.04829406738281
1667857273399714600,5.387714599609375,36.23609924316406,46.2216796875,101.00010681152344
1667857273409867300,5.3978671875,36.584014892578125,46.598968505859375,100.97763061523438
1667857273420020200,5.408020263671875,36.55921936035156,46.79985046386719,100.94044494628906
1667857273430173400,5.41817333984375,36.7147216796875,46.890533447265625,100.818115234375
1667857273440327400,5.428327392578125,36.50482177734375,46.66001892089844,100.90684509277344
1667857273450481400,5.4384814453125,36.61000061035156,46.76322937011719,100.66719055175781
1667857273460635400,5.448635498046875,36.230010986328125,46.27586364746094,100.6881103515625
1667857273470789400,5.458789306640625,35.78984069824219,46.02210998535156,100.76728820800781
1667857273480942600,5.468942626953125,35.77748107910156,45.738311767578125,100.56797790527344
1667857273491096600,5.4790966796875,35.89558410644531,45.911956787109375,100.44700622558594
1667857273501250600,5.48925048828125,35.3408203125,45.62335205078125,100.30645751953125
1667857273511403300,5.4994033203125,35.41325378417969,45.49656677246094,100.23052978515625
1667857273521556500,5.509556396484375,35.2518310546875,45.394989013671875,100.22720336914062
1667857273531710500,5.51971044921875,35.079681396484375,45.201385498046875,99.99331665039062
1667857273541864400,5.529864501953125,35.28172302246094,45.27024841308594,99.84953308105469
1667857273552017400,5.540017333984375,34.73048400878906,44.889312744140625,99.66685485839844
1667857273562171400,5.55017138671875,34.6092529296875,44.70806884765625,99.49214172363281
1667857273572323300,5.5603232421875,34.592193603515625,44.589111328125,99.32020568847656
1667857273582476300,5.570476318359375,34.197998046875,44.163665771484375,99.20132446289062
1667857273592629500,5.58062939453125,34.27815246582031,43.71978759765625,98.94850158691406
1667857273602782500,5.590782470703125,34.05839538574219,43.5928955078125,98.7310791015625
1667857273612936400,5.6009365234375,33.77752685546875,43.200286865234375,98.50892639160156
1667857273623089400,5.61108935546875,33.48002624511719,42.90751647949219,98.34217834472656
1667857273633243400,5.621243408203125,33.409423828125,42.779022216796875,98.15872192382812
1667857273643396400,5.631396240234375,33.05097961425781,42.52545166015625,97.83296203613281
1667857273653549300,5.64154931640625,32.894805908203125,42.15008544921875,97.88093566894531
1667857273663702500,5.65170263671875,32.34147644042969,41.68849182128906,97.87757873535156
1667857273673855200,5.661855224609375,31.978073120117188,41.294769287109375,97.63484191894531
1667857273684008400,5.672008544921875,31.8604736328125,40.68544006347656,97.65049743652344
1667857273694161400,5.682161376953125,31.313888549804688,40.33628845214844,97.60758972167969
1667857273704315400,5.6923154296875,30.884002685546875,40.00898742675781,97.29034423828125
1667857273714469400,5.702469482421875,30.74029541015625,39.194122314453125,97.27334594726562
1667857273724623400,5.712623291015625,30.359161376953125,38.42024230957031,97.29307556152344
1667857273734776600,5.722776611328125,30.263534545898438,37.96217346191406,97.34210205078125
1667857273744930600,5.7329306640625,30.047988891601562,37.28849792480469,97.22251892089844
1667857273755083300,5.743083251953125,29.48492431640625,36.412139892578125,97.33451843261719
1667857273765236500,5.753236572265625,29.15350341796875,35.848663330078125,97.26425170898438
1667857273775389400,5.763389404296875,28.903396606445312,35.196136474609375,97.35452270507812
1667857273785542400,5.77354248046875,28.6724853515625,34.361663818359375,97.42253112792969
1667857273795696400,5.7836962890625,28.425979614257812,33.912353515625,97.32171630859375
1667857273805849300,5.793849365234375,28.399993896484375,33.29573059082031,97.47634887695312
1667857273816002300,5.804002197265625,28.052459716796875,32.4190673828125,97.40264892578125
1667857273826155500,5.814155517578125,28.003646850585938,32.021820068359375,97.44049072265625
1667857273836307200,5.82430712890625,27.566024780273438,31.328964233398438,97.57781982421875
1667857273846461200,5.834461181640625,27.357818603515625,30.8048095703125,97.52571105957031
1667857273856614400,5.844614501953125,27.119003295898438,30.245956420898438,97.65664672851562
1667857273866767400,5.854767333984375,27.248046875,29.803176879882812,97.62089538574219
1667857273876920600,5.864920654296875,27.22320556640625,29.731735229492188,97.57527160644531
1667857273887074600,5.875074462890625,26.87371826171875,29.57867431640625,97.420654296875
1667857273897227300,5.885227294921875,26.992355346679688,29.252685546875,97.67909240722656
1667857273907381200,5.89538134765625,26.994033813476562,29.393386840820312,97.56520080566406
1667857273917535200,5.90553515625,26.80181884765625,29.365249633789062,97.61143493652344
1667857273927689200,5.915689208984375,27.10137939453125,29.393463134765625,97.362060546875
1667857273937844500,5.925844482421875,27.063690185546875,29.658645629882812,97.58857727050781
1667857273947998200,5.935998291015625,27.34197998046875,29.83416748046875,97.28495788574219
1667857273958152200,5.946152099609375,27.098220825195312,30.167755126953125,97.47825622558594
1667857273968305400,5.956305419921875,27.412872314453125,30.413330078125,97.44557189941406
1667857273978460400,5.96646044921875,27.480682373046875,30.880477905273438,97.03367614746094
1667857273988615400,5.976615478515625,27.41094970703125,31.088287353515625,97.10594177246094
1667857273998769400,5.986769287109375,27.324203491210938,31.3663330078125,97.00273132324219
1667857274008924400,5.99692431640625,27.2861328125,31.474899291992188,97.17057800292969
1667857274019078400,6.007078369140625,27.752304077148438,31.6822509765625,97.11392211914062
1667857274029233400,6.0172333984375,27.756744384765625,31.954681396484375,97.07283020019531
1667857274039387400,6.027387451171875,27.725341796875,32.37828063964844,96.88291931152344
1667857274049541400,6.037541259765625,28.045425415039062,32.61285400390625,96.90821838378906
1667857274059695900,6.04769580078125,28.281295776367188,32.996490478515625,96.90718078613281
1667857274069849900,6.057849853515625,28.454238891601562,33.150360107421875,97.01817321777344
1667857274080004900,6.0680048828125,28.418930053710938,33.23663330078125,96.88177490234375
1667857274090159900,6.078159912109375,28.5849609375,33.43580627441406,96.82891845703125
1667857274100313900,6.08831396484375,28.7501220703125,33.512664794921875,97.00205993652344
1667857274110467800,6.0984677734375,28.6319580078125,33.892486572265625,96.71101379394531
1667857274120622800,6.108622802734375,28.800460815429688,34.11814880371094,96.58848571777344
1667857274130777900,6.11877783203125,28.918899536132812,34.39533996582031,96.55986022949219
1667857274140932900,6.128932861328125,28.6793212890625,34.63963317871094,96.65216064453125
1667857274151086800,6.1390869140625,29.200271606445312,34.97332763671875,96.63468933105469
1667857274161242000,6.1492421875,29.158462524414062,35.14176940917969,96.63569641113281
1667857274171396900,6.15939697265625,29.179428100585938,35.56011962890625,96.61227416992188
1667857274181549800,6.1695498046875,29.205215454101562,35.47157287597656,96.75039672851562
1667857274191705000,6.179705078125,29.581634521484375,35.77888488769531,96.58482360839844
1667857274201859000,6.189859130859375,29.679702758789062,36.0211181640625,96.78309631347656
1667857274212013000,6.200012939453125,29.776519775390625,35.90235900878906,96.73268127441406
1667857274222167000,6.2101669921875,29.840423583984375,36.20469665527344,96.64045715332031
1667857274232320800,6.22032080078125,29.829879760742188,36.39402770996094,96.61619567871094
1667857274242474800,6.230474853515625,29.798446655273438,36.56922912597656,96.45480346679688
1667857274252628700,6.240628662109375,29.73150634765625,36.47923278808594,96.398193359375
1667857274262784000,6.250783935546875,29.724594116210938,36.641998291015625,96.30166625976562
1667857274272936700,6.260936767578125,29.691070556640625,36.481201171875,96.35014343261719
1667857274283091000,6.271091064453125,29.645782470703125,36.60740661621094,96.22817993164062
1667857274293244000,6.281243896484375,29.852432250976562,36.695831298828125,96.25485229492188
1667857274303398000,6.29139794921875,29.892807006835938,36.67942810058594,96.04829406738281
1667857274313550800,6.30155078125,30.2064208984375,36.81602478027344,96.02885437011719
1667857274323704000,6.3117041015625,30.132598876953125,36.80625915527344,95.94004821777344
1667857274333856800,6.321856689453125,30.238723754882812,36.86192321777344,96.08128356933594
1667857274344010000,6.332010009765625,29.961044311523438,36.89801025390625,95.83795166015625
1667857274354164000,6.3421640625,30.0814208984375,37.01066589355469,95.85145568847656
1667857274364317000,6.35231689453125,30.283493041992188,36.987091064453125,95.83183288574219
1667857274374470000,6.362469970703125,30.212188720703125,36.90716552734375,95.74272155761719
1667857274384624000,6.3726240234375,30.210403442382812,36.840789794921875,95.84211730957031
1667857274394776800,6.38277685546875,30.1075439453125,36.83436584472656,95.69232177734375
1667857274404929800,6.3929296875,30.270828247070312,36.87672424316406,95.68893432617188
1667857274415083800,6.403083740234375,29.875381469726562,37.027191162109375,95.60212707519531
1667857274425237000,6.413237060546875,30.145553588867188,37.0028076171875,95.62014770507812
1667857274435390000,6.423389892578125,30.413848876953125,37.208953857421875,95.4605712890625
1667857274445544000,6.4335439453125,30.416839599609375,37.439788818359375,95.339599609375
1667857274455697000,6.44369677734375,30.592391967773438,37.654876708984375,95.12454223632812
1667857274465849900,6.453849853515625,31.016204833984375,38.07745361328125,95.10333251953125
1667857274476003800,6.46400390625,31.093582153320312,38.500701904296875,95.09431457519531
1667857274486157000,6.474156982421875,31.234710693359375,39.051025390625,94.78549194335938
1667857274496311000,6.48431103515625,31.401657104492188,39.3514404296875,94.78952026367188
1667857274506465000,6.494465087890625,31.872802734375,39.696014404296875,94.90118408203125
1667857274516618000,6.504617919921875,32.12335205078125,40.14588928222656,94.80426025390625
1667857274526772000,6.51477197265625,32.19834899902344,40.23406982421875,94.82406616210938
1667857274536925700,6.52492578125,32.236480712890625,40.58489990234375,94.83993530273438
1667857274547079000,6.535078857421875,32.46104431152344,40.77983093261719,94.80902099609375
1667857274557233000,6.54523291015625,32.80494689941406,40.87879943847656,94.68490600585938
1667857274567385900,6.5553857421875,32.92033386230469,41.17414855957031,94.89820861816406
1667857274577539000,6.5655390625,32.913177490234375,41.33436584472656,94.67713928222656
1667857274587692000,6.575692138671875,33.08673095703125,41.46601867675781,94.53915405273438
1667857274597844700,6.5858447265625,33.107391357421875,41.66423034667969,94.13203430175781
1667857274607998700,6.595998779296875,33.278656005859375,42.179656982421875,93.8792724609375
1667857274618153000,6.606153076171875,33.76200866699219,42.39886474609375,93.880126953125
1667857274628307000,6.616306884765625,34.14634704589844,42.88739013671875,93.59944152832031
1667857274638461000,6.6264609375,34.19749450683594,43.22560119628906,93.5838623046875
1667857274648616000,6.636615966796875,34.629486083984375,43.38960266113281,93.41009521484375
1667857274658770000,6.64677001953125,34.898193359375,43.71186828613281,93.34111022949219
1667857274668924000,6.656923828125,35.077484130859375,44.14808654785156,92.86997985839844
1667857274679076900,6.667076904296875,35.5426025390625,44.40452575683594,92.72348022460938
1667857274689229000,6.67722900390625,35.568603515625,44.7520751953125,92.27163696289062
1667857274699381800,6.6873818359375,36.25981140136719,45.046356201171875,91.91619873046875
1667857274709535000,6.697534912109375,36.34318542480469,45.03739929199219,91.59072875976562
1667857274719689000,6.70768896484375,36.22650146484375,45.05879211425781,91.15719604492188
1667857274729843000,6.717843017578125,36.350433349609375,44.93962097167969,90.92521667480469
1667857274739996000,6.727995849609375,36.17552185058594,44.791961669921875,91.08442687988281
1667857274750150000,6.73814990234375,35.711273193359375,44.25981140136719,91.50181579589844
1667857274760303000,6.74830322265625,35.08015441894531,43.62364196777344,92.03135681152344
1667857274770455800,6.758455810546875,34.718505859375,43.08631896972656,92.61019897460938
1667857274780609800,6.76860986328125,34.22627258300781,42.475616455078125,93.04994201660156
1667857274790763000,6.778762939453125,33.98155212402344,41.79530334472656,93.06938171386719
1667857274800916000,6.788916015625,33.836639404296875,41.585540771484375,92.68455505371094
1667857274811069000,6.79906884765625,34.072418212890625,41.93391418457031,92.06642150878906
1667857274821222000,6.809221923828125,34.19285583496094,42.26548767089844,91.66970825195312
1667857274831374800,6.819374755859375,34.528167724609375,42.877899169921875,91.38113403320312
1667857274841528000,6.829528076171875,34.97505187988281,43.00189208984375,91.22610473632812
1667857274851679700,6.8396796875,35.00202941894531,43.289764404296875,91.61891174316406
1667857274861833000,6.8498330078125,34.987823486328125,43.44508361816406,92.05410766601562
1667857274871986000,6.85998583984375,34.740325927734375,43.1842041015625,92.73844909667969
1667857274882139000,6.870138916015625,34.331878662109375,42.86500549316406,93.41572570800781
1667857274892291800,6.880291748046875,34.0985107421875,42.32452392578125,93.87132263183594
1667857274902443800,6.89044384765625,33.53059387207031,41.84796142578125,94.01315307617188
1667857274912598000,6.900597900390625,33.245361328125,41.32267761230469,93.9638671875
1667857274922752000,6.910751953125,32.68778991699219,40.61962890625,94.10081481933594
1667857274932905000,6.920905029296875,32.57733154296875,40.02247619628906,93.95991516113281
1667857274943059000,6.931058837890625,32.33909606933594,39.47412109375,93.67364501953125
1667857274953214000,6.9412138671875,32.10289001464844,39.26976013183594,93.42869567871094
1667857274963367000,6.951366943359375,31.885665893554688,38.987762451171875,93.39569091796875
1667857274973521000,6.96152099609375,31.861190795898438,38.676422119140625,93.17724609375
1667857274983675000,6.9716748046875,31.734710693359375,38.34205627441406,92.98890686035156
1667857274993829000,6.9818291015625,31.22265625,37.826019287109375,92.86637878417969
1667857275003983000,6.991983154296875,30.948318481445312,37.27943420410156,92.50344848632812
1667857275014135800,7.0021357421875,30.852584838867188,36.65826416015625,92.50216674804688
1667857275024290800,7.012290771484375,30.57464599609375,36.14361572265625,92.45626831054688
1667857275034444800,7.02244482421875,30.525497436523438,35.534820556640625,92.27375793457031
1667857275044597800,7.03259765625,30.108184814453125,34.683013916015625,92.45179748535156
1667857275054752000,7.042751953125,29.779541015625,34.16307067871094,92.63572692871094
1667857275064906200,7.05290625,29.77801513671875,33.62391662597656,93.02778625488281
1667857275075061000,7.06306103515625,29.479522705078125,33.12091064453125,93.36279296875
1667857275085216000,7.073216064453125,29.287689208984375,32.80601501464844,93.90267944335938
1667857275095370000,7.083369873046875,28.811737060546875,32.46478271484375,94.70390319824219
1667857275105525000,7.09352490234375,28.838973999023438,32.240966796875,95.20538330078125
1667857275115679000,7.103678955078125,28.575775146484375,32.12571716308594,96.18376159667969
1667857275125834200,7.113834228515625,28.850387573242188,31.81317138671875,96.89669799804688
1667857275135988000,7.123988037109375,28.51763916015625,31.951202392578125,97.23744201660156
1667857275146142000,7.134141845703125,28.645767211914062,31.954254150390625,97.93379211425781
1667857275156296000,7.1442958984375,28.623992919921875,31.772491455078125,98.42253112792969
1667857275166450000,7.154449951171875,28.626861572265625,31.969268798828125,98.67500305175781
1667857275176604200,7.164604248046875,28.587753295898438,31.753433227539062,99.10624694824219
1667857275186758100,7.174758056640625,28.445236206054688,31.481185913085938,99.249267578125
1667857275196912000,7.184912109375,28.342620849609375,31.332839965820312,99.39921569824219
1667857275207066000,7.195066162109375,28.43438720703125,31.17864990234375,99.405029296875
1667857275217219000,7.205218994140625,28.22760009765625,30.824188232421875,99.6417236328125
1667857275227373000,7.215373046875,28.176971435546875,30.5404052734375,99.54417419433594
1667857275237528000,7.225528076171875,28.224334716796875,30.107589721679688,99.42308044433594
1667857275247683000,7.23568310546875,27.929183959960938,29.695281982421875,99.01077270507812
1667857275257838000,7.245838134765625,27.875076293945312,29.236480712890625,99.02735900878906
1667857275267992000,7.255991943359375,27.89898681640625,28.892715454101562,98.46817016601562
1667857275278147300,7.266147216796875,27.768402099609375,28.625091552734375,98.34861755371094
1667857275288301300,7.27630126953125,27.54595947265625,28.3948974609375,98.21522521972656
1667857275298455000,7.286455078125,27.812225341796875,28.123016357421875,97.86900329589844
1667857275308609000,7.296609130859375,27.3946533203125,27.979156494140625,97.75032043457031
1667857275318762000,7.306761962890625,27.535995483398438,27.65679931640625,97.83869934082031
1667857275328916000,7.316916015625,27.58868408203125,27.59564208984375,97.84951782226562
1667857275339070200,7.3270703125,27.504989624023438,27.5147705078125,97.84129333496094
1667857275349223200,7.33722314453125,27.300827026367188,27.299484252929688,98.02059936523438
1667857275359376100,7.347376220703125,27.089981079101562,27.332595825195312,97.98794555664062
1667857275369530000,7.357530029296875,27.188140869140625,27.346954345703125,98.27447509765625
1667857275379683000,7.36768310546875,27.497299194335938,27.453399658203125,98.54818725585938
1667857275389837000,7.377837158203125,27.322952270507812,27.724380493164062,98.84855651855469
1667857275399990000,7.387989990234375,27.36407470703125,27.6611328125,99.11138916015625
1667857275410143200,7.398143310546875,27.678375244140625,27.894012451171875,99.40023803710938
1667857275420296200,7.408296142578125,27.492431640625,27.700775146484375,99.61758422851562
1667857275430450200,7.4184501953125,27.605194091796875,27.90472412109375,99.82579040527344
1667857275440604200,7.428604248046875,27.470443725585938,27.643707275390625,100.00434875488281
1667857275450757000,7.438757080078125,27.134765625,27.544174194335938,100.14375305175781
1667857275460911000,7.4489111328125,27.206268310546875,27.526657104492188,100.1961669921875
1667857275471065000,7.459065185546875,27.166732788085938,27.333786010742188,100.12701416015625
1667857275481219000,7.469218994140625,27.13031005859375,27.077789306640625,100.19660949707031
1667857275491373000,7.479373046875,27.234527587890625,26.99176025390625,100.07145690917969
1667857275501527000,7.489527099609375,27.14288330078125,26.717697143554688,100.25700378417969
1667857275511681000,7.499680908203125,27.191986083984375,26.650802612304688,100.25410461425781
1667857275521835000,7.5098349609375,27.134628295898438,26.658126831054688,100.13233947753906
1667857275531990000,7.519989990234375,26.9273681640625,26.3375244140625,100.38485717773438
1667857275542145000,7.53014501953125,26.948348999023438,26.244827270507812,100.11250305175781
1667857275552300300,7.54030029296875,27.113204956054688,26.1334228515625,100.370361328125
1667857275562454300,7.550454345703125,26.997116088867188,26.223419189453125,100.22900390625
1667857275572609300,7.560609375,27.017013549804688,26.096267700195312,100.33319091796875
1667857275582763300,7.57076318359375,26.974044799804688,26.064529418945312,100.33599853515625
1667857275592917200,7.580917236328125,26.629638671875,25.979446411132812,100.18162536621094
1667857275603071200,7.5910712890625,26.631866455078125,25.666183471679688,100.2791748046875
1667857275613225200,7.60122509765625,26.620162963867188,25.772186279296875,100.20903015136719
1667857275623380200,7.611380126953125,26.634002685546875,25.511550903320312,100.30833435058594
1667857275633534200,7.6215341796875,26.81146240234375,25.34124755859375,100.42303466796875
1667857275643688200,7.631688232421875,26.8765869140625,25.416213989257812,100.37770080566406
1667857275653842200,7.64184228515625,26.881637573242188,25.210845947265625,100.506103515625
1667857275663996200,7.65199609375,26.815902709960938,25.424713134765625,100.33729553222656
1667857275674150100,7.662150146484375,27.011245727539062,25.411651611328125,100.47990417480469
1667857275684305200,7.67230517578125,26.84747314453125,25.542831420898438,100.52220153808594
1667857275694459100,7.682459228515625,26.759750366210938,25.41558837890625,100.50009155273438
1667857275704613000,7.692613037109375,26.9202880859375,25.227386474609375,100.57064819335938
1667857275714767000,7.70276708984375,26.917892456054688,25.439422607421875,100.65975952148438
1667857275724922000,7.712922119140625,26.863632202148438,25.48577880859375,100.75248718261719
1667857275735076000,7.723076171875,27.011978149414062,25.513412475585938,100.73556518554688
1667857275745229000,7.73322900390625,26.916717529296875,25.603042602539062,100.55500793457031
1667857275755383000,7.743383056640625,27.035049438476562,25.463485717773438,100.86557006835938
1667857275765537000,7.753537109375,26.888046264648438,25.452011108398438,100.69136047363281
1667857275775690000,7.76368994140625,26.618179321289062,25.4371337890625,100.51606750488281
1667857275785844000,7.773843994140625,26.856292724609375,25.715988159179688,100.34617614746094
1667857275795998200,7.783998291015625,27.160507202148438,25.838241577148438,100.44825744628906
1667857275806153000,7.794153076171875,26.883941650390625,25.893630981445312,100.59306335449219
1667857275816307000,7.804306884765625,26.893997192382812,25.948684692382812,100.41468811035156
1667857275826461200,7.814461181640625,26.875411987304688,25.998931884765625,100.46249389648438
1667857275836615200,7.824615234375,26.982894897460938,25.949493408203125,100.32612609863281
1667857275846769200,7.83476904296875,27.235565185546875,26.22296142578125,100.45588684082031
1667857275856922000,7.844922119140625,26.868637084960938,26.164703369140625,100.47662353515625
1667857275867076000,7.855076171875,26.979476928710938,26.426681518554688,100.31999206542969
1667857275877229300,7.865229248046875,27.083206176757812,26.269058227539062,100.21762084960938
1667857275887383300,7.87538330078125,26.716567993164062,26.646392822265625,100.20086669921875
1667857275897536000,7.885535888671875,27.070938110351562,26.629806518554688,100.15127563476562
1667857275907689200,7.895689208984375,27.041275024414062,26.78631591796875,99.89126586914062
1667857275917843200,7.90584326171875,27.044677734375,26.857894897460938,99.92704772949219
1667857275927997200,7.9159970703125,27.018508911132812,26.849655151367188,99.91554260253906
1667857275938151200,7.926151123046875,26.837127685546875,26.985183715820312,99.77896118164062
1667857275948304100,7.93630419921875,27.133926391601562,27.03045654296875,99.91508483886719
1667857275958457000,7.94645703125,27.266433715820312,27.181838989257812,99.69367980957031
1667857275968611000,7.956611083984375,26.946975708007812,27.452133178710938,99.60401916503906
1667857275978764000,7.966763916015625,27.258407592773438,27.581253051757812,99.63954162597656
1667857275988918000,7.97691796875,27.027847290039062,27.708831787109375,99.57675170898438
1667857275999072000,7.987072021484375,27.419448852539062,27.992645263671875,99.84823608398438
1667857276009227000,7.99722705078125,27.362411499023438,28.163070678710938,99.82002258300781
1667857276019380000,8.0073798828125,27.466995239257812,28.328933715820312,99.7415771484375
1667857276029534200,8.0175341796875,27.5592041015625,28.669708251953125,99.70310974121094
1667857276039688200,8.027688232421875,27.723388671875,28.9647216796875,99.6767578125
1667857276049842200,8.03784228515625,27.78143310546875,29.234146118164062,99.72239685058594
1667857276059995400,8.047995361328125,28.09234619140625,29.605758666992188,99.60757446289062
1667857276070148400,8.0581484375,27.836090087890625,29.770828247070312,99.65023803710938
1667857276080301300,8.06830126953125,27.755401611328125,29.990386962890625,99.49444580078125
1667857276090454300,8.078454345703125,27.675003051757812,30.203689575195312,99.47433471679688
1667857276100609300,8.088609375,28.135848999023438,30.42938232421875,99.43470764160156
1667857276110762200,8.09876220703125,28.34222412109375,30.968353271484375,99.31941223144531
1667857276120915500,8.10891552734375,28.438217163085938,31.394119262695312,99.22802734375
1667857276131068400,8.119068359375,28.2503662109375,31.327957153320312,99.26629638671875
1667857276141221400,8.129221435546874,28.290206909179688,31.912826538085938,99.11495971679688
1667857276151374300,8.139374267578125,28.635787963867188,32.18852233886719,98.86819458007812
1667857276161528300,8.1495283203125,28.670455932617188,32.35408020019531,98.950927734375
1667857276171682300,8.159682373046875,28.72589111328125,32.58918762207031,98.76377868652344
1667857276181836300,8.169836181640624,28.891220092773438,33.04547119140625,98.61318969726562
1667857276191989500,8.179989501953125,29.162429809570312,33.36639404296875,98.49258422851562
1667857276202142500,8.190142578125,29.15771484375,33.65962219238281,98.21163940429688
1667857276212295200,8.200295166015625,29.33209228515625,33.93293762207031,98.15786743164062
1667857276222448400,8.210448486328126,29.632247924804688,34.43499755859375,97.97694396972656
1667857276232602400,8.220602294921875,29.529678344726562,34.85931396484375,97.78106689453125
1667857276242755300,8.23075537109375,29.659942626953125,35.52149963378906,97.61323547363281
1667857276252909300,8.240909423828125,30.327346801757812,35.96803283691406,97.49838256835938
1667857276263063600,8.2510634765625,30.41650390625,36.75434875488281,97.21965026855469
1667857276273217500,8.261217529296875,30.6265869140625,37.2413330078125,96.93995666503906
1667857276283371500,8.27137158203125,31.0142822265625,37.543609619140625,96.53099060058594
1667857276293527300,8.28152734375,31.17840576171875,37.90309143066406,96.26643371582031
1667857276303681300,8.291681396484375,31.39068603515625,38.127593994140625,95.76712036132812
1667857276313834500,8.30183447265625,31.567123413085938,38.27717590332031,95.42584228515625
1667857276323988500,8.311988525390625,31.406494140625,38.475372314453125,95.44662475585938
1667857276334142500,8.322142578125,31.785293579101562,39.057891845703125,95.28907775878906
1667857276344296400,8.33229638671875,32.50822448730469,39.614044189453125,95.48419189453125
1667857276354449400,8.342449462890626,32.74366760253906,40.43190002441406,95.61349487304688
1667857276364602400,8.352602294921875,33.163787841796875,41.16435241699219,95.93772888183594
1667857276374756400,8.36275634765625,33.44374084472656,42.02870178222656,96.0242919921875
1667857276384909300,8.372909423828125,33.73553466796875,42.60206604003906,96.25883483886719
1667857276395062500,8.3830625,33.98182678222656,43.086029052734375,96.917236328125
1667857276405215500,8.393215576171874,34.23675537109375,43.29234313964844,97.22319030761719
1667857276415369500,8.403369384765625,34.27818298339844,43.39923095703125,97.6444091796875
1667857276425523500,8.4135234375,34.54695129394531,43.783477783203125,97.64154052734375
1667857276435676400,8.423676513671875,34.57550048828125,44.24882507324219,97.94554138183594
1667857276445830400,8.433830322265624,34.976043701171875,44.707916259765625,98.4302978515625
1667857276455984400,8.443984375,35.26445007324219,45.087127685546875,98.85835266113281
1667857276466137300,8.454137451171874,35.92134094238281,45.60084533691406,99.27316284179688
1667857276476292400,8.464292236328125,36.153564453125,46.12910461425781,99.67225646972656
1667857276486447400,8.474447265625,36.67657470703125,46.633087158203125,100.18959045410156
1667857276496601300,8.484601318359376,36.74365234375,46.99986267089844,100.88059997558594
1667857276506755300,8.49475537109375,37.13566589355469,47.41181945800781,101.38739013671875
1667857276516910300,8.504910400390624,37.47442626953125,47.515625,101.95951843261719
1667857276527064300,8.515064208984375,37.42237854003906,47.35003662109375,102.59547424316406
1667857276537217300,8.52521728515625,36.75749206542969,47.24513244628906,102.96893310546875
1667857276547371300,8.535371337890625,36.60166931152344,46.797943115234375,103.196533203125
1667857276557525500,8.545525390625,36.4200439453125,46.327972412109375,103.17533874511719
1667857276567679500,8.555679443359375,35.864837646484375,45.592681884765625,103.08819580078125
1667857276577834200,8.565834228515625,35.34968566894531,45.07965087890625,102.72245788574219
1667857276587988500,8.575988525390626,34.611602783203125,43.902099609375,102.22789001464844
1667857276598142500,8.586142578125,33.95719909667969,43.32365417480469,101.64767456054688
1667857276608295400,8.59629541015625,33.31874084472656,42.78153991699219,101.04110717773438
1667857276618451500,8.606451416015625,33.17359924316406,42.03617858886719,100.87168884277344
1667857276628605400,8.61660546875,32.88311767578125,41.62144470214844,100.51124572753906
1667857276638759400,8.626759521484376,33.1943359375,41.528564453125,100.30982971191406
1667857276648913400,8.636913330078125,32.834869384765625,41.458251953125,100.1160888671875
1667857276659067400,8.6470673828125,32.83787536621094,41.60565185546875,99.93218994140625
1667857276669221400,8.657221435546875,32.91094970703125,41.75762939453125,100.07244873046875
1667857276679375400,8.667375244140626,33.343658447265625,41.97703552246094,99.89669799804688
1667857276689529300,8.677529296875,33.28080749511719,42.39830017089844,99.72669982910156
1667857276699683300,8.687683349609374,33.47145080566406,42.588470458984375,99.800048828125
1667857276709837300,8.69783740234375,33.705780029296875,42.72572326660156,99.71961975097656
1667857276719990500,8.707990478515624,33.68434143066406,42.98451232910156,99.91651916503906
1667857276730144500,8.71814453125,33.659881591796875,43.396881103515625,99.51545715332031
1667857276740298500,8.728298583984374,33.8175048828125,43.48680114746094,99.375
1667857276750452500,8.738452392578125,33.58949279785156,43.559051513671875,99.447265625
1667857276760605400,8.74860546875,33.80810546875,43.530975341796875,99.39874267578125
1667857276770759400,8.758759521484375,33.7681884765625,43.37593078613281,99.25750732421875
1667857276780913400,8.768913330078124,33.34722900390625,43.21693420410156,98.99368286132812
1667857276791067400,8.7790673828125,33.182220458984375,42.999908447265625,98.72239685058594
1667857276801221400,8.789221435546875,33.036773681640625,42.53297424316406,98.53781127929688
1667857276811375400,8.799375244140625,32.88734436035156,42.15739440917969,98.42828369140625
1667857276821529300,8.809529296875,32.48162841796875,41.89796447753906,98.01171875
1667857276831683300,8.819683349609376,32.16111755371094,41.46726989746094,97.87562561035156
1667857276841837300,8.82983740234375,31.800277709960938,40.65753173828125,97.94923400878906
1667857276851990500,8.839990478515626,31.380905151367188,40.36491394042969,97.62174987792969
1667857276862144500,8.85014453125,30.820419311523438,39.53346252441406,97.71194458007812
1667857276872297200,8.860297119140625,30.6640625,39.15545654296875,97.75692749023438
1667857276882451200,8.870451171875,30.55389404296875,38.49241638183594,97.91842651367188
1667857276892605200,8.880605224609376,30.138229370117188,37.63018798828125,98.31546020507812
1667857276902758400,8.89075830078125,29.742782592773438,36.975616455078125,98.57997131347656
1667857276912912400,8.900912353515626,29.400405883789062,36.38768005371094,98.9644775390625
1667857276923065300,8.9110654296875,29.069351196289062,35.59974670410156,99.32191467285156
1667857276933219300,8.92121923828125,28.820388793945312,34.99261474609375,100.01998901367188
1667857276943372500,8.93137255859375,28.68133544921875,34.56925964355469,100.27005004882812
1667857276953526500,8.941526611328126,28.321746826171875,33.812713623046875,100.92680358886719
1667857276963680500,8.951680419921875,27.99114990234375,33.47172546386719,101.27490234375
1667857276973834500,8.96183447265625,28.211700439453125,32.758056640625,101.51815795898438
1667857276983988200,8.97198828125,27.841415405273438,32.46202087402344,101.61402893066406
1667857276994142200,8.98214208984375,27.755096435546875,32.24623107910156,101.58470153808594
1667857277004296200,8.992296142578125,27.737014770507812,31.952285766601562,101.65827941894531
1667857277014449400,9.002449462890626,27.625747680664062,31.938262939453125,101.81318664550781
1667857277024602400,9.012602294921875,27.233993530273438,31.7171630859375,101.55770874023438
1667857277034756400,9.02275634765625,27.260452270507812,31.600860595703125,101.82872009277344
1667857277044909600,9.03290966796875,27.563339233398438,31.78399658203125,101.70111083984375
1667857277055063600,9.0430634765625,27.471115112304688,31.61480712890625,101.57455444335938
1667857277065215500,9.053215576171874,27.759201049804688,31.689193725585938,101.63446044921875
1667857277075369500,9.063369384765625,27.575698852539062,31.785125732421875,101.39041137695312
1667857277085524500,9.0735244140625,27.39825439453125,31.953536987304688,101.65484619140625
1667857277095679500,9.083679443359374,27.695480346679688,31.976287841796875,101.64283752441406
1667857277105833500,9.09383349609375,27.84356689453125,32.16957092285156,101.52726745605469
1667857277115987500,9.103987548828124,27.766311645507812,32.46568298339844,101.34359741210938
1667857277126141400,9.114141357421875,28.151641845703125,32.629791259765625,101.03028869628906
1667857277136296400,9.12429638671875,28.292129516601562,32.8526611328125,101.10951232910156
1667857277146450400,9.134450439453126,28.1868896484375,33.05735778808594,101.24615478515625
1667857277156604400,9.1446044921875,27.94525146484375,33.17352294921875,100.97511291503906
1667857277166758700,9.154758544921876,28.244308471679688,33.38005065917969,100.87745666503906
1667857277176912600,9.16491259765625,28.31298828125,33.6597900390625,100.87413024902344
1667857277187065600,9.175065673828126,28.408554077148438,34.05113220214844,100.66606140136719
1667857277197219600,9.185219482421875,28.747604370117188,34.44416809082031,100.85914611816406
1667857277207373600,9.19537353515625,28.584686279296875,34.64103698730469,100.85148620605469
1667857277217527600,9.205527587890625,28.729248046875,35.05322265625,100.75849914550781
1667857277227681500,9.215681640625,28.884429931640625,35.299468994140625,100.77272033691406
1667857277237835500,9.22583544921875,29.20526123046875,35.7362060546875,100.80848693847656
1667857277247988700,9.23598876953125,29.2001953125,36.09883117675781,100.65852355957031
1667857277258142700,9.246142822265625,29.88555908203125,36.37156677246094,101.05984497070312
1667857277268296700,9.256296630859374,29.935592651367188,36.645538330078125,100.91920471191406
1667857277278449400,9.266449462890625,29.736526489257812,36.73399353027344,100.93104553222656
1667857277288603600,9.276603759765624,29.931869506835938,37.21875,100.76435852050781
1667857277298756600,9.286756591796875,30.122711181640625,37.2283935546875,100.96865844726562
1667857277308909600,9.29690966796875,30.289520263671875,37.416778564453125,100.997802734375
1667857277319062800,9.307062744140625,30.396957397460938,37.57820129394531,101.03096008300781
1667857277329215500,9.317215576171876,30.392379760742188,37.64677429199219,101.02391052246094
1667857277339368700,9.32736865234375,30.677276611328125,37.793731689453125,100.82981872558594
1667857277349521700,9.337521728515625,30.382858276367188,37.81639099121094,100.587158203125
1667857277359675600,9.347675537109374,30.590423583984375,37.9765625,100.54713439941406
1667857277369828600,9.35782861328125,30.654830932617188,37.962738037109375,100.52653503417969
1667857277379981600,9.367981689453124,30.399932861328125,38.13055419921875,100.26470947265625
1667857277390135600,9.378135498046875,30.883544921875,38.36744689941406,100.31535339355469
1667857277400289500,9.38828955078125,30.69775390625,38.52850341796875,100.29823303222656
1667857277410444500,9.398444580078126,30.90484619140625,38.53245544433594,100.26081848144531
1667857277420598500,9.4085986328125,30.921585083007812,38.879913330078125,100.07318115234375
1667857277430752500,9.41875244140625,31.010543823242188,38.902069091796875,100.13288879394531
1667857277440906500,9.428906494140625,31.464767456054688,39.10304260253906,100.40274047851562
1667857277451060500,9.439060546875,31.363021850585938,39.4639892578125,100.1746826171875
1667857277461215500,9.449215576171875,31.712982177734375,39.72682189941406,100.05169677734375
1667857277471369500,9.459369384765624,31.779937744140625,39.98445129394531,99.94602966308594
1667857277481523500,9.4695234375,31.981063842773438,40.17695617675781,100.21151733398438
1667857277491678700,9.4796787109375,31.891860961914062,40.46415710449219,100.00131225585938
1667857277501832700,9.489832763671876,31.810623168945312,40.593170166015625,100.13789367675781
1667857277511987700,9.49998779296875,32.412567138671875,40.92955017089844,100.23481750488281
1667857277522142700,9.510142822265625,32.6102294921875,41.13798522949219,100.15126037597656
1667857277532296700,9.520296630859375,32.660736083984375,41.345916748046875,100.24290466308594
1667857277542450700,9.53045068359375,32.6588134765625,41.667205810546875,100.25506591796875
1667857277552603600,9.540603759765625,32.856536865234375,41.94761657714844,100.13467407226562
1667857277562757600,9.550757568359375,33.352813720703125,42.07585144042969,99.96488952636719
1667857277572911600,9.56091162109375,33.239013671875,42.361480712890625,99.76435852050781
1667857277583064600,9.571064697265625,33.46391296386719,42.53474426269531,99.60743713378906
1667857277593218600,9.581218505859376,33.52131652832031,42.61503601074219,99.46952819824219
1667857277603371500,9.59137158203125,33.40269470214844,42.84718322753906,99.17578125
1667857277613525500,9.601525390625,33.68196105957031,43.05499267578125,99.33729553222656
1667857277623678700,9.6116787109375,33.42633056640625,43.387542724609375,99.18194580078125
1667857277633831400,9.62183154296875,33.97038269042969,43.59928894042969,99.30584716796875
1667857277643985400,9.6319853515625,34.10252380371094,44.0367431640625,99.23239135742188
1667857277654139400,9.642139404296875,34.79243469238281,44.26263427734375,99.30622863769531
1667857277664292600,9.652292724609374,35.084716796875,44.73670959472656,99.35618591308594
1667857277674446600,9.662446533203125,35.75599670410156,45.44956970214844,99.34548950195312
1667857277684599600,9.672599609375,35.88865661621094,46.041290283203125,99.13345336914062
1667857277694753500,9.68275341796875,36.1326904296875,46.51042175292969,99.07778930664062
1667857277704907800,9.69290771484375,36.57994079589844,47.28184509277344,99.09024047851562
1667857277715061800,9.703061767578125,37.25492858886719,47.6195068359375,99.19358825683594
1667857277725215700,9.7132158203125,37.710296630859375,48.21368408203125,99.07759094238281
1667857277735368700,9.72336865234375,38.3375244140625,48.68792724609375,99.1708984375
1667857277745522400,9.7335224609375,38.91007995605469,48.88621520996094,98.88320922851562
1667857277755676400,9.743676513671875,38.937286376953125,49.367889404296875,98.41912841796875
1667857277765830400,9.753830322265625,39.4537353515625,49.40533447265625,97.97248840332031
1667857277775985700,9.763985595703126,39.54652404785156,49.40666198730469,97.43505859375
1667857277786138600,9.774138671875,39.56272888183594,49.58564758300781,97.09674072265625
1667857277796292600,9.784292724609376,39.343475341796875,49.30891418457031,97.03433227539062
1667857277806447600,9.794447509765625,38.64067077636719,48.75279235839844,97.01846313476562
1667857277816601600,9.8046015625,38.29364013671875,48.157806396484375,97.53732299804688
1667857277826755600,9.814755615234375,37.72511291503906,47.55645751953125,97.77775573730469
1667857277836909600,9.82490966796875,37.29048156738281,46.87298583984375,97.47735595703125
1667857277847063600,9.8350634765625,37.098388671875,46.757843017578125,96.74894714355469
1667857277857216500,9.845216552734374,36.82279968261719,46.70881652832031,96.03236389160156
1667857277867370500,9.85537060546875,37.017486572265625,46.65202331542969,95.10549926757812
1667857277877523700,9.865523681640624,37.340057373046875,47.00123596191406,94.3675537109375
1667857277887677700,9.875677734375,37.55303955078125,46.90568542480469,93.5357666015625
1667857277897831700,9.885831787109375,37.590545654296875,46.76374816894531,93.1114501953125
1667857277907985700,9.895985595703126,37.63905334472656,47.027008056640625,92.75936889648438
1667857277918139600,9.9061396484375,37.7669677734375,47.170928955078125,92.90724182128906
1667857277928291600,9.91629150390625,37.796173095703125,46.95729064941406,93.25160217285156
1667857277938444500,9.926444580078124,37.57392883300781,46.725433349609375,93.68357849121094
1667857277948597800,9.93659765625,37.38224792480469,46.72547912597656,94.20719909667969
1667857277958750700,9.946750732421876,36.91511535644531,46.4102783203125,94.62754821777344
1667857277968903400,9.9569033203125,37.06396484375,46.094268798828125,94.46640014648438
1667857277979056600,9.967056640625,36.82554626464844,45.6854248046875,94.30381774902344
1667857277989209600,9.977209716796875,36.4375,45.52386474609375,93.78530883789062
1667857277999362800,9.98736279296875,35.85035705566406,44.995758056640625,93.17538452148438
1667857278009515500,9.997515625,35.444732666015625,44.186981201171875,92.83944702148438
1667857278019668500,10.00766845703125,34.85700988769531,43.37825012207031,92.3751220703125
1667857278029822500,10.017822509765624,34.33143615722656,42.54866027832031,92.10627746582031
1667857278039976700,10.027976806640625,33.95610046386719,41.72053527832031,91.83718872070312
1667857278050130700,10.038130615234374,33.84812927246094,41.18486022949219,91.66067504882812
1667857278060284700,10.04828466796875,33.2581787109375,40.665313720703125,91.79252624511719
1667857278070438100,10.058438232421874,33.107086181640625,40.33375549316406,91.83242797851562
1667857278080590800,10.0685908203125,32.951507568359375,40.24320983886719,91.73649597167969
1667857278090745000,10.0787451171875,33.06251525878906,39.94215393066406,91.81175231933594
1667857278100899000,10.088899169921875,32.66087341308594,39.70338439941406,91.81135559082031
1667857278111053000,10.099052978515624,32.428497314453125,39.34028625488281,91.82565307617188
1667857278121206000,10.1092060546875,31.931884765625,39.098785400390625,91.96482849121094
1667857278131360000,10.119360107421874,31.80657958984375,38.581298828125,91.943115234375
1667857278141513200,10.12951318359375,31.495315551757812,37.99009704589844,92.29507446289062
1667857278151667200,10.139667236328124,31.169891357421875,37.33790588378906,92.43727111816406
1667857278161821200,10.1498212890625,30.899703979492188,36.64607238769531,92.56639099121094
1667857278171976200,10.15997607421875,30.77972412109375,36.11798095703125,92.90415954589844
1667857278182130200,10.170130126953126,30.2198486328125,35.369171142578125,93.16221618652344
1667857278192283000,10.180282958984375,30.0511474609375,34.85209655761719,93.46817016601562
1667857278202435000,10.19043505859375,29.98297119140625,34.2342529296875,93.82870483398438
1667857278212588000,10.200588134765624,29.491836547851562,34.043121337890625,94.137939453125
1667857278222741200,10.2107412109375,29.359161376953125,33.64460754394531,94.70207214355469
1667857278232894000,10.22089404296875,29.362380981445312,33.58619689941406,95.26283264160156
1667857278243048000,10.2310478515625,29.034439086914062,33.41340637207031,95.78080749511719
1667857278253202000,10.241201904296876,29.0941162109375,33.38127136230469,96.48115539550781
1667857278263355100,10.251355224609375,29.076583862304688,33.588653564453125,96.91221618652344
1667857278273509000,10.261509033203126,29.56427001953125,33.899505615234375,97.11277770996094
1667857278283662000,10.271662109375,29.623779296875,34.254547119140625,97.07072448730469
1667857278293816000,10.281816162109376,29.3997802734375,34.723663330078125,97.35929870605469
1667857278303970000,10.291969970703125,29.679840087890625,34.94398498535156,97.31730651855469
1667857278314123000,10.302123046875,29.743484497070312,35.3272705078125,97.25860595703125
1667857278324276000,10.31227587890625,30.173736572265625,35.930694580078125,97.43702697753906
1667857278334430000,10.322429931640626,30.03179931640625,35.838348388671875,97.65386962890625
1667857278344583000,10.3325830078125,30.2149658203125,36.094696044921875,97.68009948730469
1667857278354737200,10.342737060546876,30.539382934570312,36.16276550292969,97.75721740722656
1667857278364891100,10.35289111328125,30.644134521484375,36.10029602050781,97.90377807617188
1667857278375044000,10.363044189453126,30.39019775390625,36.22090148925781,97.71919250488281
1667857278385198000,10.373197998046875,30.556991577148438,36.466552734375,97.82246398925781
1667857278395352000,10.38335205078125,30.648910522460938,36.64178466796875,97.67678833007812
1667857278405506000,10.393506103515625,30.80316162109375,36.758056640625,97.66632080078125
1667857278415660000,10.403659912109376,30.59783935546875,36.97245788574219,97.77960205078125
1667857278425813000,10.41381298828125,30.858718872070312,37.18598937988281,97.66343688964844
1667857278435967000,10.423967041015626,30.977676391601562,37.34321594238281,97.49655151367188
1667857278446121000,10.434120849609375,31.122512817382812,37.4757080078125,97.580810546875
1667857278456275000,10.44427490234375,30.848373413085938,37.52320861816406,97.53657531738281
1667857278466430000,10.454429931640625,30.796676635742188,37.11344909667969,97.40284729003906
1667857278476584000,10.464583984375,30.649612426757812,37.09342956542969,97.34596252441406
1667857278486738000,10.474738037109375,30.565689086914062,36.84019470214844,97.25701904296875
1667857278496890000,10.48489013671875,30.356002807617188,36.58589172363281,97.48884582519531
1667857278507043000,10.49504296875,30.266754150390625,36.32807922363281,97.30010986328125
1667857278517197000,10.505197021484374,29.900070190429688,35.908721923828125,97.47377014160156
1667857278527350000,10.51535009765625,30.045974731445312,35.533843994140625,97.8507080078125
1667857278537503000,10.5255029296875,30.0662841796875,35.58607482910156,97.78997802734375
1667857278547657000,10.535656982421875,30.03369140625,35.48420715332031,98.02699279785156
1667857278557810200,10.54581005859375,30.165847778320312,35.50299072265625,98.4696044921875
1667857278567963100,10.555963134765625,30.133529663085938,35.59478759765625,98.59793090820312
1667857278578115800,10.56611572265625,30.042999267578125,35.6605224609375,98.70428466796875
1667857278588269000,10.57626904296875,30.171676635742188,35.79591369628906,99.00091552734375
1667857278598422000,10.586422119140625,29.877410888671875,35.90531921386719,99.13905334472656
1667857278608575200,10.5965751953125,30.143753051757812,35.82411193847656,99.25956726074219
1667857278618728000,10.60672802734375,30.06854248046875,35.89894104003906,99.29295349121094
1667857278628882000,10.6168818359375,30.34271240234375,35.794464111328125,99.36495971679688
1667857278639036000,10.627035888671875,29.91021728515625,35.950439453125,99.27824401855469
1667857278649189000,10.637189208984376,30.204116821289062,36.00079345703125,99.39848327636719
1667857278659343000,10.647343017578125,30.161834716796875,36.26312255859375,99.25798034667969
1667857278669495000,10.6574951171875,30.146240234375,36.28529357910156,99.28289794921875
1667857278679649000,10.66764892578125,30.390350341796875,36.2138671875,99.16796875
1667857278689802000,10.677802001953125,30.097564697265625,36.18928527832031,99.17799377441406
1667857278699955000,10.687954833984374,30.315582275390625,36.2252197265625,99.1553955078125
1667857278710108200,10.698108154296875,30.228240966796875,35.97349548339844,98.93473815917969
1667857278720261000,10.70826123046875,29.928619384765625,35.87873840332031,99.02531433105469
1667857278730415000,10.7184150390625,30.007186889648438,35.80145263671875,99.0494384765625
1667857278740567800,10.72856787109375,30.064529418945312,35.599151611328125,98.96823120117188
1667857278750721000,10.738720947265625,29.99346923828125,35.57310485839844,99.02650451660156
1667857278760874000,10.7488740234375,30.006240844726562,35.80198669433594,98.97042846679688
1667857278771028000,10.759028076171875,29.543380737304688,35.683685302734375,98.95993041992188
1667857278781181200,10.76918115234375,29.747970581054688,35.84480285644531,98.69424438476562
1667857278791334000,10.779333984375,29.729385375976562,35.70207214355469,98.75949096679688
1667857278801486800,10.78948681640625,29.758407592773438,35.65252685546875,98.91371154785156
1667857278811640000,10.79964013671875,29.853286743164062,35.70558166503906,98.76316833496094
1667857278821794000,10.8097939453125,29.963394165039062,35.860931396484375,98.6175537109375
1667857278831947000,10.819947021484374,30.196060180664062,35.85169982910156,98.53034973144531
1667857278842101000,10.83010107421875,30.031173706054688,35.77381896972656,98.54801940917969
1667857278852255200,10.840255126953124,29.669937133789062,35.867889404296875,98.27714538574219
1667857278862408000,10.850407958984375,29.894393920898438,35.97209167480469,98.36070251464844
1667857278872560000,10.86056005859375,29.978530883789062,35.8521728515625,98.22113037109375
1667857278882714000,10.870714111328125,29.770034790039062,36.00640869140625,98.11126708984375
1667857278892868000,10.8808681640625,30.078994750976562,36.036163330078125,98.06796264648438
1667857278903022000,10.89102197265625,30.028640747070312,35.98173522949219,98.15162658691406
1667857278913176000,10.901176025390624,29.998443603515625,36.28993225097656,98.15679931640625
1667857278923330000,10.911330078125,30.123016357421875,36.058197021484375,98.20387268066406
1667857278933483000,10.92148291015625,30.040542602539062,36.305084228515625,98.21377563476562
1667857278943636000,10.931635986328125,30.208587646484375,36.23918151855469,98.01492309570312
1667857278953789000,10.941788818359376,29.940155029296875,36.368927001953125,98.07817077636719
1667857278963942100,10.951942138671875,30.249649047851562,36.51472473144531,98.20182800292969
1667857278974095000,10.96209521484375,30.104629516601562,36.35182189941406,98.13505554199219
1667857278984247800,10.972247802734374,30.4752197265625,36.677490234375,98.13763427734375
1667857278994402000,10.982402099609375,30.239791870117188,36.68647766113281,98.17869567871094
1667857279004555000,10.992554931640624,30.279891967773438,36.80059814453125,98.25729370117188
1667857279014708000,11.0027080078125,30.590972900390625,36.87794494628906,98.13194274902344
1667857279024862000,11.012862060546874,30.352157592773438,36.920989990234375,98.15283203125
1667857279035015200,11.02301513671875,30.772445678710938,37.09928894042969,98.35453796386719
1667857279045170200,11.033170166015625,31.080322265625,37.20050048828125,98.22315979003906
1667857279055323100,11.0433232421875,30.681732177734375,37.29225158691406,98.10337829589844
1667857279065476600,11.0534765625,30.609298706054688,37.200714111328125,98.01773071289062
1667857279075629800,11.0636298828125,30.716751098632812,37.27256774902344,98.04887390136719
1667857279085782800,11.07378271484375,30.871200561523438,37.27778625488281,98.09977722167969
1667857279095935700,11.083935791015625,30.898056030273438,37.68040466308594,97.98750305175781
1667857279106089700,11.09408984375,31.127593994140625,37.54066467285156,97.88020324707031
1667857279116241700,11.10424169921875,30.896408081054688,37.64942932128906,98.04771423339844
1667857279126394600,11.11439453125,30.661514282226562,37.62028503417969,97.97758483886719
1667857279136547800,11.1245478515625,30.924285888671875,37.89405822753906,97.95343017578125
1667857279146700500,11.134700439453125,30.740371704101562,37.919769287109375,97.84144592285156
1667857279156853800,11.144853759765626,30.886032104492188,38.02362060546875,97.79791259765625
1667857279167005700,11.155005615234375,31.0589599609375,38.29621887207031,97.73234558105469
1667857279177159000,11.165158935546875,31.282302856445312,38.46879577636719,97.83343505859375
1667857279187313000,11.17531298828125,31.37939453125,38.77632141113281,97.76188659667969
1667857279197465600,11.185465576171875,31.488128662109375,38.92997741699219,97.65693664550781
1667857279207618800,11.195618896484374,31.515151977539062,39.32124328613281,97.86396789550781
1667857279217771800,11.205771728515625,31.695068359375,39.515838623046875,97.73263549804688
1667857279227924700,11.2159248046875,32.160980224609375,39.52360534667969,97.82119750976562
1667857279238077700,11.22607763671875,31.677841186523438,39.752044677734375,98.14640808105469
1667857279248230700,11.236230712890626,31.639739990234375,40.00459289550781,98.12554931640625
1667857279258384000,11.2463837890625,32.00946044921875,40.096038818359375,98.3714599609375
1667857279268537900,11.256537841796876,32.151336669921875,40.043609619140625,98.53475952148438
1667857279278690800,11.26669091796875,32.13581848144531,40.33198547363281,98.43870544433594
1667857279288844800,11.2768447265625,32.20245361328125,40.21502685546875,98.46379089355469
1667857279298998800,11.286998779296875,32.23277282714844,40.39698791503906,98.37533569335938
1667857279309152800,11.29715283203125,32.612884521484375,40.53047180175781,98.50677490234375
1667857279319305700,11.3073056640625,32.698089599609375,40.7464599609375,98.57853698730469
1667857279329457700,11.317457763671875,32.68992614746094,40.86683654785156,98.3924560546875
1667857279339611600,11.327611572265624,32.64585876464844,40.943572998046875,98.5423583984375
1667857279349764900,11.337764892578125,32.58641052246094,41.126190185546875,98.59953308105469
1667857279359917600,11.34791748046875,32.867034912109375,41.522979736328125,98.66465759277344
1667857279370070800,11.35807080078125,33.47593688964844,42.08824157714844,98.87608337402344
1667857279380224800,11.368224853515626,33.92243957519531,42.76849365234375,99.0770263671875
1667857279390377700,11.378377685546875,34.323486328125,43.19099426269531,99.27804565429688
1667857279400530700,11.38853076171875,34.81098937988281,43.98881530761719,99.56837463378906
1667857279410685000,11.398684814453125,34.708404541015625,44.50849914550781,99.83209228515625
1667857279420839000,11.4088388671875,35.529754638671875,45.22663879394531,99.83612060546875
1667857279430991600,11.41899169921875,35.739349365234375,45.90687561035156,99.88896179199219
1667857279441144800,11.429144775390625,36.373077392578125,46.332916259765625,99.91995239257812
1667857279451298800,11.439298828125,36.680511474609375,46.800048828125,99.98652648925781
1667857279461452800,11.449452880859376,37.13987731933594,47.169097900390625,100.12930297851562
1667857279471605800,11.459605712890625,37.352325439453125,47.35237121582031,99.98260498046875
1667857279481759700,11.469759765625,37.675384521484375,47.79008483886719,100.36415100097656
1667857279491913000,11.479912841796875,37.91490173339844,48.31706237792969,100.44508361816406
1667857279502065700,11.490065673828125,38.53300476074219,48.738067626953125,100.56201171875
1667857279512219600,11.5002197265625,38.939239501953125,49.430816650390625,100.78269958496094
1667857279522372600,11.51037255859375,39.786956787109375,50.15013122558594,100.66743469238281
1667857279532525800,11.52052587890625,40.486419677734375,50.72410583496094,100.49562072753906
1667857279542678800,11.5306787109375,41.215850830078125,51.29866027832031,100.36534118652344
1667857279552831700,11.540831787109376,41.532012939453125,51.613006591796875,100.30854797363281
1667857279562984700,11.550984619140625,42.017120361328125,52.224334716796875,99.91133117675781
1667857279573138700,11.561138671875,42.086029052734375,52.38946533203125,99.91851806640625
1667857279583292700,11.571292724609375,42.264251708984375,52.654296875,99.85508728027344
1667857279593446700,11.58144677734375,42.31272888183594,52.79217529296875,99.75386047363281
1667857279603600000,11.591599853515625,42.507843017578125,52.86470031738281,99.7872314453125
1667857279613753900,11.60175390625,42.710693359375,53.20878601074219,99.69029235839844
1667857279623906800,11.61190673828125,42.69709777832031,53.23016357421875,99.49440002441406
1667857279634060500,11.622060546875,42.81855773925781,53.32817077636719,99.37310791015625
1667857279644214500,11.632214599609375,42.905914306640625,53.506195068359375,99.36192321777344
1667857279654368500,11.642368408203126,42.672576904296875,53.33442687988281,99.20909118652344
1667857279664522800,11.652522705078125,42.71681213378906,53.521759033203125,99.17764282226562
1667857279674676700,11.6626767578125,42.991973876953125,53.305419921875,99.04557800292969
1667857279684830700,11.672830810546875,42.57818603515625,53.14396667480469,98.86042785644531
1667857279694984700,11.682984619140624,42.52592468261719,52.981201171875,98.8665771484375
1667857279705138700,11.693138671875,41.73860168457031,52.64262390136719,98.42921447753906
1667857279715292700,11.703292724609375,42.08210754394531,52.74028015136719,98.31320190429688
1667857279725446700,11.71344677734375,41.464935302734375,52.491790771484375,98.31826782226562
1667857279735600600,11.7236005859375,41.21980285644531,52.215423583984375,98.14614868164062
1667857279745754600,11.733754638671876,41.173675537109375,51.916412353515625,98.09854125976562
1667857279755908600,11.74390869140625,40.78117370605469,51.751434326171875,97.9244384765625
1667857279766062800,11.754062744140626,40.53984069824219,51.64271545410156,98.19105529785156
1667857279776217600,11.764217529296875,40.4124755859375,51.51580810546875,97.79278564453125
1667857279786372600,11.77437255859375,40.2841796875,51.38139343261719,97.75880432128906
1667857279796526600,11.784526611328126,40.197845458984375,51.245513916015625,97.96238708496094
1667857279806681600,11.794681640625,40.06468200683594,50.87065124511719,98.13104248046875
1667857279816836900,11.8048369140625,39.678192138671875,50.830474853515625,98.1241455078125
1667857279826990800,11.814990966796875,39.39125061035156,50.66203308105469,97.93637084960938
1667857279837145900,11.825145751953125,38.76031494140625,50.37724304199219,98.0325927734375
1667857279847300900,11.83530078125,38.68363952636719,49.95024108886719,98.075439453125
1667857279857456600,11.84545654296875,38.4793701171875,49.674102783203125,97.87809753417969
1667857279867610600,11.855610595703125,38.232666015625,49.4127197265625,97.91398620605469
1667857279877764600,11.8657646484375,37.632476806640625,48.92420959472656,98.15681457519531
1667857279887919600,11.875919677734375,37.279632568359375,48.592193603515625,97.9263916015625
1667857279898073600,11.886073486328126,36.8612060546875,48.083282470703125,97.57913208007812
1667857279908227600,11.8962275390625,36.43263244628906,47.33917236328125,97.74275207519531
1667857279918381600,11.906381591796874,35.92424011230469,46.93196105957031,97.77822875976562
1667857279928535800,11.916535888671875,35.29759216308594,46.160308837890625,97.83779907226562
1667857279938689800,11.926689697265624,35.037506103515625,45.54631042480469,97.8350830078125
1667857279948843800,11.93684375,34.407623291015625,45.025909423828125,97.80340576171875
1667857279958997800,11.946997802734375,33.63934326171875,44.19987487792969,98.02922058105469
1667857279969151700,11.95715185546875,33.643463134765625,43.690185546875,98.22138977050781
1667857279979305700,11.9673056640625,33.384185791015625,43.00993347167969,98.36444091796875
1667857279989458700,11.977458740234376,32.66339111328125,42.463043212890625,98.40457153320312
1667857279999613000,11.987613037109375,32.74757385253906,41.77961730957031,98.38859558105469
1667857280009765600,11.997765625,31.851242065429688,41.25639343261719,98.51014709472656
1667857280019919600,12.007919677734375,31.820892333984375,40.75801086425781,98.81553649902344
1667857280030073600,12.018073486328126,31.212112426757812,40.25750732421875,98.79634094238281
1667857280040227600,12.0282275390625,31.295547485351562,39.99815368652344,98.93721008300781
1667857280050380800,12.038380859375,31.177154541015625,39.6671142578125,98.8240966796875
1667857280060533800,12.04853369140625,30.875518798828125,39.575531005859375,98.80683898925781
1667857280070687200,12.058687255859375,30.832672119140625,39.45338439941406,98.80485534667969
1667857280080841200,12.06884130859375,31.15740966796875,39.667083740234375,98.67974853515625
1667857280090994400,12.078994384765625,31.147476196289062,39.83026123046875,98.55166625976562
1667857280101148400,12.0891484375,30.9652099609375,39.56507873535156,98.69866943359375
1667857280111302400,12.099302490234376,31.286773681640625,39.92347717285156,98.54248046875
1667857280121457400,12.10945751953125,31.391189575195312,40.2015380859375,98.37074279785156
1667857280131611400,12.119611328125,31.658538818359375,40.6385498046875,98.09907531738281
1667857280141765400,12.129765380859375,31.761260986328125,40.86613464355469,97.93800354003906
1667857280151918000,12.13991796875,31.787338256835938,40.85450744628906,98.22099304199219
1667857280162072000,12.150072021484375,31.594223022460938,41.13761901855469,97.998779296875
1667857280172226300,12.160226318359374,31.936996459960938,41.25494384765625,97.98262023925781
1667857280182380300,12.17038037109375,31.942489624023438,41.4127197265625,97.73175048828125
1667857280192533200,12.180533203125,31.96771240234375,41.46495056152344,97.79196166992188
1667857280202687200,12.190687255859375,31.908477783203125,41.628326416015625,97.66494750976562
1667857280212840200,12.200840087890626,32.49974060058594,41.80683898925781,97.81782531738281
1667857280222993400,12.210993408203125,32.193511962890625,41.700347900390625,97.74566650390625
1667857280233147400,12.2211474609375,32.51617431640625,41.868072509765625,97.97798156738281
1667857280243301400,12.23130126953125,32.292938232421875,42.05567932128906,97.97457885742188
1667857280253455000,12.241455078125,32.53173828125,42.20564270019531,98.05450439453125
1667857280263609000,12.251609130859375,32.61915588378906,42.27122497558594,98.05271911621094
1667857280273763000,12.26176318359375,33.011627197265625,42.61029052734375,98.22377014160156
1667857280283916300,12.271916259765625,33.36512756347656,42.6566162109375,98.52531433105469
1667857280294070300,12.2820703125,33.57890319824219,42.65391540527344,98.47697448730469
1667857280304224300,12.292224365234375,33.32084655761719,42.80503845214844,98.64053344726562
1667857280314378200,12.302378173828124,33.45033264160156,42.966949462890625,98.77583312988281
1667857280324532200,12.3125322265625,32.96577453613281,42.98248291015625,98.62904357910156
1667857280334685400,12.322685546875,33.0870361328125,42.793426513671875,98.86860656738281
1667857280344838400,12.33283837890625,33.27520751953125,42.871337890625,99.10902404785156
1667857280354991000,12.3429912109375,33.407257080078125,43.0584716796875,99.13999938964844
1667857280365144300,12.353144287109375,33.523956298828125,43.10185241699219,99.10890197753906
1667857280375298300,12.36329833984375,33.4727783203125,43.26811218261719,99.11753845214844
1667857280385451300,12.373451171875,33.61454772949219,43.27180480957031,99.03645324707031
1667857280395605200,12.383605224609376,33.53070068359375,43.14845275878906,99.13531494140625
1667857280405758500,12.393758544921875,33.75318908691406,43.457183837890625,99.100341796875
1667857280415912400,12.403912353515626,33.726806640625,43.656036376953125,98.95098876953125
1667857280426065200,12.414065185546875,33.59883117675781,43.753936767578125,99.009765625
1667857280436218400,12.42421826171875,33.763641357421875,43.669158935546875,99.12376403808594
1667857280446371300,12.434371337890624,33.89985656738281,43.81231689453125,99.09260559082031
1667857280456524300,12.444524169921875,33.89471435546875,43.94679260253906,99.04641723632812
1667857280466677200,12.45467724609375,33.909942626953125,43.79219055175781,98.97525024414062
1667857280476831200,12.464831298828125,34.05049133300781,43.84751892089844,98.77717590332031
1667857280486985200,12.474985107421874,34.12455749511719,43.78123474121094,98.82975769042969
1667857280497139200,12.48513916015625,34.128662109375,43.82646179199219,98.812744140625
1667857280507293200,12.495293212890624,34.248016357421875,44.03092956542969,98.62608337402344
1667857280517447200,12.505447265625,34.337554931640625,44.098297119140625,98.67738342285156
1667857280527601200,12.51560107421875,34.74421691894531,44.17112731933594,98.56610107421875
1667857280537754400,12.52575439453125,34.42234802246094,44.38975524902344,98.46025085449219
1667857280547908400,12.535908447265625,34.60357666015625,44.436859130859375,98.66502380371094
1667857280558061300,12.546061279296875,34.63850402832031,44.60249328613281,98.53785705566406
1667857280568215300,12.55621533203125,34.99237060546875,44.4781494140625,98.8822021484375
1667857280578368300,12.5663681640625,34.745208740234375,44.57481384277344,98.80096435546875
1667857280588522200,12.576522216796874,34.44279479980469,44.581146240234375,99.14094543457031
1667857280598675200,12.58667529296875,34.9844970703125,44.69761657714844,98.98971557617188
1667857280608828400,12.596828369140624,35.14485168457031,44.784515380859375,99.30047607421875
1667857280618982400,12.606982421875,34.912200927734375,44.90782165527344,99.20175170898438
1667857280629136400,12.617136474609374,35.152801513671875,44.811798095703125,99.23435974121094
1667857280639290400,12.627290283203125,35.2451171875,44.79469299316406,99.41777038574219
1667857280649443300,12.637443359375,34.91020202636719,44.8939208984375,99.40106201171875
1667857280659597300,12.647597412109375,35.092559814453125,44.97108459472656,99.25550842285156
1667857280669751000,12.6577509765625,34.954559326171875,44.9720458984375,99.20375061035156
1667857280679905300,12.6679052734375,35.20155334472656,44.92066955566406,99.02958679199219
1667857280690059300,12.678059326171875,34.940887451171875,44.935882568359375,98.81521606445312
1667857280700212200,12.688212158203125,35.647308349609375,45.233489990234375,98.87101745605469
1667857280710365200,12.698365234375,35.390777587890625,45.2073974609375,98.45365905761719
1667857280720519400,12.70851953125,35.69378662109375,45.66241455078125,98.40010070800781
1667857280730673400,12.71867333984375,35.87971496582031,45.5751953125,98.27278137207031
1667857280740827400,12.728827392578125,36.17095947265625,45.78312683105469,97.91970825195312
1667857280750980400,12.73898046875,35.99415588378906,45.78746032714844,97.85205078125
1667857280761133300,12.74913330078125,36.290252685546875,46.061370849609375,97.421875
1667857280771286300,12.759286376953124,36.408905029296875,46.18025207519531,97.16926574707031
1667857280781439200,12.769439208984375,36.478363037109375,46.30097961425781,97.07429504394531
1667857280791593200,12.77959326171875,36.4400634765625,46.17994689941406,96.79989624023438
1667857280801746400,12.789746337890625,36.54417419433594,46.12339782714844,96.76416015625
1667857280811900400,12.799900390625,36.598541259765625,46.23875427246094,96.68254089355469
1667857280822054400,12.810054443359375,36.998931884765625,46.43122863769531,96.55441284179688
1667857280832207000,12.82020703125,36.817626953125,46.63423156738281,96.43223571777344
1667857280842361000,12.830361083984375,36.85504150390625,46.74061584472656,96.27127075195312
1667857280852515300,12.840515380859374,36.6053466796875,46.73112487792969,96.2022705078125
1667857280862668300,12.850668212890625,37.10833740234375,47.074798583984375,96.37580871582031
1667857280872822300,12.860822265625,37.489227294921875,47.36042785644531,96.32333374023438
1667857280882977300,12.870977294921875,37.8018798828125,47.46864318847656,96.58468627929688
1667857280893131300,12.88113134765625,38.069793701171875,47.86906433105469,97.07505798339844
1667857280903285200,12.89128515625,37.91011047363281,48.085174560546875,97.68144226074219
1667857280913440300,12.901440185546875,38.12083435058594,48.31050109863281,98.05677795410156
1667857280923595300,12.91159521484375,38.233001708984375,48.56915283203125,97.85269165039062
1667857280933750300,12.921750244140625,38.61676025390625,48.68995666503906,97.489501953125
1667857280943904300,12.931904296875,38.61297607421875,48.646209716796875,96.70022583007812
1667857280954058200,12.942058349609376,38.46891784667969,48.590606689453125,95.86712646484375
1667857280964214300,12.95221435546875,38.46821594238281,48.312408447265625,95.02629089355469
1667857280974368300,12.9623681640625,38.40840148925781,48.08601379394531,94.20089721679688
1667857280984522200,12.972522216796875,38.424102783203125,47.793243408203125,93.01054382324219
1667857280994676200,12.98267626953125,38.64385986328125,47.76556396484375,92.19859313964844
1667857281004829200,12.9928291015625,38.21888732910156,47.6331787109375,91.48435974121094
1667857281014982100,13.002982177734374,38.22743225097656,47.54716491699219,91.12344360351562
1667857281025135400,13.01313525390625,38.562896728515625,47.580535888671875,90.55918884277344
1667857281035289300,13.023289306640624,38.45912170410156,47.49513244628906,90.60751342773438
1667857281045443300,13.033443359375,38.372406005859375,47.42689514160156,90.37776184082031
1667857281055596300,13.04359619140625,38.12144470214844,47.36639404296875,90.30302429199219
1667857281065749000,13.0537490234375,38.16119384765625,47.22669982910156,90.42926025390625
1667857281075903000,13.063903076171876,37.80628967285156,46.887054443359375,90.65968322753906
1667857281086056000,13.074055908203125,37.45916748046875,46.59190368652344,90.62515258789062
1667857281096210000,13.0842099609375,37.236053466796875,46.11305236816406,90.82246398925781
1667857281106364000,13.094364013671875,36.46723937988281,45.44000244140625,90.88191223144531
1667857281116518100,13.10451806640625,35.80311584472656,44.96714782714844,90.80357360839844
1667857281126672100,13.114672119140625,35.61993408203125,44.052215576171875,90.88844299316406
1667857281136826000,13.124826171875,34.85209655761719,43.36297607421875,90.97041320800781
1667857281146980000,13.13497998046875,34.27784729003906,42.43620300292969,91.11946105957031
1667857281157134000,13.145134033203124,33.61895751953125,41.5009765625,91.67193603515625
1667857281167288000,13.1552880859375,32.75975036621094,40.1973876953125,92.31143188476562
1667857281177442000,13.165442138671875,31.997756958007812,38.98860168457031,93.08833312988281
1667857281187596000,13.175595947265625,31.0732421875,38.05500793457031,93.54905700683594
1667857281197751000,13.1857509765625,30.563995361328125,37.12043762207031,94.33998107910156
1667857281207905000,13.195905029296876,30.324508666992188,36.236541748046875,95.17608642578125
1667857281218060000,13.20606005859375,29.97528076171875,35.76725769042969,96.00791931152344
1667857281228214000,13.216214111328124,29.6707763671875,35.45195007324219,96.837646484375
1667857281238369000,13.226369140625,29.857635498046875,35.6640625,97.52066040039062
1667857281248524000,13.23652392578125,29.86859130859375,36.05537414550781,98.24557495117188
1667857281258678000,13.246677978515624,30.206893920898438,36.65672302246094,98.81745910644531
1667857281268833000,13.2568330078125,30.565277099609375,37.437347412109375,99.08676147460938
1667857281278988000,13.266988037109375,30.744613647460938,38.11750793457031,99.11177062988281
1667857281289143000,13.27714306640625,31.190933227539062,38.50819396972656,99.21456909179688
1667857281299297000,13.287297119140625,31.230926513671875,38.9071044921875,99.06986999511719
