time,seconds_elapsed,z,y,x
1667581571365553000,0.042552978515625,-1.0197906494140625,-0.218658447265625,0.2310791015625
1667581571375575000,0.052574951171875,-0.9906768798828125,-0.219573974609375,0.243011474609375
1667581571385597000,0.062596923828125,-0.974212646484375,-0.230438232421875,0.2549896240234375
1667581571395618000,0.0726181640625,-0.979766845703125,-0.2471771240234375,0.2671966552734375
1667581571405640000,0.082639892578125,-0.99749755859375,-0.2546539306640625,0.2712249755859375
1667581571415662000,0.092662109375,-1.0089263916015625,-0.257080078125,0.271331787109375
1667581571425683000,0.102682861328125,-1.0133056640625,-0.2619171142578125,0.2701416015625
1667581571435704800,0.112704833984375,-1.0220947265625,-0.270751953125,0.2710113525390625
1667581571445727200,0.122727294921875,-1.0353546142578125,-0.276824951171875,0.283355712890625
1667581571455748000,0.132748046875,-1.040802001953125,-0.2703094482421875,0.29083251953125
1667581571465770000,0.14277001953125,-1.03790283203125,-0.2576904296875,0.2929840087890625
1667581571475792000,0.1527919921875,-1.0343475341796875,-0.2498779296875,0.2935638427734375
1667581571485813000,0.16281298828125,-1.05242919921875,-0.252105712890625,0.288116455078125
1667581571495835100,0.172835205078125,-1.0776519775390625,-0.258941650390625,0.2783203125
1667581571505857000,0.18285693359375,-1.095733642578125,-0.2620086669921875,0.256256103515625
1667581571515878000,0.1928779296875,-1.0982818603515625,-0.2635498046875,0.23712158203125
1667581571525899800,0.202899658203125,-1.0937347412109375,-0.2680511474609375,0.2236785888671875
1667581571535922200,0.212922119140625,-1.08978271484375,-0.2731781005859375,0.215484619140625
1667581571545943000,0.222943115234375,-1.0841064453125,-0.2725372314453125,0.202239990234375
1667581571555965000,0.23296484375,-1.08062744140625,-0.2687530517578125,0.190185546875
1667581571565987000,0.242987060546875,-1.07696533203125,-0.266357421875,0.1858062744140625
1667581571576008200,0.25300830078125,-1.077911376953125,-0.254241943359375,0.1910552978515625
1667581571586030000,0.263030029296875,-1.0859222412109375,-0.23162841796875,0.1982269287109375
1667581571596052000,0.273052001953125,-1.105865478515625,-0.2032012939453125,0.2117767333984375
1667581571606072800,0.28307275390625,-1.1262969970703125,-0.17681884765625,0.225067138671875
1667581571616095000,0.293094970703125,-1.12701416015625,-0.1566314697265625,0.2339019775390625
1667581571626116900,0.303116943359375,-1.093902587890625,-0.1412811279296875,0.239532470703125
1667581571636138000,0.313137939453125,-1.033111572265625,-0.1404571533203125,0.244659423828125
1667581571646160000,0.323159912109375,-0.9584197998046875,-0.156219482421875,0.249114990234375
1667581571656181000,0.333180908203125,-0.8795013427734375,-0.1766510009765625,0.247772216796875
1667581571666203100,0.343203125,-0.8155975341796875,-0.2020263671875,0.2375335693359375
1667581571676225000,0.35322509765625,-0.7755584716796875,-0.2242279052734375,0.2293243408203125
1667581571686246000,0.363245849609375,-0.7608642578125,-0.2378387451171875,0.2251129150390625
1667581571696268000,0.37326806640625,-0.7679901123046875,-0.241058349609375,0.218414306640625
1667581571706290000,0.3832900390625,-0.7871246337890625,-0.2348785400390625,0.2082366943359375
1667581571716311000,0.39331103515625,-0.820526123046875,-0.2290496826171875,0.1970367431640625
1667581571726333000,0.4033330078125,-0.86676025390625,-0.22308349609375,0.1715850830078125
1667581571736355000,0.41335498046875,-0.9056549072265625,-0.2176666259765625,0.14593505859375
1667581571746376000,0.4233759765625,-0.942291259765625,-0.217742919921875,0.118743896484375
1667581571756398000,0.433398193359375,-0.9656982421875,-0.2180938720703125,0.105804443359375
1667581571766420200,0.443420166015625,-0.98211669921875,-0.2116546630859375,0.092041015625
1667581571776441000,0.453441162109375,-1,-0.2087554931640625,0.0761566162109375
1667581571786463000,0.463462890625,-1.0115966796875,-0.213531494140625,0.069854736328125
1667581571796485000,0.473485107421875,-1.011016845703125,-0.216796875,0.07012939453125
1667581571806506200,0.48350634765625,-0.9991607666015625,-0.21978759765625,0.0723114013671875
1667581571816528100,0.493528076171875,-0.9813385009765625,-0.200958251953125,0.0765838623046875
1667581571826550300,0.50355029296875,-0.9606781005859375,-0.1803131103515625,0.0789031982421875
1667581571836571100,0.513571044921875,-0.9501495361328125,-0.172943115234375,0.0960540771484375
1667581571846593000,0.523593017578125,-0.94500732421875,-0.1763763427734375,0.1191253662109375
1667581571856615200,0.533615234375,-0.9359588623046875,-0.1686859130859375,0.1411590576171875
1667581571866636000,0.543635986328125,-0.9289398193359375,-0.1537017822265625,0.1457061767578125
1667581571876658200,0.553658203125,-0.9296417236328125,-0.14630126953125,0.1377716064453125
1667581571886680000,0.56368017578125,-0.938323974609375,-0.15496826171875,0.1344757080078125
1667581571896701200,0.573701171875,-0.95550537109375,-0.1743621826171875,0.12738037109375
1667581571906723000,0.58372314453125,-0.95849609375,-0.18878173828125,0.1287994384765625
1667581571916745200,0.5937451171875,-0.94573974609375,-0.192535400390625,0.1230621337890625
1667581571926766000,0.60376611328125,-0.926513671875,-0.2119293212890625,0.0960235595703125
1667581571936788000,0.6137880859375,-0.905548095703125,-0.2423248291015625,0.0924224853515625
1667581571946810400,0.623810302734375,-0.86669921875,-0.2353057861328125,0.09271240234375
1667581571956831200,0.633831298828125,-0.8562164306640625,-0.2337646484375,0.0788421630859375
1667581571966853000,0.64385302734375,-0.8654632568359375,-0.2484588623046875,0.09405517578125
1667581571976875000,0.653875,-0.87896728515625,-0.2648773193359375,0.1083526611328125
1667581571986896100,0.663896240234375,-0.8906402587890625,-0.266815185546875,0.1280364990234375
1667581571996918300,0.673918212890625,-0.906158447265625,-0.2702484130859375,0.113494873046875
1667581572006939100,0.683939208984375,-0.9254913330078125,-0.2611541748046875,0.132476806640625
1667581572016961000,0.6939609375,-0.954864501953125,-0.2503204345703125,0.097503662109375
1667581572026983000,0.70398291015625,-0.987396240234375,-0.275360107421875,0.06756591796875
1667581572037004300,0.71400439453125,-0.9850921630859375,-0.294189453125,0.0574798583984375
1667581572047026200,0.724026123046875,-0.973663330078125,-0.3051605224609375,0.0274658203125
1667581572057048000,0.734048095703125,-0.9496612548828125,-0.3174285888671875,0.012451171875
1667581572067069000,0.74406884765625,-0.925537109375,-0.33062744140625,-0.006805419921875
1667581572077091300,0.75409130859375,-0.900665283203125,-0.346099853515625,-0.01153564453125
1667581572087113200,0.76411328125,-0.8810272216796875,-0.3642120361328125,-0.00958251953125
1667581572097134000,0.774134033203125,-0.8810577392578125,-0.356475830078125,0.00811767578125
1667581572107156000,0.784156005859375,-0.8988800048828125,-0.3057708740234375,0.0232391357421875
1667581572117178000,0.79417822265625,-0.9535369873046875,-0.3464813232421875,-0.016510009765625
1667581572127199200,0.80419921875,-0.97210693359375,-0.3768310546875,0.0059661865234375
1667581572137221000,0.81422119140625,-0.959320068359375,-0.38140869140625,0.0237884521484375
1667581572147243000,0.824242919921875,-0.9428863525390625,-0.359405517578125,-0.004302978515625
1667581572157264100,0.83426416015625,-0.916168212890625,-0.333587646484375,-0.00311279296875
1667581572167286300,0.844286376953125,-0.9033050537109375,-0.328033447265625,-0.0003814697265625
1667581572177308200,0.85430810546875,-0.90283203125,-0.3313751220703125,0.00018310546875
1667581572187329000,0.8643291015625,-0.91180419921875,-0.3352508544921875,-0.00048828125
1667581572197351200,0.87435107421875,-0.9212646484375,-0.3350067138671875,-0.0060577392578125
1667581572207373000,0.884373046875,-0.9351806640625,-0.333343505859375,-0.0143890380859375
1667581572217394200,0.894394287109375,-0.94384765625,-0.3265838623046875,-0.0204010009765625
1667581572227416000,0.904416015625,-0.9479217529296875,-0.3199005126953125,-0.0259552001953125
1667581572237438200,0.914438232421875,-0.95697021484375,-0.31512451171875,-0.037384033203125
1667581572247459000,0.924458984375,-0.9647369384765625,-0.2922515869140625,-0.044677734375
1667581572257481200,0.934481201171875,-0.9673309326171875,-0.260589599609375,-0.05694580078125
1667581572267503000,0.944503173828125,-0.9785919189453125,-0.30169677734375,-0.0904693603515625
1667581572277524200,0.954524169921875,-0.9502716064453125,-0.34649658203125,-0.0652923583984375
1667581572287546000,0.964546142578125,-0.9092254638671875,-0.3651123046875,-0.0523834228515625
1667581572297568000,0.974568115234375,-0.894866943359375,-0.3498687744140625,-0.0760650634765625
1667581572307589000,0.984589111328125,-0.897064208984375,-0.31964111328125,-0.085784912109375
1667581572317611300,0.994611328125,-0.9216156005859375,-0.3395843505859375,-0.099822998046875
1667581572327633200,1.004633056640625,-0.9260101318359375,-0.3498992919921875,-0.0965576171875
1667581572337654000,1.014654052734375,-0.9274139404296875,-0.3482513427734375,-0.11114501953125
1667581572347676200,1.02467626953125,-0.93597412109375,-0.3398284912109375,-0.1390380859375
1667581572357697300,1.034697265625,-0.942047119140625,-0.33392333984375,-0.145599365234375
1667581572367719200,1.04471923828125,-0.942962646484375,-0.3322906494140625,-0.1449737548828125
1667581572377741000,1.054740966796875,-0.94866943359375,-0.333984375,-0.132232666015625
1667581572387762200,1.06476220703125,-0.9675750732421875,-0.342498779296875,-0.122039794921875
1667581572397784300,1.074784423828125,-0.9918365478515625,-0.353515625,-0.1103668212890625
1667581572407806200,1.08480615234375,-1.01104736328125,-0.3636474609375,-0.1090850830078125
1667581572417827000,1.0948271484375,-1.0229949951171875,-0.374298095703125,-0.1067657470703125
1667581572427849000,1.104848876953125,-1.0330352783203125,-0.3806915283203125,-0.099853515625
1667581572437871000,1.11487109375,-1.0330657958984375,-0.38189697265625,-0.1009674072265625
1667581572447892200,1.124892333984375,-1.02178955078125,-0.3815460205078125,-0.107208251953125
1667581572457914000,1.1349140625,-0.994720458984375,-0.38067626953125,-0.108551025390625
1667581572467936000,1.14493603515625,-0.949951171875,-0.3795318603515625,-0.1081695556640625
1667581572477957400,1.154957275390625,-0.9065399169921875,-0.382171630859375,-0.108428955078125
1667581572487979300,1.164979248046875,-0.8751220703125,-0.3889312744140625,-0.1227264404296875
1667581572498001200,1.175001220703125,-0.8762359619140625,-0.3914031982421875,-0.1353912353515625
1667581572508022000,1.18502197265625,-0.9057464599609375,-0.3921661376953125,-0.1578216552734375
1667581572518044200,1.195044189453125,-0.954071044921875,-0.380859375,-0.1700897216796875
1667581572528066000,1.205066162109375,-1.0037384033203125,-0.35888671875,-0.1681365966796875
1667581572538087200,1.215087158203125,-1.0374755859375,-0.3358917236328125,-0.1550445556640625
1667581572548109000,1.225109130859375,-1.0412139892578125,-0.315399169921875,-0.1361236572265625
1667581572558131200,1.235131103515625,-1.014923095703125,-0.305511474609375,-0.116790771484375
1667581572568152000,1.245152099609375,-0.9712982177734375,-0.310699462890625,-0.11004638671875
1667581572578174200,1.25517431640625,-0.92523193359375,-0.3235015869140625,-0.1114654541015625
1667581572588196000,1.265196044921875,-0.89105224609375,-0.341400146484375,-0.1247100830078125
1667581572598217200,1.27521728515625,-0.8603668212890625,-0.356292724609375,-0.1340179443359375
1667581572608239000,1.285239013671875,-0.8330841064453125,-0.3369140625,-0.11639404296875
1667581572618261000,1.295260986328125,-0.8279571533203125,-0.3537750244140625,-0.1146087646484375
1667581572628282000,1.3052822265625,-0.8291168212890625,-0.386260986328125,-0.1046142578125
1667581572638304300,1.31530419921875,-0.81866455078125,-0.3914794921875,-0.0818634033203125
1667581572648326100,1.325326171875,-0.8230133056640625,-0.3883056640625,-0.0955047607421875
1667581572658347000,1.335346923828125,-0.84716796875,-0.39691162109375,-0.11944580078125
1667581572668369200,1.345369140625,-0.865966796875,-0.381134033203125,-0.102996826171875
1667581572678391300,1.355391357421875,-0.8812255859375,-0.3434600830078125,-0.0799407958984375
1667581572688412200,1.365412109375,-0.9213409423828125,-0.3416595458984375,-0.08428955078125
1667581572698434000,1.37543408203125,-0.9466094970703125,-0.3479461669921875,-0.049957275390625
1667581572708455200,1.385455078125,-0.9490203857421875,-0.338897705078125,-0.043121337890625
1667581572718477300,1.395477294921875,-0.9354400634765625,-0.327239990234375,-0.02593994140625
1667581572728499200,1.405499267578125,-0.913238525390625,-0.3231201171875,-0.008056640625
1667581572738520000,1.41552001953125,-0.891754150390625,-0.3224029541015625,0.006622314453125
1667581572748542000,1.4255419921875,-0.8798065185546875,-0.326324462890625,0.0080413818359375
1667581572758564400,1.435564453125,-0.8777618408203125,-0.333648681640625,0.00372314453125
1667581572768584700,1.445584716796875,-0.8741302490234375,-0.3427581787109375,-0.001312255859375
1667581572778606800,1.45560693359375,-0.86962890625,-0.3501434326171875,-0.0079345703125
1667581572788628700,1.465628662109375,-0.8675537109375,-0.355072021484375,-0.0031585693359375
1667581572798649900,1.47564990234375,-0.8649139404296875,-0.35455322265625,0.0185089111328125
1667581572808672000,1.485672119140625,-0.8728790283203125,-0.3505401611328125,0.0421142578125
1667581572818694000,1.49569384765625,-0.8955535888671875,-0.34014892578125,0.0554962158203125
1667581572828714800,1.50571484375,-0.9214935302734375,-0.3263092041015625,0.0598297119140625
1667581572838737000,1.51573681640625,-0.9390716552734375,-0.3194732666015625,0.0646820068359375
1667581572848759000,1.525759033203125,-0.94757080078125,-0.3209381103515625,0.07733154296875
1667581572858780000,1.53577978515625,-0.9427490234375,-0.3267059326171875,0.088226318359375
1667581572868801800,1.5458017578125,-0.933349609375,-0.3309326171875,0.0981903076171875
1667581572878823700,1.55582373046875,-0.9264373779296875,-0.332611083984375,0.1049957275390625
1667581572888844800,1.5658447265625,-0.9216766357421875,-0.3338470458984375,0.1142730712890625
1667581572898867000,1.575866943359375,-0.92633056640625,-0.330078125,0.12200927734375
1667581572908888800,1.585888916015625,-0.9254302978515625,-0.3284454345703125,0.1319122314453125
1667581572918909700,1.59590966796875,-0.92218017578125,-0.329315185546875,0.1459197998046875
1667581572928931800,1.605931884765625,-0.9190826416015625,-0.3287811279296875,0.1578521728515625
1667581572938954000,1.6159541015625,-0.919097900390625,-0.3276214599609375,0.1707305908203125
1667581572948974800,1.625974853515625,-0.9229278564453125,-0.32891845703125,0.177734375
1667581572958996700,1.635996826171875,-0.9282073974609375,-0.3302001953125,0.1833648681640625
1667581572969019000,1.646018798828125,-0.9334869384765625,-0.3275146484375,0.1884765625
1667581572979040000,1.6560400390625,-0.9452667236328125,-0.324188232421875,0.184234619140625
1667581572989062000,1.666061767578125,-0.9678955078125,-0.3227996826171875,0.1790771484375
1667581572999083800,1.676083740234375,-0.9936676025390625,-0.31964111328125,0.174896240234375
1667581573009104600,1.686104736328125,-1.0146636962890625,-0.317291259765625,0.176177978515625
1667581573019126800,1.696126708984375,-1.0205230712890625,-0.3121185302734375,0.188140869140625
1667581573029148000,1.70614794921875,-1.006622314453125,-0.3051300048828125,0.2035675048828125
1667581573039169800,1.716169677734375,-0.9759979248046875,-0.3049163818359375,0.2133636474609375
1667581573049192000,1.72619189453125,-0.944366455078125,-0.30975341796875,0.2132568359375
1667581573059212800,1.736212890625,-0.92633056640625,-0.31549072265625,0.2064208984375
1667581573069235000,1.74623486328125,-0.929046630859375,-0.3215789794921875,0.1969757080078125
1667581573079256800,1.7562568359375,-0.9376220703125,-0.3272552490234375,0.192535400390625
1667581573089277700,1.766277587890625,-0.959136962890625,-0.3276519775390625,0.1878662109375
1667581573099299800,1.7762998046875,-0.9701385498046875,-0.322357177734375,0.18988037109375
1667581573109321700,1.78632177734375,-0.9681396484375,-0.3150177001953125,0.1926422119140625
1667581573119342800,1.7963427734375,-0.959259033203125,-0.313232421875,0.19744873046875
1667581573129364700,1.80636474609375,-0.9523468017578125,-0.3135986328125,0.1977081298828125
1667581573139387000,1.816386962890625,-0.9536590576171875,-0.319549560546875,0.1927032470703125
1667581573149407700,1.82640771484375,-0.9609375,-0.3202972412109375,0.1876983642578125
1667581573159430000,1.836429931640625,-0.9661712646484375,-0.3173828125,0.1866607666015625
1667581573169452000,1.8464521484375,-0.9737548828125,-0.31494140625,0.1881103515625
1667581573179473000,1.856472900390625,-0.9732513427734375,-0.3113861083984375,0.2024383544921875
1667581573189494800,1.866494873046875,-0.9617462158203125,-0.3035888671875,0.2138519287109375
1667581573199516700,1.8765166015625,-0.949920654296875,-0.3003692626953125,0.2164764404296875
1667581573209537800,1.886537841796875,-0.9433746337890625,-0.301055908203125,0.210723876953125
1667581573219560000,1.896559814453125,-0.942962646484375,-0.300048828125,0.2039031982421875
1667581573229581800,1.906581787109375,-0.9500885009765625,-0.2884063720703125,0.2093048095703125
1667581573239602700,1.916602783203125,-0.9729461669921875,-0.31597900390625,0.199981689453125
1667581573249624800,1.926624755859375,-0.9800872802734375,-0.323486328125,0.20733642578125
1667581573259647000,1.93664697265625,-0.9897918701171875,-0.3198089599609375,0.199615478515625
1667581573269667800,1.946667724609375,-1.0055084228515625,-0.3125,0.19891357421875
1667581573279689700,1.956689697265625,-1.0079345703125,-0.3025054931640625,0.208099365234375
1667581573289711900,1.9667119140625,-1.00830078125,-0.29693603515625,0.207305908203125
1667581573299733000,1.97673291015625,-1.004974365234375,-0.29595947265625,0.2135772705078125
1667581573309755000,1.9867548828125,-1.000640869140625,-0.2955474853515625,0.2173004150390625
1667581573319775700,1.996775634765625,-0.99261474609375,-0.29376220703125,0.220458984375
1667581573329797600,2.006797607421875,-0.9812774658203125,-0.2904052734375,0.223663330078125
1667581573339820000,2.016820068359375,-0.9761962890625,-0.2859954833984375,0.22528076171875
1667581573349841000,2.0268408203125,-0.9774627685546875,-0.280364990234375,0.2260589599609375
1667581573359862800,2.03686279296875,-0.9795989990234375,-0.27813720703125,0.2214508056640625
1667581573369884700,2.046884765625,-0.980743408203125,-0.2791290283203125,0.2148895263671875
1667581573379906000,2.056906005859375,-0.9760284423828125,-0.27850341796875,0.217376708984375
1667581573389928000,2.066927978515625,-0.9674224853515625,-0.273193359375,0.2168121337890625
1667581573399949800,2.07694970703125,-0.9557647705078125,-0.2723236083984375,0.217559814453125
1667581573409970700,2.086970703125,-0.9459991455078125,-0.271087646484375,0.215728759765625
1667581573419992800,2.096992919921875,-0.9345855712890625,-0.2762298583984375,0.210052490234375
1667581573430015000,2.107014892578125,-0.9277191162109375,-0.2811431884765625,0.2086029052734375
1667581573440035800,2.117035888671875,-0.927276611328125,-0.2845001220703125,0.20880126953125
1667581573450057700,2.1270576171875,-0.9212188720703125,-0.2858428955078125,0.21112060546875
1667581573460079900,2.137079833984375,-0.9349517822265625,-0.29095458984375,0.208892822265625
1667581573470101000,2.14710107421875,-0.9658050537109375,-0.29302978515625,0.1974639892578125
1667581573480123000,2.157122802734375,-0.984954833984375,-0.2914276123046875,0.177825927734375
1667581573490144800,2.167144775390625,-0.9872283935546875,-0.286376953125,0.1724395751953125
1667581573500166000,2.177165771484375,-0.9825897216796875,-0.2808837890625,0.1685943603515625
1667581573510187800,2.187187744140625,-0.9732666015625,-0.278228759765625,0.16131591796875
1667581573520209700,2.197209716796875,-0.95330810546875,-0.2832794189453125,0.15185546875
1667581573530230800,2.207230712890625,-0.9270782470703125,-0.293670654296875,0.1410369873046875
1667581573540253000,2.2172529296875,-0.9136962890625,-0.3077850341796875,0.1268157958984375
1667581573550273800,2.227273681640625,-0.9127960205078125,-0.316436767578125,0.1079254150390625
1667581573560296000,2.2372958984375,-0.914459228515625,-0.324249267578125,0.0924835205078125
1667581573570317800,2.24731787109375,-0.923858642578125,-0.3319244384765625,0.0872802734375
1667581573580339000,2.2573388671875,-0.938232421875,-0.33941650390625,0.0814666748046875
1667581573590360800,2.26736083984375,-0.94921875,-0.3426513671875,0.0785980224609375
1667581573600382700,2.2773828125,-0.9510650634765625,-0.3343048095703125,0.0744781494140625
1667581573610403800,2.28740380859375,-0.945159912109375,-0.3221435546875,0.0721893310546875
1667581573620426000,2.297426025390625,-0.933013916015625,-0.3135223388671875,0.07464599609375
1667581573630447900,2.30744775390625,-0.9260406494140625,-0.311859130859375,0.0769195556640625
1667581573640468700,2.31746875,-0.93035888671875,-0.305328369140625,0.0695037841796875
1667581573650491000,2.327490966796875,-0.9512176513671875,-0.3014068603515625,0.043121337890625
1667581573660513000,2.337512939453125,-0.9868927001953125,-0.29669189453125,0.01824951171875
1667581573670534000,2.347533935546875,-1.0224456787109375,-0.29541015625,0.00311279296875
1667581573680555800,2.3575556640625,-1.054473876953125,-0.2927398681640625,-0.0090789794921875
1667581573690577700,2.36757763671875,-1.05792236328125,-0.2888031005859375,-0.0137786865234375
1667581573700599000,2.37759912109375,-1.037841796875,-0.290435791015625,-0.0236663818359375
1667581573710621000,2.387620849609375,-0.9874420166015625,-0.2996978759765625,-0.03466796875
1667581573720642800,2.397642822265625,-0.91510009765625,-0.31475830078125,-0.0429840087890625
1667581573730663700,2.40766357421875,-0.84515380859375,-0.33038330078125,-0.037384033203125
1667581573740685800,2.417685791015625,-0.789947509765625,-0.3484344482421875,-0.03082275390625
1667581573750708000,2.4277080078125,-0.75732421875,-0.3650054931640625,-0.0328369140625
1667581573760728800,2.437728759765625,-0.7290496826171875,-0.38348388671875,-0.032745361328125
1667581573770750500,2.44775048828125,-0.69757080078125,-0.3943939208984375,-0.0261383056640625
1667581573780772400,2.4577724609375,-0.6846160888671875,-0.403564453125,-0.0177764892578125
1667581573790793500,2.46779345703125,-0.686553955078125,-0.404998779296875,-0.01104736328125
1667581573800815600,2.477815673828125,-0.7111053466796875,-0.4014129638671875,-0.0069580078125
1667581573810836500,2.48783642578125,-0.7721099853515625,-0.3951568603515625,-0.009735107421875
1667581573820858400,2.4978583984375,-0.8632659912109375,-0.3841094970703125,-0.0081787109375
1667581573830880500,2.507880615234375,-0.960601806640625,-0.3701171875,-0.004364013671875
1667581573840901600,2.517901611328125,-1.047210693359375,-0.359466552734375,-0.0070343017578125
1667581573850923500,2.527923583984375,-1.1106109619140625,-0.3568878173828125,-0.0097808837890625
1667581573860945400,2.5379453125,-1.1284332275390625,-0.36346435546875,-0.0050811767578125
1667581573870966500,2.547966552734375,-1.09515380859375,-0.36614990234375,-0.012451171875
1667581573880988700,2.55798876953125,-1.03753662109375,-0.3765716552734375,-0.0264129638671875
1667581573891010600,2.568010498046875,-0.9767303466796875,-0.4043731689453125,-0.037353515625
1667581573901031400,2.578031494140625,-0.941131591796875,-0.3699493408203125,-0.019195556640625
1667581573911053300,2.58805322265625,-0.9116973876953125,-0.3340606689453125,-0.05865478515625
1667581573921075500,2.598075439453125,-0.906158447265625,-0.41888427734375,-0.0651397705078125
1667581573931096600,2.6080966796875,-0.8652496337890625,-0.452850341796875,-0.0247955322265625
1667581573941118500,2.618118408203125,-0.8546600341796875,-0.4765472412109375,-0.008758544921875
1667581573951140400,2.628140380859375,-0.885101318359375,-0.4831085205078125,-0.0263214111328125
1667581573961161700,2.63816162109375,-0.9348297119140625,-0.455108642578125,-0.0315399169921875
1667581573971183600,2.64818359375,-0.9613037109375,-0.420989990234375,-0.0543670654296875
1667581573981205500,2.65820556640625,-1.004180908203125,-0.4218902587890625,-0.0269317626953125
1667581573991226400,2.668226318359375,-0.9781494140625,-0.4148101806640625,-0.0894317626953125
1667581574001248500,2.67824853515625,-0.9059295654296875,-0.3939971923828125,-0.17388916015625
1667581574011270400,2.6882705078125,-0.8281707763671875,-0.384918212890625,-0.2205963134765625
1667581574021291500,2.69829150390625,-0.7627105712890625,-0.3805084228515625,-0.223052978515625
1667581574031313400,2.7083134765625,-0.7614593505859375,-0.3871307373046875,-0.1766815185546875
1667581574041335600,2.71833544921875,-0.7667083740234375,-0.3727569580078125,-0.1446990966796875
1667581574051356700,2.728356689453125,-0.764251708984375,-0.35009765625,-0.1019134521484375
1667581574061378600,2.738378662109375,-0.7634124755859375,-0.3260955810546875,-0.0832977294921875
1667581574071399400,2.7483994140625,-0.7853546142578125,-0.3116607666015625,-0.076416015625
1667581574081421600,2.758421630859375,-0.8277130126953125,-0.3009033203125,-0.09393310546875
1667581574091443500,2.768443359375,-0.8967132568359375,-0.308746337890625,-0.116119384765625
1667581574101464600,2.778464599609375,-0.9940032958984375,-0.3148651123046875,-0.1826171875
1667581574111486500,2.788486572265625,-1.094390869140625,-0.2978515625,-0.2542724609375
1667581574121508600,2.798508544921875,-1.1618194580078125,-0.2842254638671875,-0.312469482421875
1667581574131529500,2.808529541015625,-1.1810302734375,-0.2649688720703125,-0.349700927734375
1667581574141551600,2.818551513671875,-1.1606597900390625,-0.2515716552734375,-0.3741455078125
1667581574151573500,2.828573486328125,-1.1219024658203125,-0.253143310546875,-0.3742523193359375
1667581574161594400,2.838594482421875,-1.08355712890625,-0.2891387939453125,-0.3633575439453125
1667581574171616500,2.848616455078125,-1.051513671875,-0.3333740234375,-0.3488922119140625
1667581574181638400,2.858638427734375,-1.013031005859375,-0.3610687255859375,-0.337493896484375
1667581574191659500,2.868659423828125,-0.964813232421875,-0.3610992431640625,-0.3438568115234375
1667581574201681700,2.878681640625,-0.9268646240234375,-0.3510284423828125,-0.347381591796875
1667581574211703600,2.88870361328125,-0.89874267578125,-0.3408660888671875,-0.3374786376953125
1667581574221724400,2.898724365234375,-0.870758056640625,-0.322784423828125,-0.311309814453125
1667581574231746600,2.90874658203125,-0.849945068359375,-0.3162384033203125,-0.293304443359375
1667581574241768700,2.918768798828125,-0.866485595703125,-0.32891845703125,-0.28814697265625
1667581574251789600,2.92878955078125,-0.929779052734375,-0.34454345703125,-0.289825439453125
1667581574261811500,2.9388115234375,-1.0037078857421875,-0.3441314697265625,-0.2910308837890625
1667581574271833300,2.948833251953125,-1.0576324462890625,-0.336822509765625,-0.2821197509765625
1667581574281854500,2.9588544921875,-1.0858612060546875,-0.316253662109375,-0.2816925048828125
1667581574291876600,2.968876708984375,-1.0743255615234375,-0.28912353515625,-0.277191162109375
1667581574301898500,2.9788984375,-1.03265380859375,-0.26983642578125,-0.264434814453125
1667581574311919400,2.98891943359375,-0.9888916015625,-0.2812957763671875,-0.2458648681640625
1667581574321941500,2.99894140625,-0.923980712890625,-0.2960357666015625,-0.2331085205078125
1667581574331962600,3.008962646484375,-0.8662872314453125,-0.3155517578125,-0.2081146240234375
1667581574341984500,3.018984619140625,-0.830352783203125,-0.34429931640625,-0.1659393310546875
1667581574352006400,3.02900634765625,-0.812530517578125,-0.368896484375,-0.1320953369140625
1667581574362027500,3.039027587890625,-0.7767486572265625,-0.3485870361328125,-0.1135406494140625
1667581574372049700,3.049049560546875,-0.7654266357421875,-0.337615966796875,-0.1080169677734375
1667581574382071600,3.059071533203125,-0.8092041015625,-0.373748779296875,-0.1051177978515625
1667581574392092400,3.069092529296875,-0.8157958984375,-0.383697509765625,-0.106292724609375
1667581574402114300,3.0791142578125,-0.825897216796875,-0.39630126953125,-0.116058349609375
1667581574412136400,3.089136474609375,-0.8484039306640625,-0.408538818359375,-0.1285552978515625
1667581574422157600,3.099157470703125,-0.8759765625,-0.4101715087890625,-0.1288909912109375
1667581574432179500,3.109179443359375,-0.90081787109375,-0.405914306640625,-0.1143798828125
1667581574442201600,3.11920166015625,-0.9116668701171875,-0.3928070068359375,-0.0982513427734375
1667581574452222500,3.129222412109375,-0.92205810546875,-0.3810577392578125,-0.0760040283203125
1667581574462244600,3.13924462890625,-0.9422454833984375,-0.373046875,-0.04937744140625
1667581574472266500,3.1492666015625,-0.952117919921875,-0.364654541015625,-0.0271453857421875
1667581574482287400,3.159287353515625,-0.9396820068359375,-0.3576507568359375,-0.0166473388671875
1667581574492309500,3.1693095703125,-0.916473388671875,-0.35052490234375,-0.0082550048828125
1667581574502331400,3.179331298828125,-0.909881591796875,-0.356903076171875,0.009185791015625
1667581574512352500,3.1893525390625,-0.904510498046875,-0.366943359375,0.01678466796875
1667581574522374400,3.19937451171875,-0.8992919921875,-0.3720855712890625,0.0152130126953125
1667581574532396500,3.209396484375,-0.8966522216796875,-0.3757171630859375,0.0138397216796875
1667581574542417400,3.21941748046875,-0.8908538818359375,-0.3769073486328125,0.016632080078125
1667581574552439600,3.229439453125,-0.890533447265625,-0.376495361328125,0.0242462158203125
1667581574562460400,3.23946044921875,-0.895843505859375,-0.375701904296875,0.0323486328125
1667581574572482600,3.249482666015625,-0.903045654296875,-0.377288818359375,0.0399322509765625
1667581574582504400,3.25950439453125,-0.91448974609375,-0.3786773681640625,0.0438385009765625
1667581574592525600,3.269525634765625,-0.93365478515625,-0.3733673095703125,0.0330810546875
1667581574602547500,3.27954736328125,-0.9483489990234375,-0.3743896484375,0.0229644775390625
1667581574612569600,3.289569580078125,-0.962493896484375,-0.380645751953125,0.0249176025390625
1667581574622590500,3.299590576171875,-0.9581756591796875,-0.387664794921875,0.0287017822265625
1667581574632612400,3.3096123046875,-0.9422760009765625,-0.386688232421875,0.0402679443359375
1667581574642634500,3.319634521484375,-0.929107666015625,-0.385650634765625,0.045196533203125
1667581574652655600,3.329655517578125,-0.9238739013671875,-0.3865966796875,0.0441131591796875
1667581574662677500,3.339677490234375,-0.9176177978515625,-0.3880615234375,0.0554962158203125
1667581574672699400,3.349699462890625,-0.9094085693359375,-0.3916015625,0.0665435791015625
1667581574682720500,3.359720458984375,-0.896820068359375,-0.3914947509765625,0.073577880859375
1667581574692742700,3.36974267578125,-0.87786865234375,-0.38555908203125,0.0768890380859375
1667581574702764500,3.3797646484375,-0.8715972900390625,-0.392303466796875,0.0823211669921875
1667581574712785400,3.389785400390625,-0.8885498046875,-0.4022369384765625,0.0868682861328125
1667581574722807300,3.399807373046875,-0.9149932861328125,-0.4037017822265625,0.08758544921875
1667581574732829700,3.40982958984375,-0.942047119140625,-0.4004058837890625,0.0913543701171875
1667581574742850600,3.4198505859375,-0.96490478515625,-0.3967132568359375,0.0994415283203125
1667581574752872400,3.42987255859375,-0.9772186279296875,-0.3931427001953125,0.1139068603515625
1667581574762894300,3.439894287109375,-0.9812469482421875,-0.3907470703125,0.1211090087890625
1667581574772915500,3.44991552734375,-0.9721527099609375,-0.3908538818359375,0.12396240234375
1667581574782937600,3.4599375,-0.956512451171875,-0.401824951171875,0.118896484375
1667581574792958500,3.46995849609375,-0.935089111328125,-0.4156036376953125,0.108154296875
1667581574802980400,3.47998046875,-0.92742919921875,-0.431610107421875,0.1058807373046875
1667581574813002200,3.490002197265625,-0.93133544921875,-0.43682861328125,0.095489501953125
1667581574823023600,3.500023681640625,-0.941131591796875,-0.435272216796875,0.093109130859375
1667581574833045500,3.51004541015625,-0.9544525146484375,-0.4357147216796875,0.103668212890625
1667581574843067400,3.5200673828125,-0.96026611328125,-0.4344329833984375,0.114013671875
1667581574853088300,3.530088134765625,-0.9530029296875,-0.429962158203125,0.11883544921875
1667581574863110700,3.540110595703125,-0.939300537109375,-0.4340667724609375,0.1184234619140625
1667581574873132500,3.550132568359375,-0.92041015625,-0.4471893310546875,0.1127777099609375
1667581574883153400,3.5601533203125,-0.90673828125,-0.4655609130859375,0.0994720458984375
1667581574893175300,3.57017529296875,-0.8972015380859375,-0.478271484375,0.088287353515625
1667581574903197400,3.580197509765625,-0.8918304443359375,-0.4816436767578125,0.0832366943359375
1667581574913218600,3.590218505859375,-0.8916473388671875,-0.48126220703125,0.07354736328125
1667581574923240400,3.600240478515625,-0.8906097412109375,-0.4780120849609375,0.065643310546875
1667581574933262300,3.610262451171875,-0.88873291015625,-0.47857666015625,0.0701141357421875
1667581574943283500,3.620283447265625,-0.881134033203125,-0.4717864990234375,0.0720062255859375
1667581574953305600,3.6303056640625,-0.8723602294921875,-0.4652099609375,0.0689697265625
1667581574963327500,3.640327392578125,-0.870361328125,-0.4656219482421875,0.063629150390625
1667581574973348400,3.650348388671875,-0.8751068115234375,-0.4701690673828125,0.04791259765625
1667581574983370500,3.66037060546875,-0.8820343017578125,-0.468658447265625,0.0261383056640625
1667581574993392400,3.670392333984375,-0.8813323974609375,-0.46343994140625,0.00927734375
1667581575003413500,3.68041357421875,-0.8794403076171875,-0.4645843505859375,0.00445556640625
1667581575013435400,3.690435302734375,-0.8813629150390625,-0.4682769775390625,0.0050506591796875
1667581575023457500,3.70045751953125,-0.88714599609375,-0.46649169921875,0.0068359375
1667581575033478400,3.710478515625,-0.9009857177734375,-0.4643402099609375,0.0100250244140625
1667581575043500500,3.72050048828125,-0.912353515625,-0.46099853515625,0.012542724609375
1667581575053521400,3.730521484375,-0.913848876953125,-0.458892822265625,0.0139617919921875
1667581575063543600,3.74054345703125,-0.9042816162109375,-0.4645538330078125,-0.0052947998046875
1667581575073565400,3.7505654296875,-0.8832855224609375,-0.483367919921875,-0.0351104736328125
1667581575083586600,3.760586669921875,-0.856719970703125,-0.4981842041015625,-0.059783935546875
1667581575093608400,3.7706083984375,-0.8411407470703125,-0.5028228759765625,-0.0820770263671875
1667581575103630600,3.780630615234375,-0.850921630859375,-0.522796630859375,-0.100006103515625
1667581575113651500,3.7906513671875,-0.8717193603515625,-0.535491943359375,-0.1313018798828125
1667581575123673300,3.80067333984375,-0.9053497314453125,-0.5461273193359375,-0.1668701171875
1667581575133695500,3.810695556640625,-0.9359130859375,-0.5490875244140625,-0.1874542236328125
1667581575143716600,3.820716552734375,-0.957366943359375,-0.5391387939453125,-0.176361083984375
1667581575153738500,3.830738525390625,-0.9637603759765625,-0.51763916015625,-0.16387939453125
1667581575163760400,3.840760498046875,-0.9714508056640625,-0.4933013916015625,-0.156036376953125
1667581575173781500,3.850781494140625,-0.9632720947265625,-0.47320556640625,-0.1466217041015625
1667581575183803600,3.8608037109375,-0.943115234375,-0.48211669921875,-0.14654541015625
1667581575193825500,3.870825439453125,-0.909027099609375,-0.51031494140625,-0.16680908203125
1667581575203846400,3.880846435546875,-0.8657684326171875,-0.5528411865234375,-0.1879119873046875
1667581575213868300,3.890868408203125,-0.8339691162109375,-0.599517822265625,-0.19122314453125
1667581575223890400,3.900890380859375,-0.7564544677734375,-0.59417724609375,-0.2193756103515625
1667581575233911600,3.91091162109375,-0.7032012939453125,-0.5774383544921875,-0.2104034423828125
1667581575243933400,3.920933349609375,-0.743682861328125,-0.634521484375,-0.2313079833984375
1667581575253954300,3.930954345703125,-0.821014404296875,-0.6999664306640625,-0.250762939453125
1667581575263976400,3.9409765625,-0.8831634521484375,-0.6872406005859375,-0.296051025390625
1667581575273998600,3.95099853515625,-0.915679931640625,-0.5931549072265625,-0.3889007568359375
1667581575284019500,3.96101953125,-0.9372100830078125,-0.588714599609375,-0.30731201171875
1667581575294041300,3.971041259765625,-0.9058685302734375,-0.5720367431640625,-0.25091552734375
1667581575304063500,3.9810634765625,-0.8733978271484375,-0.580108642578125,-0.207550048828125
1667581575314084600,3.991084716796875,-0.840972900390625,-0.6354827880859375,-0.2097930908203125
1667581575324106500,4.0011064453125,-0.7519683837890625,-0.6952667236328125,-0.248443603515625
1667581575334128400,4.01112841796875,-0.64556884765625,-0.7502899169921875,-0.2855377197265625
1667581575344149200,4.021149169921875,-0.640594482421875,-0.7990875244140625,-0.2956085205078125
1667581575354171400,4.03117138671875,-0.6931915283203125,-0.811279296875,-0.2739410400390625
1667581575364193500,4.041193603515625,-0.691864013671875,-0.7504119873046875,-0.2759246826171875
1667581575374214400,4.05121435546875,-0.6527557373046875,-0.6584014892578125,-0.3250885009765625
1667581575384236500,4.061236572265625,-0.6267242431640625,-0.6344146728515625,-0.329742431640625
1667581575394258400,4.071258544921875,-0.65478515625,-0.67327880859375,-0.3027801513671875
1667581575404279600,4.081279541015625,-0.6418304443359375,-0.65045166015625,-0.275177001953125
1667581575414301400,4.091301513671875,-0.572479248046875,-0.615631103515625,-0.25970458984375
1667581575424323600,4.101323486328125,-0.5389556884765625,-0.6268310546875,-0.264739990234375
1667581575434344400,4.111344482421875,-0.548797607421875,-0.640411376953125,-0.2822418212890625
1667581575444366300,4.121366455078125,-0.591583251953125,-0.6342315673828125,-0.2859039306640625
1667581575454388500,4.131388427734375,-0.6658782958984375,-0.60870361328125,-0.2633819580078125
1667581575464409300,4.141409423828125,-0.7193145751953125,-0.5656585693359375,-0.2956085205078125
1667581575474431500,4.151431396484375,-0.7497711181640625,-0.5260009765625,-0.2977294921875
1667581575484452600,4.16145263671875,-0.7805938720703125,-0.4993133544921875,-0.2778472900390625
1667581575494474500,4.171474609375,-0.7910614013671875,-0.4827880859375,-0.278350830078125
1667581575504496600,4.18149658203125,-0.7975311279296875,-0.477264404296875,-0.2860870361328125
1667581575514517500,4.191517578125,-0.74151611328125,-0.4841461181640625,-0.240264892578125
1667581575524539400,4.201539306640625,-0.683380126953125,-0.488677978515625,-0.256866455078125
1667581575534561300,4.211561279296875,-0.626220703125,-0.4861602783203125,-0.23162841796875
1667581575544582400,4.22158251953125,-0.581878662109375,-0.5171661376953125,-0.255096435546875
1667581575554604500,4.2316044921875,-0.593292236328125,-0.551727294921875,-0.277740478515625
1667581575564626400,4.24162646484375,-0.5782470703125,-0.5190277099609375,-0.1628570556640625
1667581575574647600,4.2516474609375,-0.5911407470703125,-0.5358428955078125,-0.1100921630859375
1667581575584669400,4.26166943359375,-0.6267547607421875,-0.564483642578125,-0.094970703125
1667581575594691600,4.271691650390625,-0.6162567138671875,-0.5356292724609375,-0.0816497802734375
1667581575604712400,4.28171240234375,-0.6147613525390625,-0.539642333984375,-0.053375244140625
1667581575614734300,4.291734375,-0.6408538818359375,-0.5914459228515625,-0.02630615234375
1667581575624756500,4.301756591796875,-0.6568603515625,-0.63909912109375,-0.0564422607421875
1667581575634777600,4.311777587890625,-0.7067108154296875,-0.6805877685546875,-0.1361236572265625
1667581575644799500,4.321799560546875,-0.7246246337890625,-0.72698974609375,-0.1949310302734375
1667581575654821400,4.3318212890625,-0.73211669921875,-0.7820281982421875,-0.2045745849609375
1667581575664842200,4.34184228515625,-0.72955322265625,-0.808441162109375,-0.1878662109375
1667581575674864600,4.35186474609375,-0.6905364990234375,-0.8302154541015625,-0.1577606201171875
1667581575684885500,4.361885498046875,-0.640350341796875,-0.850433349609375,-0.1769256591796875
1667581575694907400,4.371907470703125,-0.6167144775390625,-0.828216552734375,-0.4143829345703125
1667581575704929300,4.38192919921875,-0.6174468994140625,-0.8783416748046875,-0.3309783935546875
1667581575714950700,4.39195068359375,-0.5849609375,-0.96722412109375,-0.1625213623046875
1667581575724972500,4.40197265625,-0.5894622802734375,-1.044464111328125,0.0346221923828125
1667581575734994400,4.411994384765625,-0.62646484375,-1.0497589111328125,0.080718994140625
1667581575745015300,4.422015380859375,-0.5942535400390625,-1.00128173828125,-0.251007080078125
1667581575755037400,4.432037353515625,-0.5392303466796875,-1.054290771484375,-0.313690185546875
1667581575765060000,4.44206005859375,-0.475799560546875,-1.141632080078125,-0.2345123291015625
1667581575775081200,4.452081298828125,-0.355987548828125,-1.1025238037109375,-0.3004608154296875
1667581575785103400,4.462103271484375,-0.2890167236328125,-1.0828704833984375,-0.0910491943359375
1667581575795125200,4.472125244140625,-0.279266357421875,-1.0461578369140625,0.07952880859375
1667581575805146000,4.48214599609375,-0.2881011962890625,-0.9390411376953125,0.0788116455078125
1667581575815168300,4.492168212890625,-0.3312835693359375,-0.955413818359375,0.093841552734375
1667581575825190400,4.5021904296875,-0.2743072509765625,-0.9632568359375,-0.0899810791015625
1667581575835211300,4.512211181640625,-0.2210845947265625,-0.8645477294921875,-0.1763916015625
1667581575845233200,4.522233154296875,-0.1809234619140625,-0.8342437744140625,-0.1260986328125
1667581575855255000,4.532255126953125,-0.2099761962890625,-0.8350677490234375,-0.0743255615234375
1667581575865276200,4.542276123046875,-0.3677520751953125,-0.771728515625,-0.0637969970703125
1667581575875298300,4.55229833984375,-0.61456298828125,-0.57659912109375,-0.2420196533203125
1667581575885319200,4.562319091796875,-0.841827392578125,-0.4187774658203125,-0.30401611328125
1667581575895341000,4.572341064453125,-0.9322662353515625,-0.37225341796875,-0.295013427734375
1667581575905363200,4.58236328125,-0.8776397705078125,-0.3636932373046875,-0.332366943359375
1667581575915384300,4.59238427734375,-0.714111328125,-0.370361328125,-0.418914794921875
1667581575925406200,4.60240625,-0.54998779296875,-0.381072998046875,-0.470306396484375
1667581575935428000,4.612427978515625,-0.43035888671875,-0.3804931640625,-0.4641265869140625
1667581575945449200,4.62244921875,-0.4267730712890625,-0.382232666015625,-0.490081787109375
1667581575955471400,4.632471435546875,-0.550750732421875,-0.3762664794921875,-0.5288238525390625
1667581575965493200,4.6424931640625,-0.7465667724609375,-0.326873779296875,-0.4883575439453125
1667581575975514000,4.65251416015625,-0.933807373046875,-0.2279815673828125,-0.403472900390625
1667581575985536000,4.662535888671875,-1.026519775390625,-0.1641387939453125,-0.3339385986328125
1667581575995558100,4.67255810546875,-1.041168212890625,-0.14813232421875,-0.276641845703125
1667581576005579300,4.682579345703125,-0.99127197265625,-0.1619720458984375,-0.2490997314453125
1667581576015601200,4.69260107421875,-0.880645751953125,-0.1778411865234375,-0.2347564697265625
1667581576025623300,4.702623291015625,-0.720245361328125,-0.1960906982421875,-0.189971923828125
1667581576035644400,4.71264453125,-0.532806396484375,-0.2172698974609375,-0.1259307861328125
1667581576045666300,4.722666259765625,-0.404266357421875,-0.2195587158203125,-0.08978271484375
1667581576055688200,4.732688232421875,-0.359283447265625,-0.2142333984375,-0.0703887939453125
1667581576065709000,4.742708984375,-0.3552703857421875,-0.206756591796875,-0.0655670166015625
1667581576075731200,4.752731201171875,-0.3919677734375,-0.1990203857421875,-0.068817138671875
1667581576085753000,4.762753173828125,-0.4455718994140625,-0.19598388671875,-0.0556182861328125
1667581576095774200,4.772774169921875,-0.48638916015625,-0.209747314453125,-0.0382843017578125
1667581576105796000,4.782796142578125,-0.4998321533203125,-0.2515411376953125,-0.017425537109375
1667581576115817200,4.792817138671875,-0.471099853515625,-0.31414794921875,0.007049560546875
1667581576125839400,4.80283935546875,-0.3946075439453125,-0.40765380859375,0.0197906494140625
1667581576135861200,4.812861328125,-0.3209991455078125,-0.5149993896484375,0.0055084228515625
1667581576145882000,4.822882080078125,-0.2869110107421875,-0.595733642578125,-0.0320587158203125
1667581576155904300,4.832904296875,-0.30389404296875,-0.6538543701171875,-0.057342529296875
1667581576165926100,4.842926025390625,-0.3292083740234375,-0.689971923828125,-0.0800323486328125
1667581576175947300,4.852947265625,-0.3527984619140625,-0.70562744140625,-0.11663818359375
1667581576185969200,4.86296923828125,-0.4077606201171875,-0.7228240966796875,-0.1340484619140625
1667581576195991300,4.8729912109375,-0.470458984375,-0.744232177734375,-0.1236572265625
1667581576206012200,4.88301220703125,-0.5123291015625,-0.754302978515625,-0.1177520751953125
1667581576216034000,4.893033935546875,-0.526702880859375,-0.7755126953125,-0.1239013671875
1667581576226056200,4.90305615234375,-0.5514373779296875,-0.7960205078125,-0.1621551513671875
1667581576236077300,4.913077392578125,-0.6209869384765625,-0.8165740966796875,-0.2288360595703125
1667581576246099200,4.92309912109375,-0.7144927978515625,-0.8482513427734375,-0.2827301025390625
1667581576256121000,4.93312109375,-0.780670166015625,-0.8782806396484375,-0.308929443359375
1667581576266142200,4.94314208984375,-0.7982025146484375,-0.9111328125,-0.29498291015625
1667581576276164400,4.953164306640625,-0.8025054931640625,-0.9335174560546875,-0.29547119140625
1667581576286186200,4.963186279296875,-0.784820556640625,-0.958648681640625,-0.277618408203125
1667581576296207000,4.97320703125,-0.7487030029296875,-0.9742279052734375,-0.2548828125
1667581576306229000,4.98322900390625,-0.677215576171875,-0.9892578125,-0.23162841796875
1667581576316250400,4.99325048828125,-0.5873565673828125,-1.0199432373046875,-0.22161865234375
1667581576326272300,5.003272216796875,-0.525665283203125,-1.045135498046875,-0.2419891357421875
1667581576336294100,5.013294189453125,-0.5151214599609375,-1.0517730712890625,-0.2916717529296875
1667581576346315300,5.023315185546875,-0.503936767578125,-1.08514404296875,-0.29998779296875
1667581576356337400,5.03333740234375,-0.4725799560546875,-1.0855865478515625,-0.33026123046875
1667581576366359300,5.043359375,-0.4550628662109375,-1.081207275390625,-0.370758056640625
1667581576376380200,5.053380126953125,-0.4579620361328125,-1.0969085693359375,-0.4102630615234375
1667581576386402000,5.063402099609375,-0.4722900390625,-1.118865966796875,-0.4350128173828125
1667581576396424200,5.073424072265625,-0.4994049072265625,-1.1004791259765625,-0.383392333984375
1667581576406445300,5.0834453125,-0.515777587890625,-1.1046600341796875,-0.3525390625
1667581576416467200,5.09346728515625,-0.557708740234375,-1.133758544921875,-0.4015960693359375
1667581576426489000,5.103489013671875,-0.5862884521484375,-1.0404205322265625,-0.34197998046875
1667581576436510200,5.11351025390625,-0.5814666748046875,-1.0538177490234375,-0.32659912109375
1667581576446532400,5.123532470703125,-0.5332489013671875,-1.0273895263671875,-0.2581329345703125
1667581576456554200,5.13355419921875,-0.4865264892578125,-1.0141754150390625,-0.1996917724609375
1667581576466575000,5.1435751953125,-0.4899444580078125,-1.0488739013671875,-0.2169647216796875
1667581576476597200,5.15359716796875,-0.5384674072265625,-1.0918731689453125,-0.2953338623046875
1667581576486618400,5.163618408203125,-0.59649658203125,-1.127349853515625,-0.3651580810546875
1667581576496640300,5.17364013671875,-0.6447296142578125,-1.11431884765625,-0.39569091796875
1667581576506662100,5.183662109375,-0.666839599609375,-1.074432373046875,-0.381805419921875
1667581576516683000,5.19368310546875,-0.6539764404296875,-1.14947509765625,-0.4337005615234375
1667581576526705200,5.203705078125,-0.62030029296875,-1.1781005859375,-0.455657958984375
1667581576536727300,5.213727294921875,-0.6222686767578125,-1.2075653076171875,-0.4393463134765625
1667581576546748200,5.223748046875,-0.6726531982421875,-1.2475738525390625,-0.4058685302734375
1667581576556770300,5.233770263671875,-0.8077545166015625,-1.2684783935546875,-0.3460235595703125
1667581576566792200,5.243792236328125,-1.0188751220703125,-1.2755126953125,-0.2849273681640625
1667581576576813300,5.253813232421875,-1.1981964111328125,-1.257171630859375,-0.256134033203125
1667581576586835200,5.263835205078125,-1.287811279296875,-1.211639404296875,-0.208984375
1667581576596857300,5.273857421875,-1.3213043212890625,-1.1580963134765625,-0.1430511474609375
1667581576606878200,5.283878173828125,-1.283447265625,-1.2227783203125,-0.1876983642578125
1667581576616900000,5.293900146484375,-1.1998748779296875,-1.292205810546875,-0.2396087646484375
1667581576626922200,5.303922119140625,-1.0990447998046875,-1.3367767333984375,-0.2507171630859375
1667581576636943000,5.313943115234375,-1.031829833984375,-1.3537445068359375,-0.2455596923828125
1667581576646965200,5.32396533203125,-1.003387451171875,-1.3460540771484375,-0.221771240234375
1667581576656987100,5.333987060546875,-1.0031280517578125,-1.29998779296875,-0.1469573974609375
1667581576667008300,5.34400830078125,-1.01519775390625,-1.25787353515625,-0.0601348876953125
1667581576677030400,5.354030517578125,-1.01483154296875,-1.244873046875,0.0206298828125
1667581576687051300,5.36405126953125,-0.9981231689453125,-1.23687744140625,0.09124755859375
1667581576697073200,5.3740732421875,-0.971649169921875,-1.2271575927734375,0.1153717041015625
1667581576707095000,5.384094970703125,-0.9524993896484375,-1.228546142578125,0.0642852783203125
1667581576717116200,5.3941162109375,-0.9358978271484375,-1.2385101318359375,0.01275634765625
1667581576727138300,5.40413818359375,-0.875030517578125,-1.2356414794921875,-0.01971435546875
1667581576737160200,5.41416015625,-0.8236236572265625,-1.2230377197265625,-0.0462646484375
1667581576747181000,5.42418115234375,-0.7794036865234375,-1.2158660888671875,-0.072723388671875
1667581576757203200,5.434203125,-0.7426605224609375,-1.197357177734375,-0.116302490234375
1667581576767224800,5.444224853515625,-0.72235107421875,-1.17352294921875,-0.131011962890625
1667581576777246000,5.454245849609375,-0.705413818359375,-1.128692626953125,-0.132720947265625
1667581576787267800,5.464267822265625,-0.6927032470703125,-1.0785369873046875,-0.1615142822265625
1667581576797289700,5.474289794921875,-0.6749420166015625,-1.055908203125,-0.2074737548828125
1667581576807310800,5.484310791015625,-0.657196044921875,-1.0448455810546875,-0.2488555908203125
1667581576817333000,5.4943330078125,-0.6299285888671875,-1.0289764404296875,-0.2719573974609375
1667581576827355000,5.50435498046875,-0.5861358642578125,-1.0051727294921875,-0.2547454833984375
1667581576837376000,5.5143759765625,-0.54498291015625,-0.9722900390625,-0.214111328125
1667581576847398000,5.52439794921875,-0.527252197265625,-0.927459716796875,-0.170562744140625
1667581576857418800,5.534418701171875,-0.540740966796875,-0.8903045654296875,-0.1602020263671875
1667581576867441000,5.54444091796875,-0.573638916015625,-0.8743133544921875,-0.164581298828125
1667581576877462800,5.554462890625,-0.619049072265625,-0.8641204833984375,-0.1813201904296875
1667581576887484000,5.56448388671875,-0.6562957763671875,-0.8597869873046875,-0.1872406005859375
1667581576897506000,5.574506103515625,-0.6591644287109375,-0.867919921875,-0.1716156005859375
1667581576907528000,5.58452783203125,-0.623931884765625,-0.871734619140625,-0.12432861328125
1667581576917548800,5.594548828125,-0.5647735595703125,-0.8826751708984375,-0.07373046875
1667581576927571000,5.604571044921875,-0.5162353515625,-0.8832855224609375,-0.062347412109375
1667581576937593000,5.614593017578125,-0.520111083984375,-0.862274169921875,-0.09967041015625
1667581576947614000,5.624614013671875,-0.5731353759765625,-0.8311309814453125,-0.165069580078125
1667581576957635800,5.6346357421875,-0.6593475341796875,-0.80596923828125,-0.2440185546875
1667581576967657700,5.64465771484375,-0.7282257080078125,-0.7752838134765625,-0.2934417724609375
1667581576977678800,5.654678955078125,-0.7230224609375,-0.748870849609375,-0.2747039794921875
1667581576987701000,5.664700927734375,-0.662841796875,-0.7122344970703125,-0.214324951171875
1667581576997723000,5.674722900390625,-0.588714599609375,-0.6656494140625,-0.1678009033203125
1667581577007743700,5.68474365234375,-0.542510986328125,-0.6252593994140625,-0.15386962890625
1667581577017766000,5.694765869140625,-0.4947052001953125,-0.59893798828125,-0.173797607421875
1667581577027788000,5.7047880859375,-0.4387054443359375,-0.5785980224609375,-0.2057647705078125
1667581577037809000,5.714808837890625,-0.39739990234375,-0.5525054931640625,-0.2371826171875
1667581577047830800,5.724830810546875,-0.372528076171875,-0.5267333984375,-0.2363128662109375
1667581577057852000,5.734851806640625,-0.35882568359375,-0.5007476806640625,-0.198333740234375
1667581577067874000,5.7448740234375,-0.326751708984375,-0.4881439208984375,-0.1246490478515625
1667581577077896000,5.75489599609375,-0.25592041015625,-0.4712677001953125,-0.0314483642578125
1667581577087916800,5.764916748046875,-0.1990203857421875,-0.4498138427734375,0.0352325439453125
1667581577097938700,5.774938720703125,-0.184326171875,-0.43902587890625,0.0521697998046875
1667581577107960800,5.7849609375,-0.21759033203125,-0.4370574951171875,0.036163330078125
1667581577117982000,5.79498193359375,-0.2725830078125,-0.433380126953125,0.00592041015625
1667581577128003800,5.80500390625,-0.3216705322265625,-0.4307403564453125,-0.020843505859375
1667581577138026000,5.81502587890625,-0.3420257568359375,-0.43115234375,-0.0502471923828125
1667581577148046800,5.825046875,-0.3166351318359375,-0.43414306640625,-0.0571746826171875
1667581577158069000,5.835069091796875,-0.2753753662109375,-0.4416961669921875,-0.08148193359375
1667581577168091000,5.8450908203125,-0.2574615478515625,-0.449432373046875,-0.10882568359375
1667581577178111700,5.85511181640625,-0.2519683837890625,-0.4579315185546875,-0.1242218017578125
1667581577188134000,5.8651337890625,-0.259521484375,-0.4643402099609375,-0.11871337890625
1667581577198155800,5.87515576171875,-0.269256591796875,-0.461456298828125,-0.09100341796875
1667581577208177000,5.885177001953125,-0.2908782958984375,-0.4648895263671875,-0.0669097900390625
1667581577218198800,5.89519873046875,-0.3279876708984375,-0.4776763916015625,-0.05096435546875
1667581577228220000,5.905219970703125,-0.3700408935546875,-0.488250732421875,-0.04925537109375
1667581577238241800,5.91524169921875,-0.3858489990234375,-0.504364013671875,-0.0634613037109375
1667581577248264000,5.925263916015625,-0.3841552734375,-0.5267181396484375,-0.089569091796875
1667581577258284800,5.935284912109375,-0.3702545166015625,-0.5574188232421875,-0.1119537353515625
1667581577268307000,5.945306884765625,-0.339080810546875,-0.579925537109375,-0.1265411376953125
1667581577278328800,5.955328857421875,-0.3189239501953125,-0.58721923828125,-0.1370086669921875
1667581577288350000,5.965349853515625,-0.316070556640625,-0.5872802734375,-0.1322021484375
1667581577298371800,5.975371826171875,-0.30621337890625,-0.5943450927734375,-0.1194610595703125
1667581577308394000,5.98539404296875,-0.297332763671875,-0.6056365966796875,-0.10955810546875
1667581577318414800,5.995414794921875,-0.293548583984375,-0.618988037109375,-0.1039581298828125
1667581577328436700,6.005436767578125,-0.297271728515625,-0.6392822265625,-0.1144866943359375
1667581577338459000,6.015458984375,-0.299102783203125,-0.6497802734375,-0.1205291748046875
1667581577348480000,6.02547998046875,-0.30609130859375,-0.648834228515625,-0.1124114990234375
1667581577358502000,6.035501953125,-0.3321380615234375,-0.640899658203125,-0.09442138671875
1667581577368523800,6.045523681640625,-0.3604888916015625,-0.6342926025390625,-0.0761871337890625
1667581577378545000,6.055544921875,-0.387176513671875,-0.6320953369140625,-0.0662689208984375
1667581577388567000,6.065567138671875,-0.403350830078125,-0.639739990234375,-0.06744384765625
1667581577398588000,6.075587890625,-0.4192962646484375,-0.6476898193359375,-0.085113525390625
1667581577408609800,6.08560986328125,-0.4516754150390625,-0.6534423828125,-0.110504150390625
1667581577418631700,6.095631591796875,-0.4795684814453125,-0.6537017822265625,-0.1331939697265625
1667581577428652800,6.10565283203125,-0.492889404296875,-0.6434783935546875,-0.154083251953125
1667581577438675000,6.115675048828125,-0.4839324951171875,-0.618804931640625,-0.1673583984375
1667581577448696800,6.12569677734375,-0.46728515625,-0.5856170654296875,-0.1740875244140625
1667581577458717700,6.1357177734375,-0.45513916015625,-0.54962158203125,-0.1745147705078125
1667581577468740000,6.145739990234375,-0.448516845703125,-0.5244293212890625,-0.1504364013671875
1667581577478762000,6.155761962890625,-0.455474853515625,-0.5133056640625,-0.1343231201171875
1667581577488782800,6.165782958984375,-0.4900360107421875,-0.520599365234375,-0.131744384765625
1667581577498804700,6.1758046875,-0.5322265625,-0.546478271484375,-0.1437225341796875
1667581577508827000,6.185826904296875,-0.5717315673828125,-0.5776824951171875,-0.1529693603515625
1667581577518848000,6.195847900390625,-0.6229705810546875,-0.6054840087890625,-0.14483642578125
1667581577528870000,6.205869873046875,-0.6661834716796875,-0.619720458984375,-0.1215057373046875
1667581577538890800,6.215890869140625,-0.6767578125,-0.6141510009765625,-0.1029815673828125
1667581577548912600,6.22591259765625,-0.66650390625,-0.6070098876953125,-0.100067138671875
1667581577558935000,6.23593505859375,-0.651336669921875,-0.60821533203125,-0.1038970947265625
1667581577568956000,6.245955810546875,-0.637237548828125,-0.61810302734375,-0.1097869873046875
1667581577578977800,6.255977783203125,-0.621246337890625,-0.6275787353515625,-0.1194305419921875
1667581577589000000,6.266,-0.6024322509765625,-0.6235504150390625,-0.1328125
1667581577599021000,6.27602099609375,-0.5870361328125,-0.60931396484375,-0.1416778564453125
1667581577609043000,6.28604296875,-0.5635986328125,-0.593017578125,-0.1383514404296875
1667581577619064800,6.29606494140625,-0.5168304443359375,-0.5812530517578125,-0.136383056640625
1667581577629084000,6.306083984375,-0.4663543701171875,-0.573150634765625,-0.140533447265625
1667581577639105800,6.316105712890625,-0.4250030517578125,-0.56640625,-0.14727783203125
1667581577649126700,6.326126708984375,-0.396270751953125,-0.5592193603515625,-0.153106689453125
1667581577659149000,6.336149169921875,-0.3720245361328125,-0.54608154296875,-0.1578826904296875
1667581577669171000,6.3461708984375,-0.3599395751953125,-0.530181884765625,-0.1802825927734375
1667581577679191800,6.35619189453125,-0.3654632568359375,-0.5173492431640625,-0.1959075927734375
1667581577689214000,6.3662138671875,-0.3613433837890625,-0.5202484130859375,-0.2030029296875
1667581577699235800,6.37623583984375,-0.347869873046875,-0.531768798828125,-0.208709716796875
1667581577709257000,6.386257080078125,-0.338653564453125,-0.560394287109375,-0.204345703125
1667581577719278800,6.39627880859375,-0.337799072265625,-0.585845947265625,-0.1915130615234375
1667581577729301000,6.406301025390625,-0.3393707275390625,-0.5968017578125,-0.157958984375
1667581577739321900,6.41632177734375,-0.336944580078125,-0.60491943359375,-0.112548828125
1667581577749344000,6.426343994140625,-0.3376007080078125,-0.626739501953125,-0.0885162353515625
1667581577759366000,6.436365966796875,-0.3705291748046875,-0.645660400390625,-0.05194091796875
1667581577769386800,6.44638671875,-0.3979644775390625,-0.67498779296875,-0.089385986328125
1667581577779408600,6.45640869140625,-0.4033203125,-0.7252960205078125,-0.10565185546875
1667581577789429800,6.4664296875,-0.3753509521484375,-0.759033203125,-0.124755859375
1667581577799452000,6.476451904296875,-0.3761444091796875,-0.7882232666015625,-0.1487884521484375
1667581577809473800,6.486473876953125,-0.4083251953125,-0.8194732666015625,-0.1671142578125
1667581577819494700,6.49649462890625,-0.473052978515625,-0.8551025390625,-0.1816253662109375
1667581577829516500,6.5065166015625,-0.5591888427734375,-0.879852294921875,-0.179901123046875
1667581577839538700,6.51653857421875,-0.6491546630859375,-0.905426025390625,-0.1640472412109375
1667581577849559800,6.526559814453125,-0.7086334228515625,-0.932830810546875,-0.1449127197265625
1667581577859581700,6.536581787109375,-0.7226104736328125,-0.95928955078125,-0.1248321533203125
1667581577869603800,6.546603759765625,-0.7044219970703125,-0.985443115234375,-0.106292724609375
1667581577879625000,6.556625,-0.6864166259765625,-1.0146026611328125,-0.113922119140625
1667581577889646800,6.566646728515625,-0.6748809814453125,-1.047576904296875,-0.1249847412109375
1667581577899668700,6.576668701171875,-0.64984130859375,-1.069061279296875,-0.1280364990234375
1667581577909689600,6.586689697265625,-0.6204833984375,-1.0799407958984375,-0.14447021484375
1667581577919711700,6.596711669921875,-0.6042633056640625,-1.08648681640625,-0.1537017822265625
1667581577929733600,6.606733642578125,-0.591766357421875,-1.0880584716796875,-0.1604766845703125
1667581577939754800,6.616754638671875,-0.58660888671875,-1.078704833984375,-0.1826629638671875
1667581577949776600,6.626776611328125,-0.607696533203125,-1.0669403076171875,-0.2046051025390625
1667581577959798800,6.636798828125,-0.645263671875,-1.0467987060546875,-0.2164154052734375
1667581577969820000,6.64681982421875,-0.65631103515625,-1.0315399169921875,-0.218536376953125
1667581577979841800,6.656841796875,-0.6473388671875,-1.026763916015625,-0.2247467041015625
1667581577989862700,6.666862548828125,-0.6320953369140625,-1.0178375244140625,-0.2402191162109375
1667581577999884800,6.676884765625,-0.658355712890625,-1.016265869140625,-0.2549285888671875
1667581578009906700,6.68690673828125,-0.702178955078125,-1.0181884765625,-0.2509765625
1667581578019927800,6.696927734375,-0.7366790771484375,-1.0080108642578125,-0.242279052734375
1667581578029949700,6.70694970703125,-0.7626495361328125,-0.99627685546875,-0.2375335693359375
1667581578039971800,6.716971923828125,-0.7811279296875,-0.9994354248046875,-0.2357940673828125
1667581578049993700,6.72699365234375,-0.775146484375,-1.019989013671875,-0.230499267578125
1667581578060015600,6.737015625,-0.7599945068359375,-1.0433349609375,-0.2209625244140625
1667581578070036700,6.74703662109375,-0.7778167724609375,-1.054931640625,-0.20709228515625
1667581578080059000,6.757058837890625,-0.810455322265625,-1.059112548828125,-0.1816558837890625
1667581578090080800,6.767080810546875,-0.833343505859375,-1.0503387451171875,-0.160980224609375
1667581578100101600,6.7771015625,-0.8421630859375,-1.039306640625,-0.1546173095703125
1667581578110123800,6.787123779296875,-0.841094970703125,-1.04345703125,-0.1766815185546875
1667581578120146000,6.79714599609375,-0.8211669921875,-1.06756591796875,-0.215057373046875
1667581578130166800,6.807166748046875,-0.79443359375,-1.094879150390625,-0.262359619140625
1667581578140188700,6.817188720703125,-0.7939910888671875,-1.122467041015625,-0.3041229248046875
1667581578150209800,6.827209716796875,-0.793060302734375,-1.14691162109375,-0.3331298828125
1667581578160232000,6.83723193359375,-0.7866058349609375,-1.1651611328125,-0.355499267578125
1667581578170253800,6.84725390625,-0.8116607666015625,-1.194793701171875,-0.371795654296875
1667581578180274700,6.857274658203125,-0.8463287353515625,-1.23382568359375,-0.357452392578125
1667581578190296600,6.867296630859375,-0.859588623046875,-1.2628936767578125,-0.3029937744140625
1667581578200318700,6.877318603515625,-0.8733978271484375,-1.2989959716796875,-0.242401123046875
1667581578210339800,6.88733984375,-0.9089813232421875,-1.348236083984375,-0.2138671875
1667581578220361700,6.89736181640625,-0.956024169921875,-1.380645751953125,-0.2142181396484375
1667581578230383900,6.9073837890625,-1.028717041015625,-1.4009857177734375,-0.22802734375
1667581578240404700,6.91740478515625,-1.108428955078125,-1.417083740234375,-0.2432098388671875
1667581578250427000,6.927427001953125,-1.16522216796875,-1.4133758544921875,-0.2510528564453125
1667581578260448800,6.93744873046875,-1.2064361572265625,-1.3953704833984375,-0.2724456787109375
1667581578270469600,6.9474697265625,-1.21484375,-1.37017822265625,-0.288665771484375
1667581578280491800,6.95749169921875,-1.1842041015625,-1.34320068359375,-0.2965850830078125
1667581578290513000,6.967512939453125,-1.1488494873046875,-1.30401611328125,-0.307037353515625
1667581578300534800,6.97753466796875,-1.09295654296875,-1.2673187255859375,-0.3027496337890625
1667581578310556700,6.987556640625,-1.03741455078125,-1.2299346923828125,-0.291351318359375
1667581578320577800,6.997577880859375,-1.0028076171875,-1.1818389892578125,-0.274749755859375
1667581578330599700,7.007599609375,-0.973388671875,-1.12091064453125,-0.2578277587890625
1667581578340621800,7.017621826171875,-0.938873291015625,-1.069366455078125,-0.246673583984375
1667581578350642700,7.027642578125,-0.8922882080078125,-1.0284881591796875,-0.235107421875
1667581578360664800,7.037664794921875,-0.8525543212890625,-0.9879608154296875,-0.22259521484375
1667581578370686700,7.047686767578125,-0.83135986328125,-0.9502105712890625,-0.206787109375
1667581578380707800,7.057707763671875,-0.8137054443359375,-0.92376708984375,-0.2008209228515625
1667581578390729700,7.067729736328125,-0.7857208251953125,-0.9051666259765625,-0.2054290771484375
1667581578400751900,7.077751953125,-0.741607666015625,-0.8909759521484375,-0.2037811279296875
1667581578410772700,7.087772705078125,-0.690460205078125,-0.8731536865234375,-0.2067718505859375
1667581578420794600,7.097794677734375,-0.6350555419921875,-0.84796142578125,-0.2324676513671875
1667581578430815700,7.107815673828125,-0.580963134765625,-0.8286285400390625,-0.2711639404296875
1667581578440838000,7.117837890625,-0.5430908203125,-0.8173980712890625,-0.3218536376953125
1667581578450859800,7.12785986328125,-0.5189361572265625,-0.799041748046875,-0.370880126953125
1667581578460880600,7.137880615234375,-0.5027923583984375,-0.7707366943359375,-0.399688720703125
1667581578470902800,7.14790283203125,-0.4925384521484375,-0.739013671875,-0.403076171875
1667581578480925000,7.157925048828125,-0.483154296875,-0.7137298583984375,-0.3745880126953125
1667581578490945800,7.16794580078125,-0.4795684814453125,-0.689483642578125,-0.314849853515625
1667581578500967700,7.1779677734375,-0.4604644775390625,-0.670501708984375,-0.2236785888671875
1667581578510989600,7.187989501953125,-0.42950439453125,-0.647491455078125,-0.119903564453125
1667581578521010700,7.1980107421875,-0.4317474365234375,-0.615875244140625,-0.065887451171875
1667581578531032800,7.20803271484375,-0.452606201171875,-0.5949249267578125,-0.095367431640625
1667581578541054700,7.2180546875,-0.4559326171875,-0.6010589599609375,-0.1829376220703125
1667581578551075600,7.22807568359375,-0.43414306640625,-0.6092987060546875,-0.27203369140625
1667581578561098000,7.238097900390625,-0.3866729736328125,-0.600341796875,-0.31591796875
1667581578571118800,7.248118896484375,-0.3285064697265625,-0.5891265869140625,-0.3308563232421875
1667581578581140700,7.258140625,-0.2895355224609375,-0.5694580078125,-0.2854766845703125
1667581578591162600,7.26816259765625,-0.2716064453125,-0.5135040283203125,-0.2556304931640625
1667581578601183700,7.278183837890625,-0.273345947265625,-0.52581787109375,-0.268524169921875
1667581578611206000,7.288205810546875,-0.3126373291015625,-0.53485107421875,-0.256256103515625
1667581578621227800,7.298227783203125,-0.350555419921875,-0.5346221923828125,-0.2788543701171875
1667581578631248600,7.30824853515625,-0.3580474853515625,-0.542327880859375,-0.2673187255859375
1667581578641270500,7.3182705078125,-0.3446502685546875,-0.5417327880859375,-0.246795654296875
1667581578651293000,7.32829296875,-0.33465576171875,-0.5319061279296875,-0.2389678955078125
1667581578661313800,7.338313720703125,-0.3368072509765625,-0.5352935791015625,-0.2457275390625
1667581578671335700,7.348335693359375,-0.345458984375,-0.54205322265625,-0.2496795654296875
1667581578681357800,7.35835791015625,-0.34967041015625,-0.5379180908203125,-0.23736572265625
1667581578691379000,7.36837890625,-0.3507080078125,-0.5251617431640625,-0.23760986328125
1667581578701400800,7.37840087890625,-0.353729248046875,-0.5138092041015625,-0.2625579833984375
1667581578711421700,7.388421630859375,-0.3467254638671875,-0.511993408203125,-0.29400634765625
1667581578721443600,7.398443603515625,-0.3233489990234375,-0.516693115234375,-0.3348388671875
1667581578731465700,7.4084658203125,-0.29571533203125,-0.523773193359375,-0.3715362548828125
1667581578741486800,7.41848681640625,-0.26348876953125,-0.5235443115234375,-0.380889892578125
1667581578751508700,7.4285087890625,-0.235504150390625,-0.512786865234375,-0.367828369140625
1667581578761530600,7.438530517578125,-0.232879638671875,-0.5009918212890625,-0.3473358154296875
1667581578771551500,7.448551513671875,-0.252838134765625,-0.5010528564453125,-0.3245849609375
1667581578781573600,7.45857373046875,-0.2855377197265625,-0.4998779296875,-0.315338134765625
1667581578791595500,7.468595458984375,-0.32452392578125,-0.492645263671875,-0.3190155029296875
1667581578801616400,7.478616455078125,-0.338165283203125,-0.4974822998046875,-0.318328857421875
1667581578811638300,7.48863818359375,-0.3311004638671875,-0.5189971923828125,-0.33355712890625
1667581578821660400,7.498660400390625,-0.3445587158203125,-0.543212890625,-0.36468505859375
1667581578831681500,7.508681640625,-0.3533172607421875,-0.5596771240234375,-0.4039154052734375
1667581578841703400,7.518703369140625,-0.331573486328125,-0.5709381103515625,-0.432098388671875
1667581578851724300,7.528724365234375,-0.2851409912109375,-0.596160888671875,-0.43914794921875
1667581578861746400,7.538746337890625,-0.2581787109375,-0.6339111328125,-0.435577392578125
1667581578871768600,7.5487685546875,-0.2668609619140625,-0.6697235107421875,-0.4434051513671875
1667581578881789400,7.55878955078125,-0.29364013671875,-0.7013702392578125,-0.46661376953125
1667581578891811300,7.568811279296875,-0.332489013671875,-0.7337188720703125,-0.504180908203125
1667581578901833500,7.57883349609375,-0.364715576171875,-0.7720184326171875,-0.539825439453125
1667581578911854600,7.5888544921875,-0.3767547607421875,-0.810577392578125,-0.5411834716796875
1667581578921876500,7.59887646484375,-0.3656005859375,-0.8365020751953125,-0.5071868896484375
1667581578931898400,7.6088984375,-0.342620849609375,-0.8652191162109375,-0.4419403076171875
1667581578941919500,7.61891943359375,-0.334991455078125,-0.9055938720703125,-0.35430908203125
1667581578951941400,7.62894140625,-0.345489501953125,-0.954864501953125,-0.2755279541015625
1667581578961963500,7.638963623046875,-0.37957763671875,-0.9979400634765625,-0.2310028076171875
1667581578971984400,7.648984375,-0.445465087890625,-1.018585205078125,-0.200897216796875
1667581578982006500,7.659006591796875,-0.525238037109375,-1.00994873046875,-0.1643829345703125
1667581578992027600,7.669027587890625,-0.6143341064453125,-0.9977569580078125,-0.13330078125
1667581579002049500,7.679049560546875,-0.6938323974609375,-1.0160064697265625,-0.0897979736328125
1667581579012071400,7.689071533203125,-0.708709716796875,-1.031585693359375,-0.0433197021484375
1667581579022092500,7.699092529296875,-0.6446990966796875,-1.0361328125,0.0145263671875
1667581579032114400,7.709114501953125,-0.544891357421875,-1.05194091796875,0.064483642578125
1667581579042136300,7.71913623046875,-0.472137451171875,-1.0725250244140625,0.0892181396484375
1667581579052157400,7.729157470703125,-0.457275390625,-1.099761962890625,0.14306640625
1667581579062179600,7.7391796875,-0.4623260498046875,-1.1033935546875,0.1625518798828125
1667581579072201500,7.749201416015625,-0.519927978515625,-1.0916748046875,0.2190093994140625
1667581579082222300,7.759222412109375,-0.6094970703125,-1.072418212890625,0.2869720458984375
1667581579092244500,7.769244384765625,-0.692596435546875,-1.0330047607421875,0.330474853515625
1667581579102266600,7.7792666015625,-0.768646240234375,-0.9889984130859375,0.3480682373046875
1667581579112287500,7.78928759765625,-0.8223114013671875,-0.9596405029296875,0.33544921875
1667581579122309400,7.799309326171875,-0.84613037109375,-0.9498443603515625,0.2894134521484375
1667581579132330500,7.80933056640625,-0.8286285400390625,-0.9489898681640625,0.2624664306640625
1667581579142352600,7.8193525390625,-0.7897186279296875,-0.9642333984375,0.2398834228515625
1667581579152374500,7.82937451171875,-0.7683258056640625,-0.9697418212890625,0.178466796875
1667581579162395400,7.8393955078125,-0.7723846435546875,-0.9784698486328125,0.108551025390625
1667581579172417300,7.849417236328125,-0.782135009765625,-0.983001708984375,0.0484466552734375
1667581579182439700,7.859439697265625,-0.78131103515625,-0.9651947021484375,0.0109405517578125
1667581579192460500,7.86946044921875,-0.7554168701171875,-0.9310760498046875,-0.0063629150390625
1667581579202482400,7.879482421875,-0.7012939453125,-0.8989410400390625,0.003204345703125
1667581579212504300,7.88950439453125,-0.627899169921875,-0.8671722412109375,0.016815185546875
1667581579222525400,7.899525390625,-0.5684051513671875,-0.8392486572265625,0.023895263671875
1667581579232547600,7.909547607421875,-0.52593994140625,-0.8170166015625,0.011016845703125
1667581579242569500,7.919569580078125,-0.4983062744140625,-0.799713134765625,-0.0071868896484375
1667581579252590300,7.92959033203125,-0.490875244140625,-0.792205810546875,0.0307159423828125
1667581579262612500,7.939612548828125,-0.4750823974609375,-0.759033203125,0.0127105712890625
1667581579272633600,7.949633544921875,-0.4630889892578125,-0.7271575927734375,0.002105712890625
1667581579282655500,7.959655517578125,-0.44940185546875,-0.7173614501953125,0.0037384033203125
1667581579292677400,7.969677490234375,-0.431121826171875,-0.7291107177734375,0.0081939697265625
1667581579302698500,7.979698486328125,-0.428466796875,-0.747467041015625,0.0089569091796875
1667581579312720600,7.989720703125,-0.449127197265625,-0.756561279296875,0.0159149169921875
1667581579322742500,7.999742431640625,-0.48760986328125,-0.74993896484375,0.0395660400390625
1667581579332763400,8.009763427734375,-0.5244903564453125,-0.7332305908203125,0.0375823974609375
1667581579342785300,8.019785400390624,-0.538055419921875,-0.7167816162109375,0.029296875
1667581579352807400,8.029807373046875,-0.518768310546875,-0.708953857421875,0.0174407958984375
1667581579362828500,8.03982861328125,-0.4900054931640625,-0.709625244140625,0.0059356689453125
1667581579372850400,8.049850341796875,-0.465301513671875,-0.7152099609375,-0.010894775390625
1667581579382871300,8.059871337890625,-0.4511566162109375,-0.729888916015625,-0.0175628662109375
1667581579392893400,8.0698935546875,-0.4531097412109375,-0.750274658203125,-0.026458740234375
1667581579402915600,8.07991552734375,-0.4720458984375,-0.7867889404296875,-0.044921875
1667581579412936400,8.0899365234375,-0.4864044189453125,-0.8340911865234375,-0.0601654052734375
1667581579422958300,8.099958251953124,-0.5066070556640625,-0.8724822998046875,-0.0920562744140625
1667581579432980500,8.10998046875,-0.542022705078125,-0.8948516845703125,-0.1163482666015625
1667581579443001600,8.120001708984375,-0.569061279296875,-0.90899658203125,-0.1259918212890625
1667581579453023500,8.1300234375,-0.5848236083984375,-0.906829833984375,-0.1362457275390625
1667581579463045400,8.14004541015625,-0.5883636474609375,-0.8986053466796875,-0.135223388671875
1667581579473066500,8.15006640625,-0.5662078857421875,-0.8921661376953125,-0.1318206787109375
1667581579483088400,8.16008837890625,-0.528900146484375,-0.885284423828125,-0.1301116943359375
1667581579493110500,8.170110595703125,-0.4956512451171875,-0.8743438720703125,-0.119293212890625
1667581579503131400,8.18013134765625,-0.4577178955078125,-0.8604736328125,-0.1167449951171875
1667581579513153500,8.190153564453125,-0.42266845703125,-0.8391876220703125,-0.11956787109375
1667581579523174400,8.20017431640625,-0.3974761962890625,-0.8118133544921875,-0.1226654052734375
1667581579533196500,8.210196533203124,-0.3665618896484375,-0.789093017578125,-0.114715576171875
1667581579543218400,8.220218505859375,-0.3288726806640625,-0.768768310546875,-0.0980377197265625
1667581579553239300,8.2302392578125,-0.2974395751953125,-0.7432708740234375,-0.0757598876953125
1667581579563261400,8.240261474609374,-0.2753448486328125,-0.7188568115234375,-0.071014404296875
1667581579573283300,8.250283447265625,-0.2597808837890625,-0.7003936767578125,-0.08636474609375
1667581579583304400,8.260304443359376,-0.255523681640625,-0.68701171875,-0.1083526611328125
1667581579593326600,8.27032666015625,-0.2712860107421875,-0.6687469482421875,-0.1369171142578125
1667581579603348500,8.280348388671875,-0.2911529541015625,-0.647247314453125,-0.1465911865234375
1667581579613369300,8.290369384765626,-0.2989349365234375,-0.6274261474609375,-0.13641357421875
1667581579623391500,8.3003916015625,-0.2923126220703125,-0.6119232177734375,-0.11187744140625
1667581579633412400,8.310412353515625,-0.30487060546875,-0.5886993408203125,-0.0765533447265625
1667581579643434500,8.3204345703125,-0.310943603515625,-0.5606689453125,-0.036712646484375
1667581579653456400,8.330456298828125,-0.3063201904296875,-0.54107666015625,-0.01080322265625
1667581579663477500,8.3404775390625,-0.2960357666015625,-0.533721923828125,0.0098724365234375
1667581579673499400,8.35049951171875,-0.3031463623046875,-0.5396881103515625,0.0104217529296875
1667581579683521500,8.360521484375,-0.3322601318359375,-0.5576629638671875,-0.01556396484375
1667581579693542400,8.37054248046875,-0.3690032958984375,-0.5905303955078125,-0.0572357177734375
1667581579703564300,8.380564208984374,-0.3726043701171875,-0.6192779541015625,-0.102630615234375
1667581579713586700,8.390586669921875,-0.35211181640625,-0.628662109375,-0.129974365234375
1667581579723607600,8.400607666015626,-0.323577880859375,-0.615753173828125,-0.1284942626953125
1667581579733629400,8.41062939453125,-0.300750732421875,-0.5987548828125,-0.0930633544921875
1667581579743650600,8.420650634765625,-0.298980712890625,-0.582763671875,-0.0467071533203125
1667581579753672400,8.43067236328125,-0.3268585205078125,-0.5731201171875,-0.0098419189453125
1667581579763694600,8.440694580078125,-0.3651275634765625,-0.5710906982421875,0.0147552490234375
1667581579773716000,8.450716064453125,-0.4124908447265625,-0.5837554931640625,0.0105438232421875
1667581579783738000,8.460738037109374,-0.4454345703125,-0.6077880859375,0.0001373291015625
1667581579793760000,8.470760009765625,-0.4491729736328125,-0.6283721923828125,-0.0062408447265625
1667581579803781000,8.480781005859376,-0.4490509033203125,-0.644500732421875,-0.013336181640625
1667581579813803300,8.49080322265625,-0.4561309814453125,-0.6575164794921875,-0.031036376953125
1667581579823825200,8.5008251953125,-0.452972412109375,-0.6582489013671875,-0.0445709228515625
1667581579833846000,8.510845947265626,-0.462860107421875,-0.6463470458984375,-0.0596923828125
1667581579843868000,8.520867919921875,-0.4893341064453125,-0.652313232421875,-0.0601959228515625
1667581579853890300,8.530890380859375,-0.468170166015625,-0.6671905517578125,-0.0388031005859375
1667581579863911200,8.5409111328125,-0.4147491455078125,-0.679534912109375,-0.010650634765625
1667581579873933000,8.55093310546875,-0.3671875,-0.6849517822265625,0.026397705078125
1667581579883954200,8.5609541015625,-0.3394775390625,-0.685302734375,0.059112548828125
1667581579893976000,8.57097607421875,-0.355743408203125,-0.6891937255859375,0.064422607421875
1667581579903998200,8.580998291015625,-0.4045867919921875,-0.6955108642578125,0.0414581298828125
1667581579914019000,8.59101904296875,-0.4615936279296875,-0.709197998046875,0.005340576171875
1667581579924041000,8.601041015625,-0.506195068359375,-0.738037109375,-0.0520172119140625
1667581579934063000,8.61106298828125,-0.5004730224609375,-0.771087646484375,-0.0875701904296875
1667581579944084200,8.621084228515626,-0.459808349609375,-0.785369873046875,-0.0867156982421875
1667581579954106000,8.631106201171875,-0.4104461669921875,-0.7779998779296875,-0.0624237060546875
1667581579964128000,8.6411279296875,-0.37646484375,-0.75543212890625,-0.0413970947265625
1667581579974148900,8.65114892578125,-0.3649749755859375,-0.7333526611328125,-0.033355712890625
1667581579984171300,8.661171142578125,-0.3685760498046875,-0.7228546142578125,-0.0369720458984375
1667581579994192100,8.671192138671875,-0.385101318359375,-0.7270660400390625,-0.0371551513671875
1667581580004214000,8.681214111328124,-0.38763427734375,-0.734344482421875,-0.0433197021484375
1667581580014236000,8.69123583984375,-0.3845977783203125,-0.7557220458984375,-0.0475921630859375
1667581580024257300,8.70125732421875,-0.4062957763671875,-0.7927398681640625,-0.0622406005859375
1667581580034279200,8.711279052734374,-0.453033447265625,-0.82965087890625,-0.0689697265625
1667581580044301000,8.721301025390625,-0.511077880859375,-0.8580169677734375,-0.0643768310546875
1667581580054322000,8.731322021484376,-0.5606842041015625,-0.8864898681640625,-0.0555419921875
1667581580064344000,8.741343994140625,-0.592742919921875,-0.9056243896484375,-0.0494537353515625
1667581580074366200,8.7513662109375,-0.6088409423828125,-0.9137115478515625,-0.0390625
1667581580084387000,8.761386962890626,-0.6237030029296875,-0.916534423828125,-0.038482666015625
1667581580094409000,8.771408935546875,-0.6333160400390625,-0.9263916015625,-0.0375213623046875
1667581580104430000,8.78143017578125,-0.6184234619140625,-0.942108154296875,-0.0369415283203125
1667581580114452200,8.7914521484375,-0.5804595947265625,-0.9593963623046875,-0.0366363525390625
1667581580124474000,8.80147412109375,-0.5523223876953125,-0.971588134765625,-0.027984619140625
1667581580134495000,8.811494873046875,-0.5521240234375,-0.974761962890625,-0.0128631591796875
1667581580144517000,8.82151708984375,-0.56829833984375,-0.9723663330078125,0.0005340576171875
1667581580154539000,8.8315390625,-0.598175048828125,-0.9774017333984375,0.000244140625
1667581580164560100,8.84156005859375,-0.6549835205078125,-0.9792938232421875,0.001922607421875
1667581580174582000,8.85158203125,-0.6796722412109375,-0.9719696044921875,0.0233917236328125
1667581580184604200,8.861604248046875,-0.658935546875,-0.969390869140625,0.032684326171875
1667581580194625000,8.871625,-0.6371307373046875,-0.9827117919921875,0.030609130859375
1667581580204647200,8.881647216796875,-0.6383209228515625,-1.0044403076171875,0.0022735595703125
1667581580214668000,8.89166796875,-0.6267547607421875,-1.0294952392578125,-0.0213623046875
1667581580224690200,8.901690185546874,-0.5911407470703125,-1.050506591796875,-0.0630340576171875
1667581580234712000,8.911712158203125,-0.544342041015625,-1.069732666015625,-0.09149169921875
1667581580244733200,8.921733154296875,-0.5003204345703125,-1.0684661865234375,-0.1038818359375
1667581580254755000,8.931755126953124,-0.46356201171875,-1.0561370849609375,-0.121490478515625
1667581580264777200,8.941777099609375,-0.4547119140625,-1.0684051513671875,-0.13140869140625
1667581580274798000,8.951798095703126,-0.509674072265625,-1.087188720703125,-0.0945587158203125
1667581580284820000,8.961820068359375,-0.6220855712890625,-1.079132080078125,-0.0394287109375
1667581580294842000,8.971842041015625,-0.81268310546875,-1.09136962890625,0.0084991455078125
1667581580304863000,8.981863037109376,-1.036041259765625,-1.1329345703125,0.01654052734375
1667581580314885000,8.991885009765625,-1.17352294921875,-1.17230224609375,0.0161590576171875
1667581580324906000,9.001906005859375,-1.1475982666015625,-1.2130889892578125,0.0095672607421875
1667581580334928100,9.01192822265625,-1.01324462890625,-1.283447265625,-0.049835205078125
1667581580344950300,9.0219501953125,-0.8518524169921875,-1.3678741455078125,-0.1177978515625
1667581580354971100,9.03197119140625,-0.7150115966796875,-1.4270172119140625,-0.1537322998046875
1667581580364993000,9.041992919921874,-0.6203765869140625,-1.438873291015625,-0.1349029541015625
1667581580375015000,9.052014892578125,-0.60186767578125,-1.4200897216796875,-0.1116790771484375
1667581580385036000,9.0620361328125,-0.6472015380859375,-1.4111175537109375,-0.0841522216796875
1667581580395058200,9.07205810546875,-0.7308502197265625,-1.389862060546875,-0.0394287109375
1667581580405080000,9.082080078125,-0.8154296875,-1.3522796630859375,-0.0106353759765625
1667581580415101000,9.092100830078126,-0.8813934326171875,-1.330780029296875,0.0249481201171875
1667581580425123000,9.102123046875,-0.9261627197265625,-1.308868408203125,0.070159912109375
1667581580435144200,9.112144287109375,-0.954254150390625,-1.27215576171875,0.090667724609375
1667581580445166000,9.122166015625,-0.9691162109375,-1.2418975830078125,0.088226318359375
1667581580455188000,9.13218798828125,-0.971649169921875,-1.2230682373046875,0.0435943603515625
1667581580465209000,9.142208984375,-0.931976318359375,-1.205810546875,0.0045013427734375
1667581580475231200,9.152231201171874,-0.8677825927734375,-1.1774139404296875,-0.01678466796875
1667581580485253000,9.162253173828125,-0.8283843994140625,-1.143768310546875,-0.028167724609375
1667581580495274000,9.17227392578125,-0.7883453369140625,-1.1027679443359375,-0.020477294921875
1667581580505296000,9.1822958984375,-0.7409820556640625,-1.0497894287109375,-0.0119171142578125
1667581580515318300,9.192318359375,-0.705535888671875,-0.99896240234375,0.0087127685546875
1667581580525339100,9.202339111328126,-0.682891845703125,-0.9568634033203125,0.0064239501953125
1667581580535361000,9.212361083984375,-0.6863861083984375,-0.9307098388671875,-0.0234375
1667581580545382100,9.222382080078125,-0.6805419921875,-0.9304046630859375,-0.0419158935546875
1667581580555404300,9.232404296875,-0.638427734375,-0.9420013427734375,-0.0462646484375
1667581580565426200,9.24242626953125,-0.611419677734375,-0.94610595703125,-0.041839599609375
1667581580575447000,9.252447021484375,-0.6372222900390625,-0.9328460693359375,-0.0176544189453125
1667581580585469000,9.262468994140624,-0.6963958740234375,-0.9112091064453125,0.009552001953125
1667581580595491000,9.272490966796875,-0.766357421875,-0.9029083251953125,0.0333709716796875
1667581580605512200,9.28251220703125,-0.8115234375,-0.9062347412109375,0.0458526611328125
1667581580615534000,9.2925341796875,-0.8368988037109375,-0.9163818359375,0.0110015869140625
1667581580625556000,9.302555908203125,-0.856475830078125,-0.960845947265625,-0.0355072021484375
1667581580635577000,9.3125771484375,-0.8498382568359375,-1.004638671875,-0.0418701171875
1667581580645599200,9.32259912109375,-0.825775146484375,-1.0082244873046875,-0.0208282470703125
1667581580655620000,9.3326201171875,-0.795623779296875,-0.9916229248046875,0.0013427734375
1667581580665642000,9.34264208984375,-0.7774200439453125,-0.9853057861328125,0.026092529296875
1667581580675664100,9.3526640625,-0.77410888671875,-0.982452392578125,0.0248565673828125
1667581580685685200,9.362685302734375,-0.800201416015625,-0.9671630859375,-0.0195770263671875
1667581580695707100,9.37270703125,-0.8348388671875,-0.94818115234375,-0.083465576171875
1667581580705729000,9.38272900390625,-0.854156494140625,-0.927490234375,-0.137542724609375
1667581580715750000,9.39275,-0.82568359375,-0.921661376953125,-0.1536102294921875
1667581580725772000,9.40277197265625,-0.757354736328125,-0.930755615234375,-0.0950927734375
1667581580735794200,9.412794189453125,-0.666656494140625,-0.91845703125,0.0038604736328125
1667581580745815000,9.42281494140625,-0.612274169921875,-0.8838958740234375,0.0719146728515625
1667581580755837200,9.432837158203125,-0.6258697509765625,-0.84912109375,0.08526611328125
1667581580765858000,9.442858154296875,-0.6502227783203125,-0.82086181640625,0.0818328857421875
1667581580775880000,9.4528798828125,-0.6753082275390625,-0.7891998291015625,0.0605316162109375
1667581580785902000,9.462902099609375,-0.6989898681640625,-0.7599639892578125,0.01690673828125
1667581580795923000,9.4729228515625,-0.7048797607421875,-0.7360076904296875,-0.0336761474609375
1667581580805944800,9.48294482421875,-0.6762542724609375,-0.7289886474609375,-0.0713653564453125
1667581580815967000,9.492967041015625,-0.62127685546875,-0.7336578369140625,-0.0858917236328125
1667581580825988000,9.502988037109375,-0.5587310791015625,-0.7341766357421875,-0.07928466796875
1667581580836010000,9.513010009765624,-0.5067901611328125,-0.7236175537109375,-0.050048828125
1667581580846032000,9.523031982421875,-0.480194091796875,-0.693756103515625,-0.0230712890625
1667581580856053000,9.533052978515625,-0.48883056640625,-0.6624755859375,-0.0055084228515625
1667581580866075100,9.5430751953125,-0.52490234375,-0.63775634765625,0.006866455078125
1667581580876096000,9.553095947265625,-0.5798797607421875,-0.608612060546875,0.0299072265625
1667581580886118000,9.563117919921876,-0.6259613037109375,-0.5792999267578125,0.0601806640625
1667581580896139800,9.573139892578125,-0.638031005859375,-0.5563507080078125,0.0645904541015625
1667581580906161200,9.5831611328125,-0.614227294921875,-0.547760009765625,0.040863037109375
1667581580916183000,9.59318310546875,-0.57769775390625,-0.5434112548828125,0.0041351318359375
1667581580926205000,9.603204833984375,-0.560272216796875,-0.5382537841796875,-0.0423431396484375
1667581580936225800,9.613225830078125,-0.559844970703125,-0.5247802734375,-0.087738037109375
1667581580946248000,9.623248046875,-0.5452423095703125,-0.5059967041015625,-0.126739501953125
1667581580956270000,9.63327001953125,-0.49652099609375,-0.5028533935546875,-0.1436309814453125
1667581580966291000,9.643291015625,-0.4359283447265625,-0.4936065673828125,-0.1594696044921875
1667581580976312800,9.653312744140624,-0.3865203857421875,-0.49774169921875,-0.1966094970703125
1667581580986334000,9.663333984375,-0.361236572265625,-0.5315399169921875,-0.2100982666015625
1667581580996356000,9.673356201171876,-0.3622283935546875,-0.53814697265625,-0.1910247802734375
1667581581006378000,9.6833779296875,-0.4044189453125,-0.513702392578125,-0.1644744873046875
1667581581016398800,9.69339892578125,-0.454010009765625,-0.484832763671875,-0.122406005859375
1667581581026421000,9.7034208984375,-0.4763946533203125,-0.4577178955078125,-0.0765838623046875
1667581581036443000,9.71344287109375,-0.475616455078125,-0.43939208984375,-0.0500640869140625
1667581581046464000,9.723464111328125,-0.446624755859375,-0.436279296875,-0.034393310546875
1667581581056486000,9.73348583984375,-0.4035797119140625,-0.4444122314453125,-0.025665283203125
1667581581066508000,9.743508056640625,-0.36639404296875,-0.4608001708984375,-0.0157623291015625
1667581581076529200,9.753529052734375,-0.350341796875,-0.480255126953125,-0.00390625
1667581581086551000,9.763551025390624,-0.3529510498046875,-0.498748779296875,0.0054931640625
1667581581096572000,9.773572021484375,-0.3776702880859375,-0.505401611328125,0.0071258544921875
1667581581106593800,9.78359375,-0.4031829833984375,-0.5047149658203125,-0.0031585693359375
1667581581116616000,9.793615966796875,-0.4257354736328125,-0.510772705078125,-0.0277099609375
1667581581126637000,9.803636962890625,-0.4403228759765625,-0.5302581787109375,-0.0637664794921875
1667581581136659000,9.813658935546876,-0.447662353515625,-0.5604400634765625,-0.099700927734375
1667581581146681000,9.82368115234375,-0.440338134765625,-0.5910491943359375,-0.1261749267578125
1667581581156702000,9.833701904296875,-0.424072265625,-0.6226959228515625,-0.130035400390625
1667581581166723800,9.843723876953124,-0.4163818359375,-0.6398468017578125,-0.1007537841796875
1667581581176745000,9.853744873046875,-0.4406890869140625,-0.6356964111328125,-0.05572509765625
1667581581186766800,9.863766845703125,-0.5027008056640625,-0.62188720703125,-0.020050048828125
1667581581196789000,9.8737890625,-0.57281494140625,-0.613128662109375,-0.0054931640625
1667581581206810000,9.88381005859375,-0.6204681396484375,-0.6067657470703125,0.003021240234375
1667581581216832000,9.89383203125,-0.6342620849609375,-0.602325439453125,-0.0157318115234375
1667581581226854000,9.90385400390625,-0.6218109130859375,-0.61962890625,-0.057525634765625
1667581581236875000,9.913875,-0.5934906005859375,-0.6349029541015625,-0.092498779296875
1667581581246897000,9.92389697265625,-0.5672454833984375,-0.643402099609375,-0.10736083984375
1667581581256918800,9.933918701171875,-0.5597991943359375,-0.6607513427734375,-0.123779296875
1667581581266940000,9.94393994140625,-0.545928955078125,-0.678802490234375,-0.1335601806640625
1667581581276962000,9.953962158203124,-0.5202178955078125,-0.6981201171875,-0.1634063720703125
1667581581286983000,9.96398291015625,-0.5147552490234375,-0.7355194091796875,-0.2056732177734375
1667581581297005000,9.974005126953125,-0.5579833984375,-0.736419677734375,-0.1864471435546875
1667581581307027000,9.98402685546875,-0.5941009521484375,-0.709808349609375,-0.180267333984375
1667581581317048000,9.994048095703125,-0.65155029296875,-0.7213592529296875,-0.19989013671875
1667581581327070000,10.004070068359376,-0.6779632568359375,-0.7335205078125,-0.1887359619140625
1667581581337091800,10.014091796875,-0.678497314453125,-0.7263031005859375,-0.1789398193359375
1667581581347113000,10.024113037109375,-0.68646240234375,-0.728302001953125,-0.17584228515625
1667581581357135000,10.034135009765626,-0.6938629150390625,-0.737518310546875,-0.1738433837890625
1667581581367156000,10.044156005859374,-0.690521240234375,-0.733734130859375,-0.176910400390625
1667581581377177900,10.054177734375,-0.675048828125,-0.7160491943359375,-0.179412841796875
1667581581387200000,10.064199951171876,-0.6485137939453125,-0.70672607421875,-0.166778564453125
1667581581397220900,10.074220947265625,-0.6176300048828125,-0.7126922607421875,-0.1448516845703125
1667581581407243000,10.084242919921875,-0.6022796630859375,-0.7274932861328125,-0.132720947265625
1667581581417265000,10.094264892578124,-0.614715576171875,-0.7379913330078125,-0.1216278076171875
1667581581427286000,10.1042861328125,-0.616058349609375,-0.7341766357421875,-0.09954833984375
1667581581437308200,10.11430810546875,-0.594207763671875,-0.7150726318359375,-0.0709991455078125
1667581581447330000,10.124330078125,-0.56500244140625,-0.6964263916015625,-0.0476837158203125
1667581581457351000,10.134350830078125,-0.540069580078125,-0.67816162109375,-0.044647216796875
1667581581467372800,10.144372802734376,-0.5031280517578125,-0.66546630859375,-0.05474853515625
1667581581477394000,10.154393798828124,-0.4428863525390625,-0.66033935546875,-0.05572509765625
1667581581487416000,10.164416015625,-0.3814239501953125,-0.661956787109375,-0.0489654541015625
1667581581497438000,10.17443798828125,-0.339569091796875,-0.665374755859375,-0.03509521484375
1667581581507458800,10.184458740234374,-0.3190155029296875,-0.6639251708984375,-0.0140838623046875
1667581581517481000,10.19448095703125,-0.3072662353515625,-0.648712158203125,0.0037841796875
1667581581527503000,10.204503173828124,-0.311309814453125,-0.631011962890625,0.0056915283203125
1667581581537524000,10.21452392578125,-0.3314056396484375,-0.6307525634765625,-0.0036163330078125
1667581581547545900,10.2245458984375,-0.346527099609375,-0.6395263671875,-0.014892578125
1667581581557567000,10.23456689453125,-0.3518524169921875,-0.6416473388671875,-0.0246734619140625
1667581581567589000,10.244589111328125,-0.362640380859375,-0.651458740234375,-0.0209197998046875
1667581581577611000,10.254611083984376,-0.395538330078125,-0.6579437255859375,-0.0079498291015625
1667581581587631900,10.2646318359375,-0.4282989501953125,-0.667083740234375,0.0120391845703125
1667581581597653800,10.27465380859375,-0.4528045654296875,-0.6687469482421875,0.02099609375
1667581581607676000,10.284676025390626,-0.469085693359375,-0.6683349609375,0.005889892578125
1667581581617697000,10.294697021484374,-0.4748687744140625,-0.6739044189453125,-0.045989990234375
1667581581627719000,10.304718994140625,-0.4697723388671875,-0.69256591796875,-0.1418609619140625
1667581581637739800,10.31473974609375,-0.4381256103515625,-0.7327880859375,-0.22723388671875
1667581581647761000,10.324760986328124,-0.388427734375,-0.770721435546875,-0.2828369140625
1667581581657783000,10.334782958984375,-0.3545684814453125,-0.802764892578125,-0.29681396484375
1667581581667805000,10.344804931640626,-0.3565216064453125,-0.81103515625,-0.2855072021484375
1667581581677826000,10.354825927734375,-0.3881683349609375,-0.801788330078125,-0.2421875
1667581581687848000,10.364847900390625,-0.45404052734375,-0.7772064208984375,-0.1751251220703125
1667581581697870000,10.3748701171875,-0.541107177734375,-0.74493408203125,-0.130401611328125
1667581581707891000,10.384890869140625,-0.6269378662109375,-0.7283782958984375,-0.124755859375
1667581581717912800,10.394912841796875,-0.6660003662109375,-0.7260589599609375,-0.1338043212890625
1667581581727934000,10.404933837890624,-0.658599853515625,-0.7318572998046875,-0.168548583984375
1667581581737956000,10.4149560546875,-0.6147003173828125,-0.741241455078125,-0.22320556640625
1667581581747978000,10.42497802734375,-0.553375244140625,-0.7570953369140625,-0.2725067138671875
1667581581757998800,10.434998779296874,-0.4888916015625,-0.7745819091796875,-0.296600341796875
1667581581768021000,10.44502099609375,-0.4085693359375,-0.79638671875,-0.294647216796875
1667581581778042400,10.45504248046875,-0.354766845703125,-0.815216064453125,-0.26556396484375
1667581581788063200,10.465063232421874,-0.335174560546875,-0.8196868896484375,-0.2206268310546875
1667581581798085400,10.47508544921875,-0.33294677734375,-0.8243560791015625,-0.1535186767578125
1667581581808107300,10.485107177734376,-0.3620452880859375,-0.83477783203125,-0.08587646484375
1667581581818128400,10.49512841796875,-0.4189910888671875,-0.845855712890625,-0.05615234375
1667581581828150300,10.505150390625,-0.4927520751953125,-0.8668212890625,-0.063812255859375
1667581581838171100,10.515171142578126,-0.579498291015625,-0.887969970703125,-0.10430908203125
1667581581848193300,10.525193359375,-0.64532470703125,-0.9016571044921875,-0.16607666015625
1667581581858215400,10.53521533203125,-0.6313018798828125,-0.9176025390625,-0.21722412109375
1667581581868236300,10.545236328125,-0.5561370849609375,-0.9529571533203125,-0.25726318359375
1667581581878258200,10.555258056640625,-0.467041015625,-0.9979095458984375,-0.302734375
1667581581888280300,10.5652802734375,-0.4175872802734375,-1.0222015380859375,-0.353302001953125
1667581581898301400,10.575301513671874,-0.4158172607421875,-1.015777587890625,-0.38116455078125
1667581581908323300,10.5853232421875,-0.4127655029296875,-0.99566650390625,-0.384429931640625
1667581581918345500,10.595345458984376,-0.4210662841796875,-0.967529296875,-0.380584716796875
1667581581928366300,10.605366455078125,-0.4568634033203125,-0.946868896484375,-0.3718719482421875
1667581581938388200,10.61538818359375,-0.50091552734375,-0.9391021728515625,-0.363433837890625
1667581581948409300,10.625409423828126,-0.53338623046875,-0.936492919921875,-0.363555908203125
1667581581958431200,10.63543115234375,-0.5536346435546875,-0.94000244140625,-0.3535003662109375
1667581581968453400,10.645453369140625,-0.5499725341796875,-0.9393768310546875,-0.329803466796875
1667581581978474500,10.655474609375,-0.516448974609375,-0.9396209716796875,-0.30621337890625
1667581581988496400,10.665496337890625,-0.46905517578125,-0.947509765625,-0.2795257568359375
1667581581998518300,10.675518310546876,-0.4541778564453125,-0.9515228271484375,-0.26715087890625
1667581582008539400,10.685539306640624,-0.472015380859375,-0.9474639892578125,-0.26165771484375
1667581582018561300,10.695561279296875,-0.5028076171875,-0.945953369140625,-0.29278564453125
1667581582028582400,10.70558251953125,-0.5215911865234375,-0.9635772705078125,-0.34698486328125
1667581582038604300,10.715604248046875,-0.536590576171875,-0.984222412109375,-0.3935089111328125
1667581582048628200,10.725628173828126,-0.5365447998046875,-0.994232177734375,-0.4139404296875
1667581582058649300,10.7356494140625,-0.5207977294921875,-1.003509521484375,-0.404205322265625
1667581582068671200,10.745671142578125,-0.496917724609375,-1.01654052734375,-0.386138916015625
1667581582078693400,10.755693359375,-0.473663330078125,-1.032257080078125,-0.36724853515625
1667581582088714200,10.76571435546875,-0.461181640625,-1.052947998046875,-0.3319549560546875
1667581582098736400,10.775736328125,-0.488006591796875,-1.0741119384765625,-0.3219146728515625
1667581582108758500,10.785758544921874,-0.5484161376953125,-1.089935302734375,-0.3479461669921875
1667581582118779400,10.795779296875,-0.586090087890625,-1.11767578125,-0.372528076171875
1667581582128801300,10.80580126953125,-0.5791015625,-1.1369781494140625,-0.3929595947265625
1667581582138822400,10.815822509765624,-0.549041748046875,-1.142730712890625,-0.4132232666015625
1667581582148844300,10.82584423828125,-0.518157958984375,-1.1403045654296875,-0.43115234375
1667581582158866400,10.835866455078126,-0.4983062744140625,-1.13055419921875,-0.4338226318359375
1667581582168887300,10.84588720703125,-0.4806060791015625,-1.116729736328125,-0.4300994873046875
1667581582178909200,10.8559091796875,-0.476593017578125,-1.1103057861328125,-0.421112060546875
1667581582188931300,10.865931396484376,-0.471710205078125,-1.1172027587890625,-0.3990631103515625
1667581582198952400,10.875952392578125,-0.4821319580078125,-1.1248626708984375,-0.36883544921875
1667581582208974300,10.885974365234375,-0.5169677734375,-1.1435546875,-0.3442840576171875
1667581582218996200,10.895996337890624,-0.553375244140625,-1.15948486328125,-0.3048095703125
1667581582229017300,10.906017333984375,-0.5916748046875,-1.151123046875,-0.2578277587890625
1667581582239039500,10.91603955078125,-0.6258544921875,-1.1415863037109375,-0.2323150634765625
1667581582249060400,10.926060302734374,-0.6518402099609375,-1.1523895263671875,-0.26141357421875
1667581582259082200,10.936082275390625,-0.648712158203125,-1.16943359375,-0.324432373046875
1667581582269104000,10.946104248046876,-0.5989532470703125,-1.19659423828125,-0.3939208984375
1667581582279125500,10.95612548828125,-0.5330657958984375,-1.2266387939453125,-0.4708251953125
1667581582289147400,10.9661474609375,-0.4700927734375,-1.2495574951171875,-0.5204315185546875
1667581582299169300,10.976169189453126,-0.414398193359375,-1.2592010498046875,-0.5389404296875
1667581582309190400,10.9861904296875,-0.386505126953125,-1.2531280517578125,-0.557159423828125
1667581582319212500,10.996212646484375,-0.388580322265625,-1.251739501953125,-0.573486328125
1667581582329233400,11.0062333984375,-0.4156341552734375,-1.24517822265625,-0.585906982421875
1667581582339255300,11.01625537109375,-0.4571533203125,-1.23016357421875,-0.5848541259765625
1667581582349277200,11.026277099609375,-0.487823486328125,-1.2026214599609375,-0.5631103515625
1667581582359298300,11.03629833984375,-0.5095977783203125,-1.1675567626953125,-0.5101776123046875
1667581582369320400,11.046320556640625,-0.5150909423828125,-1.1281585693359375,-0.4286041259765625
1667581582379342300,11.05634228515625,-0.5336151123046875,-1.071533203125,-0.359771728515625
1667581582389363200,11.06636328125,-0.5667266845703125,-1.0247802734375,-0.314666748046875
1667581582399385300,11.07638525390625,-0.6027069091796875,-0.9946746826171875,-0.2857208251953125
1667581582409406500,11.086406494140626,-0.620758056640625,-0.978118896484375,-0.2922515869140625
1667581582419428400,11.096428466796874,-0.6284637451171875,-0.98248291015625,-0.3151092529296875
1667581582429450200,11.1064501953125,-0.627899169921875,-0.9796295166015625,-0.3238067626953125
1667581582439471400,11.116471435546876,-0.6254119873046875,-0.9537200927734375,-0.321624755859375
1667581582449493500,11.126493408203125,-0.634521484375,-0.9287872314453125,-0.2924957275390625
1667581582459515400,11.136515380859375,-0.643341064453125,-0.9005889892578125,-0.232177734375
1667581582469536300,11.146536376953126,-0.6412353515625,-0.8501739501953125,-0.1826171875
1667581582479558100,11.15655810546875,-0.646942138671875,-0.811981201171875,-0.156158447265625
1667581582489579500,11.16657958984375,-0.642578125,-0.8020477294921875,-0.1698150634765625
1667581582499601400,11.176601318359374,-0.6170654296875,-0.8264923095703125,-0.2142791748046875
1667581582509623300,11.186623291015625,-0.5882568359375,-0.9003753662109375,-0.247833251953125
1667581582519644200,11.19664404296875,-0.55340576171875,-0.9386138916015625,-0.304351806640625
1667581582529666300,11.206666259765624,-0.5419158935546875,-0.9565277099609375,-0.32763671875
1667581582539688400,11.2166884765625,-0.5382537841796875,-0.967254638671875,-0.325927734375
1667581582549709300,11.226709228515626,-0.552001953125,-0.963653564453125,-0.31695556640625
1667581582559731200,11.236731201171875,-0.584930419921875,-0.968231201171875,-0.309722900390625
1667581582569753300,11.24675341796875,-0.6103057861328125,-0.9678192138671875,-0.3136749267578125
1667581582579774500,11.2567744140625,-0.644989013671875,-0.95257568359375,-0.3419036865234375
1667581582589796400,11.26679638671875,-0.6858062744140625,-0.9285888671875,-0.3907928466796875
1667581582599817200,11.276817138671875,-0.70458984375,-0.9123382568359375,-0.451171875
1667581582609839400,11.28683935546875,-0.686737060546875,-0.898529052734375,-0.4922943115234375
1667581582619861200,11.296861328125,-0.6336822509765625,-0.9055023193359375,-0.478851318359375
1667581582629882400,11.30688232421875,-0.5523529052734375,-0.894012451171875,-0.427337646484375
1667581582639904300,11.316904296875,-0.464691162109375,-0.8567047119140625,-0.337188720703125
1667581582649926400,11.326926513671875,-0.4148406982421875,-0.8177490234375,-0.229095458984375
1667581582659947500,11.336947509765626,-0.4002532958984375,-0.7837982177734375,-0.1521148681640625
1667581582669969400,11.346969482421875,-0.43707275390625,-0.7659759521484375,-0.132720947265625
1667581582679990300,11.356990234375,-0.5218048095703125,-0.7545623779296875,-0.176971435546875
1667581582690012400,11.367012451171876,-0.60400390625,-0.7425994873046875,-0.2488250732421875
1667581582700034300,11.377034423828125,-0.6454925537109375,-0.7316131591796875,-0.301300048828125
1667581582710055400,11.387055419921875,-0.624298095703125,-0.713348388671875,-0.3422698974609375
1667581582720077300,11.397077392578124,-0.5628509521484375,-0.7306671142578125,-0.3515167236328125
1667581582730099500,11.407099365234375,-0.5592193603515625,-0.777252197265625,-0.3325958251953125
1667581582740120300,11.417120361328125,-0.54376220703125,-0.7589263916015625,-0.3375091552734375
1667581582750142200,11.42714208984375,-0.5375823974609375,-0.7320098876953125,-0.3331451416015625
1667581582760163300,11.437163330078125,-0.5528717041015625,-0.713470458984375,-0.3418426513671875
1667581582770185200,11.447185302734376,-0.5630950927734375,-0.6929931640625,-0.3513336181640625
1667581582780207400,11.457207275390624,-0.56634521484375,-0.6656951904296875,-0.3533935546875
1667581582790228500,11.467228515625,-0.545166015625,-0.63616943359375,-0.3478546142578125
1667581582800250600,11.477250732421876,-0.5082550048828125,-0.6198272705078125,-0.3161468505859375
1667581582810272500,11.4872724609375,-0.47314453125,-0.6130828857421875,-0.2785186767578125
1667581582820293400,11.49729345703125,-0.4471435546875,-0.6165313720703125,-0.2315521240234375
1667581582830315300,11.507315185546876,-0.4111175537109375,-0.605743408203125,-0.1929779052734375
1667581582840336600,11.517336669921875,-0.374603271484375,-0.585052490234375,-0.178436279296875
1667581582850358500,11.527358642578125,-0.35870361328125,-0.5672607421875,-0.1488037109375
1667581582860380400,11.53738037109375,-0.34991455078125,-0.5493621826171875,-0.1422882080078125
1667581582870401300,11.5474013671875,-0.331085205078125,-0.5328216552734375,-0.15399169921875
1667581582880423400,11.55742333984375,-0.3072357177734375,-0.5120849609375,-0.1868133544921875
1667581582890445600,11.567445556640624,-0.283477783203125,-0.4933319091796875,-0.21612548828125
1667581582900466400,11.577466552734375,-0.2650604248046875,-0.492279052734375,-0.238250732421875
1667581582910488300,11.58748828125,-0.25482177734375,-0.499298095703125,-0.239837646484375
1667581582920509700,11.597509765625,-0.253265380859375,-0.4914398193359375,-0.2197418212890625
1667581582930531600,11.607531494140625,-0.265106201171875,-0.4605712890625,-0.188079833984375
1667581582940553500,11.617553466796876,-0.3008270263671875,-0.42950439453125,-0.1598052978515625
1667581582950574300,11.62757421875,-0.3566436767578125,-0.4014892578125,-0.1400909423828125
1667581582960596500,11.637596435546875,-0.40838623046875,-0.3780670166015625,-0.14349365234375
1667581582970618400,11.647618408203124,-0.439361572265625,-0.3704071044921875,-0.155517578125
1667581582980639500,11.657639404296875,-0.447296142578125,-0.3741607666015625,-0.1582489013671875
1667581582990661400,11.667661376953125,-0.41485595703125,-0.38262939453125,-0.165313720703125
1667581583000682200,11.67768212890625,-0.361907958984375,-0.4040069580078125,-0.1696624755859375
1667581583010704600,11.68770458984375,-0.3148040771484375,-0.435638427734375,-0.1560211181640625
1667581583020726500,11.6977265625,-0.2984619140625,-0.4625091552734375,-0.1556396484375
1667581583030747400,11.707747314453124,-0.3015594482421875,-0.4814605712890625,-0.1646728515625
1667581583040769500,11.71776953125,-0.313568115234375,-0.505279541015625,-0.180023193359375
1667581583050791400,11.72779150390625,-0.3427734375,-0.54010009765625,-0.1942596435546875
1667581583060812500,11.7378125,-0.37823486328125,-0.5738983154296875,-0.2141265869140625
1667581583070834400,11.74783447265625,-0.409881591796875,-0.598907470703125,-0.240447998046875
1667581583080855300,11.757855224609376,-0.433258056640625,-0.6236419677734375,-0.268341064453125
1667581583090877400,11.76787744140625,-0.4414825439453125,-0.655487060546875,-0.2763519287109375
1667581583100899600,11.777899658203125,-0.4348907470703125,-0.6928253173828125,-0.270843505859375
1667581583110920400,11.78792041015625,-0.4371185302734375,-0.7306060791015625,-0.26043701171875
1667581583120942300,11.7979423828125,-0.4519805908203125,-0.762481689453125,-0.26190185546875
1667581583130964500,11.807964599609376,-0.468292236328125,-0.7873992919921875,-0.2928466796875
1667581583140985600,11.817985595703124,-0.486175537109375,-0.808868408203125,-0.3623809814453125
1667581583151007500,11.828007568359375,-0.5058746337890625,-0.84161376953125,-0.4330291748046875
1667581583161028400,11.8380283203125,-0.5107574462890625,-0.8867340087890625,-0.480804443359375
1667581583171050500,11.848050537109375,-0.5008087158203125,-0.9107666015625,-0.5074310302734375
1667581583181072400,11.858072265625,-0.5116119384765625,-0.9127044677734375,-0.52001953125
1667581583191093500,11.868093505859376,-0.5316619873046875,-0.90380859375,-0.534637451171875
1667581583201115400,11.878115478515625,-0.55816650390625,-0.88714599609375,-0.5525665283203125
1667581583211137500,11.888137451171875,-0.5935211181640625,-0.8659515380859375,-0.572265625
1667581583221158400,11.898158447265626,-0.6324310302734375,-0.850372314453125,-0.58636474609375
1667581583231180500,11.9081806640625,-0.655029296875,-0.8408203125,-0.5762786865234375
1667581583241201400,11.918201416015625,-0.6652984619140625,-0.8380889892578125,-0.545623779296875
1667581583251223600,11.9282236328125,-0.6749725341796875,-0.834747314453125,-0.503387451171875
1667581583261245400,11.938245361328125,-0.696136474609375,-0.8242034912109375,-0.4631195068359375
1667581583271266600,11.9482666015625,-0.71661376953125,-0.81689453125,-0.4381103515625
1667581583281288400,11.958288330078124,-0.716949462890625,-0.8227996826171875,-0.4199066162109375
1667581583291310600,11.968310546875,-0.7070770263671875,-0.831512451171875,-0.399017333984375
1667581583301331500,11.97833154296875,-0.669891357421875,-0.8283843994140625,-0.370697021484375
1667581583311353300,11.988353271484375,-0.614837646484375,-0.81463623046875,-0.3443450927734375
1667581583321374500,11.99837451171875,-0.568359375,-0.801239013671875,-0.3347320556640625
1667581583331396600,12.008396728515624,-0.519622802734375,-0.780914306640625,-0.3399658203125
1667581583341418500,12.01841845703125,-0.4701995849609375,-0.76055908203125,-0.353424072265625
1667581583351439400,12.028439453125,-0.4245147705078125,-0.7510223388671875,-0.3726348876953125
1667581583361461500,12.03846142578125,-0.3889923095703125,-0.74310302734375,-0.38055419921875
1667581583371483600,12.048483642578125,-0.367218017578125,-0.73455810546875,-0.3820037841796875
1667581583381504500,12.05850439453125,-0.348358154296875,-0.7176513671875,-0.3834381103515625
1667581583391526400,12.0685263671875,-0.34124755859375,-0.6970977783203125,-0.3690185546875
1667581583401547500,12.078547607421875,-0.347503662109375,-0.682281494140625,-0.346282958984375
1667581583411569400,12.0885693359375,-0.3574981689453125,-0.6690521240234375,-0.32525634765625
1667581583421591600,12.098591552734375,-0.3632965087890625,-0.6619110107421875,-0.2942047119140625
1667581583431612400,12.1086123046875,-0.3732147216796875,-0.663909912109375,-0.2558441162109375
1667581583441634300,12.11863427734375,-0.3845367431640625,-0.6666107177734375,-0.241302490234375
1667581583451656700,12.12865673828125,-0.3907318115234375,-0.6540985107421875,-0.2508697509765625
1667581583461677600,12.138677490234375,-0.393157958984375,-0.628753662109375,-0.27972412109375
1667581583471699500,12.148699462890624,-0.3730316162109375,-0.594970703125,-0.3088226318359375
1667581583481720300,12.15872021484375,-0.337158203125,-0.561248779296875,-0.318206787109375
1667581583491742500,12.168742431640625,-0.3004150390625,-0.5393218994140625,-0.307037353515625
1667581583501764600,12.1787646484375,-0.2700042724609375,-0.5363006591796875,-0.2890472412109375
1667581583511785500,12.188785400390625,-0.2612152099609375,-0.5439300537109375,-0.274322509765625
1667581583521807400,12.198807373046876,-0.269134521484375,-0.5621795654296875,-0.2336273193359375
1667581583531828500,12.208828369140624,-0.29364013671875,-0.578521728515625,-0.1961212158203125
1667581583541850600,12.2188505859375,-0.3448486328125,-0.5863800048828125,-0.1587371826171875
1667581583551872500,12.22887255859375,-0.3866424560546875,-0.5791015625,-0.1487884521484375
1667581583561893400,12.238893310546874,-0.398956298828125,-0.5543975830078125,-0.170196533203125
1667581583571915300,12.248915283203125,-0.37908935546875,-0.53277587890625,-0.2102813720703125
1667581583581937700,12.258937744140624,-0.3538818359375,-0.542694091796875,-0.2485504150390625
1667581583591958500,12.26895849609375,-0.3319549560546875,-0.5766143798828125,-0.2774810791015625
1667581583601980400,12.27898046875,-0.3128814697265625,-0.611358642578125,-0.306365966796875
1667581583612001500,12.28900146484375,-0.2964324951171875,-0.636474609375,-0.322509765625
1667581583622023700,12.299023681640625,-0.2884521484375,-0.6607513427734375,-0.33062744140625
1667581583632045600,12.309045654296876,-0.2771759033203125,-0.692230224609375,-0.3206329345703125
1667581583642066400,12.31906640625,-0.27197265625,-0.7105255126953125,-0.2800140380859375
1667581583652088300,12.32908837890625,-0.2919769287109375,-0.70135498046875,-0.2415771484375
1667581583662110500,12.3391103515625,-0.3267364501953125,-0.6772918701171875,-0.2320404052734375
1667581583672131600,12.349131591796874,-0.38427734375,-0.6817474365234375,-0.25518798828125
1667581583682153500,12.359153564453125,-0.4470062255859375,-0.7089691162109375,-0.3242950439453125
1667581583692174300,12.36917431640625,-0.4824676513671875,-0.74432373046875,-0.4284210205078125
1667581583702196500,12.379196533203125,-0.511199951171875,-0.7762298583984375,-0.518402099609375
1667581583712218600,12.389218505859375,-0.5075531005859375,-0.789154052734375,-0.5543212890625
1667581583722239500,12.399239501953126,-0.47894287109375,-0.792144775390625,-0.5193634033203125
1667581583732261400,12.409261474609375,-0.4420928955078125,-0.78228759765625,-0.4465484619140625
1667581583742283500,12.419283447265625,-0.3863067626953125,-0.7654571533203125,-0.3493194580078125
1667581583752304600,12.4293046875,-0.349090576171875,-0.768798828125,-0.2235870361328125
1667581583762326500,12.439326416015625,-0.3380584716796875,-0.77783203125,-0.1112060546875
1667581583772347400,12.449347412109375,-0.329315185546875,-0.770050048828125,-0.049591064453125
1667581583782370000,12.4593701171875,-0.33465576171875,-0.7636871337890625,-0.0457763671875
1667581583792392000,12.469391845703125,-0.399688720703125,-0.79327392578125,-0.1161346435546875
1667581583802413300,12.479413330078126,-0.4495086669921875,-0.811676025390625,-0.2108306884765625
1667581583812435200,12.489435302734375,-0.45831298828125,-0.8093719482421875,-0.2712249755859375
1667581583822457000,12.49945703125,-0.4383697509765625,-0.8153228759765625,-0.2803802490234375
1667581583832478000,12.50947802734375,-0.39630126953125,-0.8148651123046875,-0.27679443359375
1667581583842500000,12.5195,-0.353851318359375,-0.8073272705078125,-0.266845703125
1667581583852521200,12.529521240234375,-0.32208251953125,-0.8118743896484375,-0.224273681640625
1667581583862543000,12.539543212890624,-0.2933807373046875,-0.8271331787109375,-0.18646240234375
1667581583872565000,12.54956494140625,-0.2854766845703125,-0.8444366455078125,-0.1531219482421875
1667581583882586400,12.55958642578125,-0.30035400390625,-0.8578948974609375,-0.1297607421875
1667581583892608300,12.569608154296875,-0.321990966796875,-0.87890625,-0.1418914794921875
1667581583902630100,12.579630126953125,-0.375732421875,-0.91021728515625,-0.1804656982421875
1667581583912651000,12.589651123046876,-0.445159912109375,-0.9392852783203125,-0.2250823974609375
1667581583922673200,12.599673095703125,-0.473907470703125,-0.9548492431640625,-0.248779296875
1667581583932694300,12.6096943359375,-0.472991943359375,-0.9734954833984375,-0.2433624267578125
1667581583942716200,12.619716064453126,-0.440277099609375,-0.9852752685546875,-0.2322235107421875
1667581583952738000,12.629738037109375,-0.392333984375,-0.981231689453125,-0.2344512939453125
1667581583962759000,12.639759033203125,-0.3414306640625,-0.98150634765625,-0.2494659423828125
1667581583972781000,12.649781005859374,-0.3044891357421875,-1.006927490234375,-0.2796173095703125
1667581583982802200,12.65980224609375,-0.2934112548828125,-1.0210113525390625,-0.34503173828125
1667581583992824000,12.669823974609375,-0.3138580322265625,-1.0267181396484375,-0.393951416015625
1667581584002846200,12.67984619140625,-0.3529205322265625,-1.0573272705078125,-0.3791351318359375
1667581584012867300,12.689867431640625,-0.41363525390625,-1.025604248046875,-0.38421630859375
1667581584022889200,12.69988916015625,-0.4859619140625,-1.0011749267578125,-0.3669891357421875
1667581584032911000,12.7099111328125,-0.5351104736328125,-1.0023345947265625,-0.3370819091796875
1667581584042932000,12.719931884765625,-0.555328369140625,-0.98980712890625,-0.3206024169921875
1667581584052954000,12.7299541015625,-0.5524749755859375,-0.979705810546875,-0.3015899658203125
1667581584062975200,12.739975341796875,-0.524627685546875,-0.9760894775390625,-0.2595977783203125
1667581584072997000,12.7499970703125,-0.490447998046875,-0.9838104248046875,-0.235137939453125
1667581584083019000,12.76001904296875,-0.47015380859375,-1.0005035400390625,-0.243865966796875
1667581584093040000,12.7700400390625,-0.4599456787109375,-1.0160675048828125,-0.248291015625
1667581584103062300,12.780062255859375,-0.4400634765625,-1.0278472900390625,-0.24237060546875
1667581584113084200,12.790084228515624,-0.4060516357421875,-1.0323028564453125,-0.24053955078125
1667581584123105000,12.80010498046875,-0.3708648681640625,-1.048248291015625,-0.2758636474609375
1667581584133127200,12.810127197265626,-0.335296630859375,-1.0664520263671875,-0.290069580078125
1667581584143148300,12.820148193359374,-0.29962158203125,-1.0670623779296875,-0.268646240234375
