ACCELEROMETER X (m/s²);ACCELEROMETER Y (m/s²);ACCELEROMETER Z (m/s²);GRAVITY X (m/s²);GRAVITY Y (m/s²);GRAVITY Z (m/s²);LINEAR ACCELERATION X (m/s²);LINEAR ACCELERATION Y (m/s²);LINEAR ACCELERATION Z (m/s²);GYROSCOPE X (rad/s);GYROSCOPE Y (rad/s);GYROSCOPE Z (rad/s);LIGHT (lux);MAGNETIC FIELD X (μT);MAGNETIC FIELD Y (μT);MAGNETIC FIELD Z (μT);ORIENTATION Z (azimuth °);ORIENTATION X (pitch °);ORIENTATION Y (roll °);PROXIMITY (i);ATMOSPHERIC PRESSURE (hPa);SOUND LEVEL (dB);LOCATION Latitude : ;LOCATION Longitude : ;LOCATION Altitude ( m);LOCATION Altitude-google ( m);LOCATION Altitude-atmospheric pressure ( m);LOCATION Speed ( Kmh);LOCATION Accuracy ( m);LOCATION ORIENTATION (°);Satellites in range;Time since start in ms ;YYYY-MO-DD HH-MI-SS_SSS
-1.7249;1.9116;7.7318;-1.5947;1.3309;9.5842;-1.0883;1.0636;-2.4885;-0.4524;-0.5637;0.0655;678.0;-1.37;-8.03;-48.09;67.13;-16.14;13.71;5.0;981.03;42.782;35.952976;-83.9324;705.14;NaN;;7.52;48.679222;51.1;0 / 14;30;2022-10-14 18:25:33:088
-1.6304;0.8536;8.1903;-1.3063;1.6555;9.5772;-0.0693;-1.6762;0.1467;-0.1433;-0.2165;0.9964;670.0;-12.02;1.91;-46.59;62.34;-9.72;7.77;5.0;980.98;47.839;35.952976;-83.9324;705.14;NaN;;7.52;48.679222;51.1;0 / 14;530;2022-10-14 18:25:33:588
-0.2022;2.4227;7.6421;-0.5434;2.0011;9.5849;0.5439;-0.1402;-0.3342;0.0299;0.0753;0.056;578.0;-13.76;3.49;-45.58;53.75;-11.6;3.02;5.0;981.03;42.312;35.95299;-83.93234;718.88;NaN;;2.84;46.873234;37.6;11 / 14;1030;2022-10-14 18:25:34:088
-1.0211;2.138;8.9719;-1.314;3.013;9.2393;-0.112;-1.076;0.164;0.0476;-0.1359;0.1794;571.0;-13.22;2.1;-44.38;55.81;-15.18;7.92;5.0;981.01;53.023;35.95299;-83.93234;718.88;NaN;;2.84;46.873234;37.6;11 / 14;1530;2022-10-14 18:25:34:588
-1.2341;2.2696;10.2814;-1.14;3.2858;9.1692;0.5571;-0.5263;0.4493;-0.0447;-0.4422;-0.3897;538.0;-11.94;-1.24;-45.41;52.24;-19.58;7.09;5.0;981.05;52.902;35.953003;-83.932304;732.97;NaN;;4.0;39.708607;33.6;11 / 14;2031;2022-10-14 18:25:35:089
-2.2421;1.0989;10.0816;-0.8242;2.5985;9.4201;-0.7091;0.5824;-1.5418;-1.1801;-0.0357;0.4333;522.0;-11.81;-3.15;-45.26;61.25;-15.37;5.0;5.0;981.0;57.201;35.953003;-83.932304;732.97;NaN;;4.0;39.708607;33.6;11 / 14;2530;2022-10-14 18:25:35:588
1.4378;-1.573;9.4639;0.0068;-0.6634;9.7842;0.9454;-0.2402;2.8769;0.2368;0.1266;0.1666;647.0;-12.13;11.14;-43.76;56.25;3.88;-0.04;5.0;981.0;49.86;35.953014;-83.932274;748.63;NaN;;4.07;35.29693;36.9;11 / 14;3030;2022-10-14 18:25:36:088
0.1807;-1.9956;8.5576;0.8435;-2.2026;9.5188;-0.0797;-2.8259;1.2347;-0.2364;-0.4846;-0.0056;737.0;-16.56;20.03;-39.99;40.3;6.84;-6.12;5.0;981.03;48.182;35.953014;-83.932274;748.63;NaN;;4.07;35.29693;36.9;11 / 14;3530;2022-10-14 18:25:36:588
-0.6428;-3.256;13.9816;-0.5636;0.8792;9.7509;0.8131;-3.2517;3.828;0.4203;1.2901;0.2185;812.0;-10.01;23.38;-38.85;26.04;1.06;1.31;5.0;981.01;42.722;35.953026;-83.93222;761.18;NaN;;4.21;30.848831;38.7;11 / 14;4030;2022-10-14 18:25:37:088
-4.6899;-0.3867;11.6725;-1.9292;2.8046;9.1969;0.4843;0.6074;-0.1686;-0.7868;0.2889;-0.4782;817.0;-4.27;7.89;-43.59;33.25;-16.62;11.85;5.0;981.09;41.667;35.953026;-83.93222;761.18;NaN;;4.21;30.848831;38.7;11 / 14;4530;2022-10-14 18:25:37:588
-8.5792;-5.8247;1.6268;-6.2918;1.2757;7.4132;5.0478;1.4739;-2.9972;-0.518;4.3935;-1.9399;800.0;0.49;7.39;-43.63;68.35;-7.47;40.32;5.0;981.03;45.591;35.953037;-83.932175;772.64;NaN;;4.64;29.230661;44.9;11 / 14;5030;2022-10-14 18:25:38:088
-12.07;-8.7506;3.2859;-7.2686;-6.534;0.8028;-2.7487;1.6653;-4.4722;-1.2355;-1.9324;0.4312;225.0;28.43;30.56;-17.29;76.45;41.78;83.7;5.0;981.04;45.778;35.953037;-83.932175;772.64;NaN;;4.64;29.230661;44.9;11 / 14;5530;2022-10-14 18:25:38:588
-23.4168;1.5383;-0.7062;-9.6304;-1.7506;-0.6008;3.358;0.9365;0.7484;1.2613;-0.0321;-1.0E-4;54.0;32.29;12.41;-24.53;76.67;10.28;93.57;5.0;981.02;44.537;35.953045;-83.932144;779.68;NaN;;4.36;25.664473;42.0;11 / 14;6030;2022-10-14 18:25:39:088
-9.818;-6.7143;-3.5252;-7.27;-6.5226;-0.8791;0.1071;0.7001;2.994;-0.2953;-0.181;0.0551;10.0;35.25;26.87;-14.19;95.78;41.69;96.89;0.0;980.97;45.645;35.953045;-83.932144;779.68;NaN;;4.36;25.664473;42.0;11 / 14;6530;2022-10-14 18:25:39:588
-4.0304;-2.4802;-5.7637;-5.9702;-7.0249;-3.3433;2.3065;3.0424;-1.1842;0.9226;-0.2837;-0.7634;6.0;36.26;28.78;-1.99;74.41;36.94;125.72;0.0;980.98;44.463;35.953053;-83.93211;782.81;NaN;;4.39;23.537302;41.5;11 / 14;7030;2022-10-14 18:25:40:088
-3.5731;-6.9105;-16.2906;-2.6454;-9.2705;1.7974;-5.6165;-15.364;2.785;1.5117;1.3023;0.5273;0.0;28.01;33.66;-12.86;171.4;72.42;70.44;0.0;981.01;43.69;35.953053;-83.93211;782.81;NaN;;4.39;23.537302;41.5;11 / 14;7530;2022-10-14 18:25:40:588
-8.8463;-18.7517;-13.2706;-3.8602;-8.8164;-1.8817;3.0215;3.8688;2.3526;1.7399;0.1523;-1.5771;1.0;18.02;38.87;-14.94;68.45;64.03;115.99;0.0;981.24;44.609;35.95306;-83.93209;782.52;NaN;;4.61;24.664944;39.4;11 / 14;8030;2022-10-14 18:25:41:088
-2.4574;-9.5572;1.7847;-2.2248;-9.3727;1.8368;-0.5973;0.6719;-0.5334;0.866;0.9023;-0.4151;1.0;13.82;39.39;-18.75;151.12;72.89;50.46;0.0;980.87;43.727;35.95306;-83.93209;782.52;NaN;;4.61;24.664944;39.4;11 / 14;8530;2022-10-14 18:25:41:588
3.8844;-1.1683;0.3425;-4.729;-7.9202;-3.3283;-0.6446;1.0699;2.8051;0.1967;1.0459;0.1109;0.0;14.7;39.0;-15.71;54.2;61.85;125.01;0.0;981.34;43.002;35.95307;-83.93206;787.6;NaN;;4.28;23.332691;43.7;11 / 14;9030;2022-10-14 18:25:42:088
-2.6324;-9.5871;1.9968;-2.908;-9.3551;0.4427;-2.4504;0.5984;-1.546;0.7844;-1.3572;-0.4537;2.0;17.7;39.84;-12.41;126.2;72.55;81.34;0.0;981.12;43.958;35.95307;-83.93206;787.6;NaN;;4.28;23.332691;43.7;11 / 14;9530;2022-10-14 18:25:42:588
3.2548;-3.038;1.148;-4.6599;-7.9839;-3.273;0.0015;1.1378;2.7545;-0.5008;0.4241;1.5767;1.0;15.58;38.61;-16.61;49.21;54.5;125.08;0.0;981.15;43.674;35.95308;-83.93204;791.87;NaN;;2.45;23.328953;37.5;11 / 14;10030;2022-10-14 18:25:43:088
-1.4198;-8.0261;-3.6906;-2.9599;-9.3286;0.6219;-1.4514;1.5026;0.3945;1.1202;-0.9646;0.1969;3.0;19.89;40.74;-10.26;74.34;67.25;122.99;0.0;980.95;44.716;35.95308;-83.93204;791.87;NaN;;2.45;23.328953;37.5;11 / 14;10530;2022-10-14 18:25:43:588
-5.2418;-6.9954;-0.9661;-4.5665;-8.1563;-2.9652;3.259;-1.6557;3.3382;-0.7597;-0.2256;0.7916;0.0;14.96;38.98;-19.16;59.97;64.12;119.9;0.0;980.89;44.032;35.953094;-83.932014;795.94;NaN;;4.75;20.96736;33.2;11 / 14;11030;2022-10-14 18:25:44:088
-2.8107;-8.9922;4.8805;-2.8208;-9.3916;-0.1093;0.916;-0.2521;4.802;2.345;-1.9236;-0.0845;2.0;19.69;41.78;-9.49;77.91;66.64;115.25;0.0;980.48;44.131;35.953094;-83.932014;795.94;NaN;;4.75;20.96736;33.2;11 / 14;11530;2022-10-14 18:25:44:588
-0.3748;-11.4473;1.8374;-3.5568;-8.9914;-1.6355;-3.1327;-4.1177;-3.2585;-2.7068;-1.2327;0.572;1.0;12.28;39.6;-19.67;59.54;66.47;114.69;0.0;980.9;45.212;35.95311;-83.931984;800.35;NaN;;3.64;19.392767;32.6;11 / 14;12030;2022-10-14 18:25:45:088
-3.8414;-7.6648;-0.4813;-2.7634;-9.2579;-1.6811;4.5438;0.4214;0.9246;1.1524;2.614;-0.3879;1.0;17.96;41.36;-8.44;83.71;67.97;106.07;0.0;980.49;42.528;35.95311;-83.931984;800.35;NaN;;3.64;19.392767;32.6;11 / 14;12530;2022-10-14 18:25:45:588
1.0702;-12.7546;-0.6643;-3.3582;-8.9323;-2.2597;-1.7725;-1.4622;0.9205;-3.0439;0.3585;1.0827;0.0;15.9;38.81;-17.57;61.13;65.62;123.94;0.0;980.93;45.815;35.95312;-83.93196;801.11;NaN;;3.67;19.450148;39.0;11 / 14;13030;2022-10-14 18:25:46:088
-3.6078;-6.9894;2.1751;-2.4664;-9.3795;-1.4535;4.3475;0.2918;2.4158;-1.1909;0.517;-0.9212;1.0;21.3;39.38;-7.42;98.07;67.11;105.49;0.0;980.13;44.161;35.95312;-83.93196;801.11;NaN;;3.67;19.450148;39.0;11 / 14;13530;2022-10-14 18:25:46:588
1.9415;-10.8691;0.7325;-3.2906;-9.1362;-1.368;-2.7071;-3.0813;-2.4152;-1.0546;0.0759;-0.1223;1.0;17.08;37.44;-17.68;77.2;68.69;112.57;0.0;980.99;43.453;35.95313;-83.93194;804.45;NaN;;3.71;19.86026;45.1;12 / 14;14031;2022-10-14 18:25:47:089
0.7146;-11.013;2.5965;-3.0302;-9.197;-1.5502;5.7147;-1.2699;-0.4952;0.3916;0.7233;-0.2288;1.0;21.53;37.73;-11.12;97.92;67.75;106.21;0.0;981.01;43.335;35.95313;-83.93194;804.45;NaN;;3.71;19.86026;45.1;12 / 14;14530;2022-10-14 18:25:47:588
-1.5634;-15.4481;3.5085;-2.705;-9.4107;0.5398;-5.951;-1.248;-5.1004;-2.9767;-1.5312;0.55;1.0;17.18;36.96;-19.22;120.9;73.66;78.71;0.0;981.11;43.144;35.95314;-83.931915;811.64;NaN;;3.74;16.90361;48.6;12 / 14;15030;2022-10-14 18:25:48:088
3.8282;-4.8482;0.2333;-3.3442;-9.0828;-1.5778;-2.7896;2.7438;2.3279;-0.1112;-0.4675;-0.064;1.0;19.91;39.83;-8.66;83.54;67.85;115.26;0.0;980.56;46.335;35.95314;-83.931915;811.64;NaN;;3.74;16.90361;48.6;12 / 14;15530;2022-10-14 18:25:48:588
-7.3714;-14.7368;-4.8709;-1.7178;-9.4467;1.9951;-1.0758;0.4228;-1.2719;-2.6657;1.3836;1.2043;1.0;16.56;37.61;-17.19;187.91;74.43;40.73;0.0;981.11;45.049;35.95315;-83.931885;816.06;NaN;;4.1;15.18309;50.7;12 / 14;16030;2022-10-14 18:25:49:088
-1.1001;-13.8835;6.2318;-3.3663;-9.1336;-1.1895;-8.4667;-8.8268;-7.531;0.8404;-0.0498;-0.3019;0.0;19.5;38.76;-11.38;72.0;63.95;119.3;0.0;980.47;44.515;35.95315;-83.931885;816.06;NaN;;4.1;15.18309;50.7;12 / 14;16530;2022-10-14 18:25:49:588
-5.8869;-12.2255;-4.7103;-2.4103;-9.4907;0.5362;-6.562;-1.7695;-3.5145;-0.3341;0.0677;0.1875;0.0;16.48;37.71;-18.53;176.8;74.25;41.85;0.0;980.9;45.335;35.95317;-83.93186;820.68;NaN;;4.93;13.482034;47.8;12 / 14;17030;2022-10-14 18:25:50:088
-22.1178;-19.9633;-5.0145;-3.0043;-9.2768;-1.0418;6.7312;6.7293;1.4731;0.9278;-0.9774;-0.4753;0.0;17.23;38.83;-14.27;59.98;67.07;129.3;0.0;981.88;44.018;35.95317;-83.93186;820.68;NaN;;4.93;13.482034;47.8;12 / 14;17530;2022-10-14 18:25:50:588
-5.2178;-9.6254;-0.827;-1.6929;-9.4615;1.9454;-0.2154;0.9149;-2.6387;-0.5348;0.0461;0.165;1.0;14.72;38.06;-18.77;175.04;74.75;41.03;0.0;980.94;45.746;35.95319;-83.93183;821.8;NaN;;4.79;12.968982;56.7;12 / 14;18030;2022-10-14 18:25:51:088
-17.7559;-11.9513;-2.2205;-2.9438;-9.2724;-1.2356;7.0355;6.5913;1.279;1.6429;-0.091;-1.0345;1.0;13.8;38.68;-16.59;49.42;58.86;125.34;0.0;980.99;44.41;35.95319;-83.93183;821.8;NaN;;4.79;12.968982;56.7;12 / 14;18530;2022-10-14 18:25:51:588
-0.5746;-10.4516;2.7508;-1.9223;-9.524;1.3299;-2.2172;0.6058;-5.6338;0.6744;-1.9768;-0.2475;1.0;14.49;39.77;-15.88;153.66;76.21;55.32;0.0;981.27;45.066;35.95319;-83.93183;821.8;NaN;;4.79;12.968982;56.7;12 / 14;19030;2022-10-14 18:25:52:088
-1.3023;-6.5288;-8.7613;-3.4022;-8.7011;-2.9809;1.9331;3.921;3.7972;1.571;0.3285;-0.8778;0.0;12.9;37.63;-20.25;49.85;62.45;129.57;0.0;980.92;45.961;35.95319;-83.93183;821.8;NaN;;4.79;12.968982;56.7;12 / 14;19530;2022-10-14 18:25:52:588
-2.0949;-9.8145;0.6033;-2.1263;-9.509;1.108;-0.9815;1.1304;-3.7289;0.5811;-2.5095;-0.1337;1.0;18.88;40.69;-10.31;179.53;75.85;62.48;0.0;980.8;46.153;35.953217;-83.93179;823.2;NaN;;5.0;12.226105;52.6;0 / 14;20030;2022-10-14 18:25:53:088
-1.5574;-6.3048;0.8788;-3.6594;-8.4195;-3.4485;-0.7784;1.9215;4.3774;-0.253;2.7321;0.875;0.0;9.9;38.19;-22.14;51.32;67.84;126.31;0.0;981.02;48.857;35.953217;-83.93179;823.2;NaN;;5.0;12.226105;52.6;0 / 14;20530;2022-10-14 18:25:53:588
-2.1954;-8.2454;-0.0778;-2.0937;-9.5412;-0.8676;3.4636;-0.746;5.4909;2.6933;0.3649;-0.2706;4.0;19.16;40.99;-8.72;105.25;76.64;112.51;0.0;980.12;45.942;35.953228;-83.93178;823.18;NaN;;4.39;12.226105;51.9;12 / 14;21030;2022-10-14 18:25:54:088
1.1145;-8.7685;2.2564;-2.7734;-9.1195;-2.3052;4.7072;-2.9959;4.5025;-0.4798;0.8979;0.3158;1.0;10.86;39.23;-20.18;50.67;68.42;129.73;0.0;980.94;48.727;35.953228;-83.93178;823.18;NaN;;4.39;12.226105;51.9;12 / 14;21530;2022-10-14 18:25:54:588
0.8453;-13.7925;6.6317;-2.1464;-9.5686;-0.0692;2.442;-1.6725;6.5576;1.0005;2.7516;-0.5484;4.0;16.63;41.91;-10.65;68.72;67.76;118.51;0.0;980.17;45.832;35.95324;-83.93176;824.86;NaN;;4.61;12.226105;49.4;12 / 14;22030;2022-10-14 18:25:55:088
-1.488;-13.4357;2.0518;-2.6213;-9.3791;-1.1541;-2.4037;-2.9743;-2.5025;-2.4786;0.1174;1.0656;0.0;12.23;38.72;-21.17;69.53;73.02;113.76;0.0;980.45;46.981;35.95324;-83.93176;824.86;NaN;;4.61;12.226105;49.4;12 / 14;22531;2022-10-14 18:25:55:589
3.5396;-5.1939;-2.3234;-3.0453;-9.2306;-1.3008;-6.062;-5.023;-1.4352;-0.3105;1.3521;-0.057;2.0;13.58;42.53;-14.27;67.59;70.26;113.13;0.0;981.59;46.014;35.95325;-83.93175;826.64;NaN;;4.79;12.226105;42.0;12 / 14;23030;2022-10-14 18:25:56:088
-2.7748;-12.7977;-2.4443;-2.844;-9.3016;-1.2498;-3.5332;-3.6865;-3.0009;-0.1673;0.1137;-0.0115;1.0;12.19;39.84;-19.82;150.7;78.49;55.38;0.0;981.09;47.499;35.95325;-83.93175;826.64;NaN;;4.79;12.226105;42.0;12 / 14;23530;2022-10-14 18:25:56:588
-1.3645;-12.7247;5.2119;-3.0378;-9.2531;-1.1503;-6.4684;-1.8335;0.2524;-0.0231;-0.8976;0.1414;1.0;18.04;41.14;-11.06;83.96;72.61;117.67;0.0;981.05;44.97;35.95326;-83.93174;830.18;NaN;;4.21;12.226105;52.7;12 / 14;24030;2022-10-14 18:25:57:088
-6.367;-10.7961;-2.1045;-0.8607;-9.4451;2.4939;0.0674;0.2017;-0.537;-1.8761;0.6407;1.0642;1.0;15.88;39.32;-17.68;155.21;76.76;56.85;0.0;981.02;45.872;35.95326;-83.93174;830.18;NaN;;4.21;12.226105;52.7;12 / 14;24530;2022-10-14 18:25:57:588
-17.9067;-31.255;-12.2722;-2.5571;-9.4046;-1.0883;3.4433;4.1471;-2.9832;-0.3074;-1.1996;0.5406;0.0;14.76;40.37;-15.41;79.26;73.54;113.06;0.0;980.96;47.395;35.953274;-83.93172;827.41;NaN;;4.5;12.226105;46.5;12 / 14;25030;2022-10-14 18:25:58:088
-12.0625;-12.8408;-4.6899;-1.237;-9.516;2.0216;-2.4729;-0.7893;-4.8966;0.6755;1.0394;-0.8483;2.0;14.78;41.51;-14.19;149.3;81.13;68.08;0.0;981.31;47.899;35.953274;-83.93172;827.41;NaN;;4.5;12.226105;46.5;12 / 14;25530;2022-10-14 18:25:58:588
-20.2194;-33.1331;-7.605;-2.3248;-9.3629;-1.761;3.8698;5.563;2.7128;2.3462;-0.3789;-1.2906;0.0;13.05;40.73;-15.19;61.07;72.7;127.14;0.0;981.13;47.657;35.95328;-83.93171;826.13;NaN;;4.5;12.226105;42.7;12 / 14;26030;2022-10-14 18:25:59:088
-0.9374;-9.4866;3.3015;-0.6509;-9.5099;2.304;-0.4356;0.3592;-0.5974;1.0578;1.0639;-0.7682;2.0;11.46;40.03;-18.11;209.82;75.87;15.78;0.0;980.86;43.965;35.95328;-83.93171;826.13;NaN;;4.5;12.226105;42.7;12 / 14;26530;2022-10-14 18:25:59:588
2.8358;-4.617;1.5108;-3.5376;-8.7079;-2.798;-0.4304;2.5767;3.5256;0.3443;1.6154;-0.054;0.0;9.81;40.31;-18.19;43.59;62.62;128.34;0.0;981.1;44.107;35.953293;-83.931694;827.17;NaN;;4.57;12.226105;48.0;12 / 14;27030;2022-10-14 18:26:00:088
0.6308;-9.2665;1.7728;-0.541;-9.5679;2.0815;-1.2452;1.1076;-2.5482;1.6469;0.595;-0.7575;2.0;12.75;41.76;-14.96;177.47;83.43;42.82;0.0;980.89;44.204;35.953293;-83.931694;827.17;NaN;;4.57;12.226105;48.0;12 / 14;27531;2022-10-14 18:26:00:589
2.8107;-1.9307;-0.3784;-2.1622;-9.2209;-2.5435;0.9036;3.5227;1.8545;-0.226;0.8859;0.4888;0.0;11.1;41.34;-13.91;45.26;70.1;139.63;0.0;981.2;49.798;35.953304;-83.93168;828.12;NaN;;4.86;12.226105;45.6;11 / 14;28030;2022-10-14 18:26:01:088
-1.1396;-9.0927;2.0124;-0.732;-9.5747;1.99;-1.4592;0.9129;-3.8473;0.3067;-1.9289;-0.0848;3.0;12.71;40.39;-15.84;158.17;80.59;53.87;0.0;981.19;45.963;35.953304;-83.93168;828.12;NaN;;4.86;12.226105;45.6;11 / 14;28530;2022-10-14 18:26:01:588
0.3341;-5.7924;0.3126;-2.8093;-9.0313;-2.5912;2.4777;-0.7672;2.6631;-1.0223;0.6292;0.7309;0.0;8.46;38.68;-21.77;42.56;67.06;132.69;0.0;980.84;47.053;35.953316;-83.93166;830.6;NaN;;4.9;12.226105;48.8;11 / 14;29030;2022-10-14 18:26:02:088
-2.2361;-9.2088;-3.0021;-1.076;-9.7459;0.1706;0.7285;-1.182;4.1579;2.3444;-0.4111;-0.0984;4.0;13.5;42.47;-12.0;138.56;83.62;80.99;0.0;981.06;47.697;35.953316;-83.93166;830.6;NaN;;4.9;12.226105;48.8;11 / 14;29530;2022-10-14 18:26:02:588
-2.9901;-8.2035;-2.1081;-2.1272;-9.2959;-2.2872;4.3256;-4.1106;5.1682;-0.3677;0.4702;1.1799;0.0;7.73;38.64;-23.85;42.87;71.43;137.08;0.0;980.53;47.202;35.953323;-83.931656;833.2;NaN;;4.68;12.226105;41.7;11 / 14;30030;2022-10-14 18:26:03:088
-2.1021;-9.1705;6.6078;-0.8583;-9.7204;-0.9739;4.4363;2.6802;-1.1434;-1.2441;0.4333;-0.7606;2.0;11.08;42.83;-13.39;63.7;78.05;123.93;0.0;980.61;45.259;35.953323;-83.931656;833.2;NaN;;4.68;12.226105;41.7;11 / 14;30530;2022-10-14 18:26:03:588
2.7437;-11.9106;1.1994;-1.2274;-9.4897;-2.1471;3.6521;-3.0084;5.3158;-2.2611;-1.9812;0.3076;0.0;10.18;39.19;-22.61;128.4;83.85;67.41;0.0;981.15;44.155;35.953335;-83.93164;837.21;NaN;;4.97;12.226105;47.9;11 / 14;31030;2022-10-14 18:26:04:088
5.3521;-4.3358;-4.3645;-1.8125;-9.5462;-1.3251;-2.0636;-0.8107;0.0237;0.3337;0.6199;0.1487;1.0;11.46;42.28;-12.24;43.6;74.09;144.79;0.0;980.95;44.873;35.953335;-83.93164;837.21;NaN;;4.97;12.226105;47.9;11 / 14;31530;2022-10-14 18:26:04:588
2.1571;-14.9668;4.162;-0.9808;-9.7515;-0.3415;-3.8577;-4.0628;-3.7357;-3.5692;-0.8336;0.973;0.0;10.52;38.51;-20.08;233.76;74.71;-2.12;0.0;981.09;47.213;35.953342;-83.931625;840.38;NaN;;4.61;12.226105;55.5;11 / 14;32030;2022-10-14 18:26:05:088
-2.4467;-7.2936;-2.4921;-1.3109;-9.6349;-1.273;4.1985;7.1962;1.0518;0.285;-0.265;0.5117;0.0;9.75;41.31;-13.61;38.11;73.39;149.0;0.0;981.52;44.762;35.953342;-83.931625;840.38;NaN;;4.61;12.226105;55.5;11 / 14;32530;2022-10-14 18:26:05:588
-0.4932;-9.3754;1.7572;0.1996;-9.6508;1.73;-0.1939;0.7201;-1.7425;-0.0625;0.3261;-0.2542;1.0;7.14;41.89;-18.13;223.96;79.77;-6.58;0.0;980.84;44.472;35.953354;-83.93161;839.37;NaN;;4.32;12.226105;50.3;11 / 14;33030;2022-10-14 18:26:06:088
1.5586;-7.1225;-1.2042;-0.4436;-9.7463;-0.992;3.9697;6.637;1.6536;1.1182;0.8612;-0.7626;0.0;5.36;41.61;-17.03;30.12;70.7;144.19;0.0;980.81;47.996;35.953354;-83.93161;839.37;NaN;;4.32;12.226105;50.3;11 / 14;33530;2022-10-14 18:26:06:588
1.1767;-9.5752;0.6811;-0.0841;-9.7566;0.9862;-2.5596;0.1432;-3.2921;1.4277;-0.3738;-0.5657;1.0;8.04;43.28;-14.76;210.87;84.21;4.87;0.0;981.08;44.977;35.95336;-83.9316;837.12;NaN;;4.68;12.226105;33.9;11 / 14;34030;2022-10-14 18:26:07:088
3.2788;-1.9379;0.5243;-1.4662;-9.2443;-2.9264;-2.3395;1.1373;1.8996;-0.3261;1.3562;-0.0415;1.0;5.76;40.37;-20.46;23.4;76.4;163.55;0.0;981.05;45.55;35.95336;-83.9316;837.12;NaN;;4.68;12.226105;33.9;11 / 14;34531;2022-10-14 18:26:07:589
-1.7859;-9.8339;-2.7353;0.5511;-9.763;0.7419;-3.1551;0.4601;1.026;0.9548;-0.6845;0.2557;2.0;6.13;43.74;-14.02;255.2;84.59;-36.61;0.0;980.73;44.36;35.953373;-83.931595;839.49;NaN;;4.75;12.226105;51.0;11 / 14;35030;2022-10-14 18:26:08:088
-5.0276;-9.58;-1.4976;-1.0702;-9.3929;-2.6074;1.923;0.6756;2.2247;-1.6696;-1.0696;0.3122;0.0;2.94;40.41;-21.75;225.53;79.03;-18.98;0.0;981.18;44.372;35.953373;-83.931595;839.49;NaN;;4.75;12.226105;51.0;11 / 14;35530;2022-10-14 18:26:08:588
-0.754;-10.1163;-0.4789;0.3552;-9.6696;-1.5946;5.0043;3.4959;-0.07;0.0607;1.2149;-0.9681;3.0;5.66;44.38;-11.12;10.23;80.41;-167.44;0.0;981.09;47.285;35.953377;-83.93158;842.26;NaN;;4.1;12.226105;51.7;11 / 14;36030;2022-10-14 18:26:09:088
-2.4371;-8.5241;0.0323;-0.1544;-9.4465;-2.6288;3.5456;-3.3263;6.9378;-0.8066;0.2382;0.2217;0.0;2.31;40.61;-20.59;320.54;87.51;-132.05;0.0;981.06;48.533;35.953377;-83.93158;842.26;NaN;;4.1;12.226105;51.7;11 / 14;36530;2022-10-14 18:26:09:588
-0.5028;-8.8965;3.7002;0.9514;-9.7603;0.0343;1.4797;-0.9186;3.4865;0.4848;0.1426;-0.3197;4.0;3.11;44.78;-9.54;18.17;81.66;167.46;0.0;980.25;47.432;35.953384;-83.931564;843.65;NaN;;4.5;12.226105;50.1;12 / 14;37030;2022-10-14 18:26:10:088
3.396;-12.1621;4.5846;0.7496;-9.7755;0.2187;-2.3947;-4.098;-2.6304;-3.1049;-1.7128;1.1773;0.0;-0.88;40.43;-21.21;243.93;71.41;-30.77;0.0;980.69;47.895;35.953384;-83.931564;843.65;NaN;;4.5;12.226105;50.1;12 / 14;37530;2022-10-14 18:26:10:588
5.1688;-4.8924;2.0207;0.0671;-9.665;-1.6594;0.0372;-0.7413;0.7806;1.4114;-0.1628;0.0256;2.0;-0.04;44.98;-9.37;358.74;80.25;-177.68;0.0;981.07;46.154;35.953392;-83.93155;845.45;NaN;;4.86;12.226105;50.5;13 / 14;38030;2022-10-14 18:26:11:088
0.4059;-13.7288;-0.1053;2.0604;-9.1753;2.7819;1.1978;-0.2863;-0.8053;0.3446;0.955;-0.72;1.0;-0.45;41.91;-16.74;247.41;80.15;-43.84;0.0;981.36;45.947;35.953392;-83.93155;845.45;NaN;;4.86;12.226105;50.5;13 / 14;38530;2022-10-14 18:26:11:588
-9.1633;-22.0974;-7.436;0.6337;-9.5219;-2.2588;2.6191;5.759;3.1247;0.4811;0.1009;0.3971;1.0;-1.39;43.31;-12.6;348.59;76.16;-164.33;0.0;980.96;44.063;35.953396;-83.93154;846.67;NaN;;4.03;12.226105;49.6;13 / 14;39031;2022-10-14 18:26:12:089
5.0587;-9.8877;3.201;2.0047;-9.2962;2.3943;-0.7228;0.8273;-2.3835;0.93;-2.3369;0.199;3.0;0.24;43.76;-13.29;276.97;77.67;-49.88;0.0;980.81;45.636;35.953396;-83.93154;846.67;NaN;;4.03;12.226105;49.6;13 / 14;39530;2022-10-14 18:26:12:588
2.8848;-4.3753;0.9434;1.0813;-9.1525;-3.3516;2.1249;6.1085;5.0923;-0.9851;2.4322;0.2605;1.0;-4.09;41.1;-15.79;350.35;69.31;-176.51;0.0;981.18;46.681;35.9534;-83.931526;848.71;NaN;;4.36;12.226105;52.1;13 / 14;40030;2022-10-14 18:26:13:088
1.3226;-9.0891;0.2752;1.7137;-9.6342;-0.6452;3.861;4.0461;0.4475;3.371;2.4525;-0.4781;4.0;1.11;45.47;-2.62;1.63;70.83;-170.73;0.0;980.98;46.461;35.9534;-83.931526;848.71;NaN;;4.36;12.226105;52.1;13 / 14;40530;2022-10-14 18:26:13:588
4.9367;-9.294;-0.3197;0.4181;-9.5757;-2.074;2.7213;-3.3507;4.9677;-1.0907;0.0132;0.2447;1.0;-3.9;39.49;-20.21;343.62;77.54;-168.6;0.0;980.34;45.646;35.953407;-83.93152;850.5;NaN;;4.18;12.226105;66.3;13 / 14;41030;2022-10-14 18:26:14:088
2.1272;-9.1023;5.0121;1.2912;-9.6978;-0.6748;5.0113;2.1015;-0.5145;1.537;3.2579;-0.629;3.0;0.83;44.01;-7.48;338.55;80.32;-150.47;0.0;980.44;45.532;35.953407;-83.93152;850.5;NaN;;4.18;12.226105;66.3;13 / 14;41530;2022-10-14 18:26:14:588
5.808;-14.4162;3.6583;0.4006;-9.6571;-1.6587;-1.1151;-2.6513;-1.3114;-3.3999;-0.7749;0.9396;0.0;0.15;40.2;-20.16;349.8;79.98;-166.42;0.0;981.34;46.324;35.953407;-83.9315;851.0;NaN;;4.5;12.226105;74.4;13 / 14;42030;2022-10-14 18:26:15:088
6.7657;-2.2002;-4.8757;0.1755;-9.7626;-0.9114;-6.6047;-12.4059;-8.5409;0.8469;1.0498;-0.1986;1.0;3.83;43.39;-9.15;11.05;74.81;168.83;0.0;980.21;47.44;35.953407;-83.9315;851.0;NaN;;4.5;12.226105;74.4;13 / 14;42530;2022-10-14 18:26:15:588
2.7162;-13.7913;-0.1914;1.9389;-9.2155;2.736;-4.8933;-4.88;-7.435;-0.2194;-0.9206;0.2188;1.0;3.02;39.58;-18.64;273.16;70.0;-35.32;0.0;980.89;46.755;35.953407;-83.93149;850.71;NaN;;4.14;12.226105;72.6;13 / 14;43030;2022-10-14 18:26:16:088
3.4666;-6.0368;3.5336;0.2742;-9.7076;-1.3627;-2.1366;-4.3677;-0.9513;-1.1151;-0.2721;0.2179;1.0;5.31;43.29;-8.49;12.63;81.85;-168.62;0.0;981.56;47.022;35.953407;-83.93149;850.71;NaN;;4.14;12.226105;72.6;13 / 14;43530;2022-10-14 18:26:16:588
3.1531;-15.3796;-3.8928;1.132;-9.7077;0.8056;0.3786;-0.5597;-0.5183;1.2856;1.1494;-0.8673;0.0;4.22;40.58;-16.97;274.36;72.48;-33.71;0.0;980.77;47.516;35.953407;-83.93147;851.47;NaN;;4.28;12.226105;74.9;13 / 14;44030;2022-10-14 18:26:17:088
-5.9686;-17.3381;-6.5539;0.4573;-9.6518;-1.6743;-3.982;-8.6564;-7.9007;1.4876;-0.7865;-0.2729;0.0;2.21;42.84;-12.54;348.75;82.86;-155.54;0.0;981.44;52.504;35.953407;-83.93147;851.47;NaN;;4.28;12.226105;74.9;13 / 14;44530;2022-10-14 18:26:17:588
-4.0783;-14.3264;-1.9152;2.0258;-9.0969;3.0517;0.83;-0.1379;-0.596;0.6591;0.9167;-0.4447;1.0;-1.26;41.14;-19.5;240.62;79.7;-43.37;0.0;980.87;50.408;35.953407;-83.93146;852.21;NaN;;4.36;12.313985;76.1;13 / 14;45030;2022-10-14 18:26:18:088
-5.4598;-23.8379;-13.753;0.04;-9.3033;-3.1011;-3.1386;0.1468;2.1575;-0.4518;1.4994;0.1116;1.0;-4.63;43.61;-15.77;349.83;71.56;-179.26;0.0;980.81;55.35;35.953407;-83.93146;852.21;NaN;;4.36;12.313985;76.1;13 / 14;45530;2022-10-14 18:26:18:588
1.6639;-8.2262;-1.3274;1.4393;-9.571;1.5792;-1.7673;0.7092;-2.2782;1.0033;-2.312;0.1078;1.0;-2.4;47.23;-13.22;288.59;79.69;-79.67;0.0;980.86;50.832;35.953407;-83.93144;854.13;NaN;;4.36;13.151784;74.0;13 / 14;46030;2022-10-14 18:26:19:088
3.9347;-2.9614;1.4378;-0.1704;-9.2795;-3.1673;0.6737;1.1317;2.6783;-0.6785;-0.3401;0.8389;0.0;-7.14;43.73;-19.56;334.86;76.72;-163.0;0.0;981.08;47.163;35.953407;-83.93144;854.13;NaN;;4.36;13.151784;74.0;13 / 14;46530;2022-10-14 18:26:19:588
1.3406;-9.0712;-0.1412;1.4558;-9.6119;1.2893;-1.6775;0.3334;-4.701;1.6071;-0.0555;0.3619;1.0;-2.62;44.79;-8.29;318.56;77.94;-112.43;0.0;980.54;49.748;35.953407;-83.931435;850.03;NaN;;3.85;12.226105;69.0;13 / 14;47030;2022-10-14 18:26:20:088
1.5275;-6.4726;0.5614;-0.2905;-9.4135;-2.7337;1.8567;1.7953;3.0742;-0.9929;0.799;0.874;0.0;-5.53;40.13;-18.32;339.95;76.11;-168.9;0.0;981.2;48.341;35.953407;-83.931435;850.03;NaN;;3.85;12.226105;69.0;13 / 14;47530;2022-10-14 18:26:20:588
-1.2281;-9.2821;-0.9039;1.6614;-9.6598;-0.3138;4.9423;2.5225;0.7869;1.8348;2.8047;-0.6338;2.0;-2.53;46.74;-11.49;302.39;80.07;-100.7;0.0;980.41;49.963;35.953407;-83.93143;851.8;NaN;;4.28;12.226105;32.3;13 / 14;48030;2022-10-14 18:26:21:088
-0.5171;-11.1218;-8.5062;0.8766;-9.4756;-2.3696;3.3602;-0.885;8.6844;-0.8043;-1.3692;0.9909;0.0;-4.69;43.2;-24.45;295.55;80.78;-112.76;0.0;981.27;49.233;35.953407;-83.93143;851.8;NaN;;4.28;12.226105;32.3;13 / 14;48530;2022-10-14 18:26:21:588
2.9853;-14.3106;3.9921;2.0823;-9.5824;-0.1116;-2.5956;-3.2106;-1.6162;1.2774;-0.6233;-1.5091;3.0;-2.59;51.19;-8.94;312.52;77.72;-93.07;0.0;980.38;48.105;35.95341;-83.93141;851.79;NaN;;4.28;12.226105;61.9;13 / 14;49032;2022-10-14 18:26:22:090
7.8335;-11.1458;3.3075;1.1739;-9.6387;-1.3737;-0.6503;-2.5136;-1.3028;-2.2394;-1.797;0.8681;0.0;-6.21;44.63;-25.11;292.68;66.03;-48.31;0.0;980.33;48.83;35.95341;-83.93141;851.79;NaN;;4.28;12.226105;61.9;13 / 14;49530;2022-10-14 18:26:22:588
8.7494;-14.4317;8.0836;0.1856;-9.6177;-1.907;-5.325;-5.5447;-4.3834;0.1423;-1.5138;-0.9899;3.0;0.24;49.67;-7.33;357.66;78.73;-174.44;0.0;981.65;49.257;35.95341;-83.93139;851.43;NaN;;4.28;12.226105;71.8;13 / 14;50030;2022-10-14 18:26:23:088
-0.0383;-11.3599;3.4929;1.9328;-9.4504;1.7674;-0.2079;-3.9617;-4.2818;-2.4652;-0.6421;0.8488;1.0;-0.28;43.65;-19.72;280.58;67.46;-37.93;0.0;980.6;47.867;35.95341;-83.93139;851.43;NaN;;4.28;12.226105;71.8;13 / 14;50530;2022-10-14 18:26:23:588
3.8318;-3.6006;5.4526;0.7347;-9.5645;-2.0373;-0.6693;5.0346;-3.2452;-0.4166;0.1966;0.682;2.0;-0.67;47.03;-7.42;348.62;77.24;-160.17;0.0;980.85;48.604;35.953415;-83.93137;851.96;NaN;;4.72;12.226105;59.7;13 / 14;51030;2022-10-14 18:26:24:088
1.4067;-11.6521;-4.7031;1.4853;-9.6625;0.7754;-4.0226;-4.8184;-7.4168;-0.6191;0.3303;-0.1778;1.0;-1.78;43.93;-13.22;308.27;79.78;-61.15;0.0;981.05;48.534;35.953415;-83.93137;851.96;NaN;;4.72;12.226105;59.7;13 / 14;51530;2022-10-14 18:26:24:588
5.674;-3.7995;-0.6799;0.4454;-9.7472;-0.9819;3.176;7.4426;2.2149;-0.6712;1.2059;0.7967;3.0;-4.99;44.16;-10.05;323.73;83.69;-155.6;0.0;980.59;48.585;35.95342;-83.93136;852.49;NaN;;5.11;12.226105;43.4;13 / 14;52030;2022-10-14 18:26:25:088
3.9491;-15.3365;4.349;1.9833;-9.3757;2.0817;-2.0082;-2.7894;-5.1646;-3.3924;-1.4007;1.0669;1.0;-3.82;40.43;-18.54;248.31;72.95;-43.61;0.0;981.12;48.552;35.95342;-83.93136;852.49;NaN;;5.11;12.226105;43.4;13 / 14;52530;2022-10-14 18:26:25:588
4.3633;-9.4304;6.251;0.36;-9.5037;-2.3918;-5.9364;-12.6618;-6.5187;-0.3676;0.4563;0.3389;1.0;-0.71;42.11;-10.12;346.15;76.52;-158.72;0.0;980.61;49.487;35.953426;-83.93135;854.47;NaN;;4.28;12.226105;46.4;13 / 14;53031;2022-10-14 18:26:26:089
0.486;-15.4756;0.2417;2.1327;-9.2971;2.2773;0.0635;-1.6147;-2.339;0.8886;2.5427;-1.1372;2.0;0.64;39.13;-16.26;261.18;76.66;-42.64;0.0;981.14;49.956;35.953426;-83.93135;854.47;NaN;;4.28;12.226105;46.4;13 / 14;53530;2022-10-14 18:26:26:588
-7.1788;-31.2263;-6.2821;0.3841;-9.3054;-3.0711;2.0833;4.5031;3.8945;1.0058;-0.1767;0.1769;1.0;1.16;39.96;-13.86;358.35;71.6;-172.87;0.0;980.92;49.582;35.95343;-83.93134;857.96;NaN;;4.43;12.226105;38.8;13 / 14;54030;2022-10-14 18:26:27:088
4.453;-8.8307;2.1057;1.8838;-9.2737;2.5731;0.6771;1.4054;-2.7893;1.3344;-2.347;0.1281;2.0;3.41;41.1;-14.55;351.66;78.18;-145.72;0.0;980.83;49.909;35.95343;-83.93134;857.96;NaN;;4.43;12.226105;38.8;13 / 14;54530;2022-10-14 18:26:27:588
1.6687;-5.6297;-3.2142;0.5004;-9.6077;-1.9008;3.5551;7.4367;3.3201;-0.0029;1.4331;-0.0441;1.0;-0.79;39.04;-20.33;0.33;71.66;176.63;0.0;981.13;48.252;35.95344;-83.93133;858.65;NaN;;4.32;12.226105;53.0;13 / 14;55030;2022-10-14 18:26:28:088
1.6603;-8.1182;-0.9182;1.3281;-9.5694;1.6832;-2.2066;-0.4319;-3.6789;1.2716;-1.1322;0.4655;4.0;3.11;44.64;-9.41;9.52;81.71;-177.49;0.0;980.89;48.621;35.95344;-83.93133;858.65;NaN;;4.32;12.226105;53.0;13 / 14;55531;2022-10-14 18:26:28:589
0.6248;-7.5197;0.1842;0.2759;-9.559;-2.1723;5.7899;-1.0983;5.6027;-0.8088;1.0413;0.7741;1.0;-5.7;38.83;-22.72;343.67;77.1;-172.76;0.0;980.36;50.936;35.95345;-83.93131;860.01;NaN;;4.32;12.226105;63.5;13 / 14;56030;2022-10-14 18:26:29:088
-0.4466;-9.9392;1.6854;1.4385;-9.7006;0.0074;-1.4541;0.2914;0.6041;1.6988;2.0172;-0.4521;4.0;-0.92;44.18;-11.98;335.75;82.27;-158.47;0.0;980.64;51.388;35.95345;-83.93131;860.01;NaN;;4.32;12.226105;63.5;13 / 14;56530;2022-10-14 18:26:29:588
-3.9766;-10.4408;-1.6699;0.7129;-9.5018;-2.3188;2.8209;-2.8767;3.6094;-0.7908;-0.8116;1.0668;1.0;-1.88;40.07;-20.57;344.31;75.68;-162.91;0.0;980.56;50.777;35.953453;-83.931305;860.2;NaN;;4.21;12.226105;60.4;13 / 14;57030;2022-10-14 18:26:30:088
-2.8729;-12.1394;7.1297;1.652;-9.6569;-0.4314;5.506;3.1306;-2.5736;-0.4714;-1.2939;-1.4573;3.0;1.58;43.84;-7.63;4.68;79.69;-175.03;0.0;980.23;50.539;35.953453;-83.931305;860.2;NaN;;4.21;12.226105;60.4;13 / 14;57530;2022-10-14 18:26:30:588
6.993;-10.4563;3.2632;0.6726;-9.5044;-2.3204;3.3927;-2.9237;6.2884;-3.2935;-1.4195;0.7236;0.0;-2.96;37.88;-21.41;260.53;81.5;-73.24;0.0;981.12;49.896;35.95346;-83.9313;861.78;NaN;;4.28;12.226105;42.7;13 / 14;58030;2022-10-14 18:26:31:088
7.9555;-3.76;-3.4152;0.3115;-9.6339;-1.8058;0.6231;-2.4024;0.1645;-0.9495;-0.6446;0.2001;2.0;-1.11;43.48;-8.98;345.98;78.88;-159.74;0.0;979.87;47.552;35.95346;-83.9313;861.78;NaN;;4.28;12.226105;42.7;13 / 14;58530;2022-10-14 18:26:31:588
3.0368;-13.8882;-0.9051;1.54;-9.5656;1.5157;-5.42;-4.4743;-7.0112;-2.1328;0.1567;0.6523;0.0;-2.34;38.55;-21.53;241.19;77.27;-45.45;0.0;980.8;49.344;35.95347;-83.93128;860.57;NaN;;4.93;12.226105;62.6;13 / 14;59030;2022-10-14 18:26:32:088
-4.4507;-11.3767;-5.1377;0.2152;-9.635;-1.8139;-6.3196;-10.5228;-4.6238;0.1351;1.3011;0.4875;1.0;-1.59;43.88;-11.91;350.19;79.27;-173.23;0.0;981.3;48.621;35.95347;-83.93128;860.57;NaN;;4.93;12.226105;62.6;13 / 14;59530;2022-10-14 18:26:32:588
0.6547;-15.2288;-3.8701;1.593;-9.5379;1.6312;0.3079;0.134;-1.2164;0.3044;1.8214;-0.4736;0.0;-1.69;41.03;-20.55;245.1;74.98;-41.73;0.0;980.58;49.04;35.953476;-83.931274;861.62;NaN;;4.28;12.226105;55.9;13 / 14;60030;2022-10-14 18:26:33:088
-2.1093;-11.275;0.0849;0.4973;-9.7492;-0.9361;0.9511;1.8639;-4.3906;-0.3994;-0.1026;0.3994;1.0;-3.54;41.16;-19.65;355.42;72.48;175.83;0.0;981.34;47.857;35.953476;-83.931274;861.62;NaN;;4.28;12.226105;55.9;13 / 14;60530;2022-10-14 18:26:33:588
-2.91;-14.75;-9.883;1.548;-9.5677;1.4943;-3.352;-3.4943;-6.624;1.1753;-0.3951;-0.7917;0.0;-1.52;43.74;-21.21;252.64;72.67;-39.11;0.0;980.92;50.34;35.953484;-83.93127;861.41;NaN;;4.36;12.226105;39.8;13 / 14;61030;2022-10-14 18:26:34:088
-6.0296;-26.1772;-11.8352;0.674;-9.6606;-1.5458;3.2178;8.495;2.9844;2.2327;-0.2787;-0.2492;0.0;-0.47;45.96;-16.69;4.44;70.83;171.86;0.0;980.62;49.189;35.953484;-83.93127;861.41;NaN;;4.36;12.226105;39.8;13 / 14;61530;2022-10-14 18:26:34:588
2.6432;-9.0844;0.1125;1.8791;-9.1583;2.9604;1.107;0.2442;-2.3969;0.8043;2.7303;-0.9333;0.0;0.62;44.78;-18.26;282.88;69.05;-32.4;0.0;980.68;49.144;35.95349;-83.93126;860.26;NaN;;4.86;12.226105;52.7;13 / 14;62030;2022-10-14 18:26:35:088
4.0699;-0.1555;1.2317;0.0276;-9.168;-3.4811;-1.1972;0.9413;3.4796;-0.5035;1.6048;-0.112;1.0;0.84;41.76;-20.49;352.29;75.69;-165.68;0.0;980.6;47.961;35.95349;-83.93126;860.26;NaN;;4.86;12.226105;52.7;13 / 14;62530;2022-10-14 18:26:35:588
1.9032;-8.8857;-0.7146;1.4338;-9.6172;1.2746;-2.8861;0.1514;-4.2327;1.3941;-1.5112;-0.129;1.0;4.44;44.53;-13.82;281.26;78.72;-48.36;0.0;980.74;47.777;35.953495;-83.93124;859.81;NaN;;4.68;12.226105;70.8;13 / 14;63030;2022-10-14 18:26:36:088
3.6401;-4.721;0.0538;0.086;-9.2401;-3.2838;-1.794;1.183;2.9362;-0.6204;-0.0083;1.0288;1.0;1.41;41.81;-20.06;294.51;83.07;-97.64;0.0;980.78;47.584;35.953495;-83.93124;859.81;NaN;;4.68;12.226105;70.8;13 / 14;63530;2022-10-14 18:26:36:588
-1.6017;-9.5022;-0.3616;1.4315;-9.5511;1.7025;-2.1877;0.5966;-2.0782;1.0822;-0.6512;0.4684;2.0;3.84;44.31;-11.89;288.18;76.89;-40.06;0.0;980.56;46.893;35.9535;-83.93123;860.33;NaN;;4.36;12.226105;76.1;13 / 14;64030;2022-10-14 18:26:37:088
-1.6519;-10.255;-4.8446;1.2433;-9.5076;-2.0569;0.5333;-2.7009;-0.3496;-0.4852;-0.0763;0.5564;0.0;-2.32;39.13;-23.49;333.78;75.81;-148.85;0.0;981.05;48.457;35.9535;-83.93123;860.33;NaN;;4.36;12.226105;76.1;13 / 14;64530;2022-10-14 18:26:37:588
-0.1065;-9.6876;-9.8842;1.5601;-9.4753;-1.9888;7.134;6.599;-1.6041;2.4327;0.4442;-0.0192;2.0;0.68;43.86;-6.86;348.43;75.06;-141.89;0.0;980.41;48.226;35.953503;-83.93121;860.74;NaN;;4.46;12.226105;60.9;13 / 14;65030;2022-10-14 18:26:38:088
4.2604;-14.4628;4.526;0.6742;-9.5458;-2.1433;1.7045;-2.8206;3.5541;-2.819;-2.4206;0.8544;0.0;-2.36;37.07;-18.15;343.46;76.76;-162.54;0.0;980.32;48.233;35.953503;-83.93121;860.74;NaN;;4.46;12.226105;60.9;13 / 14;65530;2022-10-14 18:26:38:588
5.2669;-10.5377;1.6747;0.0441;-9.6287;-1.8594;-1.94;-4.3849;-1.5185;-0.5073;-1.9866;-1.6485;2.0;-1.12;39.13;-7.88;355.53;79.07;-178.64;0.0;980.75;58.942;35.95351;-83.931206;862.09;NaN;;4.46;12.226105;53.3;13 / 14;66030;2022-10-14 18:26:39:088
-2.6695;-11.6198;-4.1788;1.3698;-9.694;0.5652;-1.6715;-4.3198;-3.8237;-0.9922;-0.5598;0.457;0.0;-5.06;35.12;-20.47;231.9;68.5;-33.15;0.0;980.49;57.15;35.95351;-83.931206;862.09;NaN;;4.46;12.226105;53.3;13 / 14;66530;2022-10-14 18:26:39:588
-5.3052;-16.7228;-7.1895;0.2148;-9.5929;-2.0251;-2.3825;-0.6013;-1.4371;0.9899;-0.0016;-0.1075;1.0;-0.62;42.21;-8.81;348.37;77.61;-163.4;0.0;980.58;47.981;35.95352;-83.9312;862.44;NaN;;4.25;12.226105;52.7;13 / 14;67030;2022-10-14 18:26:40:088
2.581;-12.4241;-3.7971;2.327;-9.1464;2.6642;0.6212;-0.023;-1.1775;0.3079;-0.7755;-0.3691;0.0;0.66;38.25;-19.12;274.2;68.86;-41.14;0.0;981.1;48.488;35.95352;-83.9312;862.44;NaN;;4.25;12.226105;52.7;13 / 14;67530;2022-10-14 18:26:40:588
-3.3242;-33.8752;-19.6017;0.5465;-9.7873;-0.2845;2.4206;7.843;1.1271;0.4923;-0.9323;0.4823;1.0;-3.17;38.78;-17.7;358.21;74.27;173.29;0.0;980.86;56.754;35.95353;-83.93119;862.52;NaN;;4.46;12.226105;51.8;13 / 14;68030;2022-10-14 18:26:41:088
-1.5467;-15.7101;-7.1357;2.047;-9.3151;2.2822;-1.7056;-1.1132;-0.5613;1.0471;0.3447;-0.9714;1.0;-3.52;38.91;-21.45;245.21;71.36;-41.22;0.0;980.62;59.356;35.95353;-83.93119;862.52;NaN;;4.46;12.226105;51.8;13 / 14;68530;2022-10-14 18:26:41:588
0.4549;-15.5773;-22.9917;0.5277;-9.6382;-1.7313;3.607;7.8152;3.7207;0.6402;-0.8761;0.4776;1.0;-1.12;42.79;-13.86;346.39;79.36;-163.05;0.0;980.68;50.893;35.953533;-83.93118;862.9;NaN;;4.54;12.226105;46.1;13 / 14;69030;2022-10-14 18:26:42:088
-2.3402;-14.2101;-8.6856;2.1234;-9.3799;1.918;-2.235;0.9512;-1.9429;1.1618;-0.0798;-0.6027;1.0;1.67;42.71;-16.09;270.74;76.77;-44.82;0.0;980.82;47.333;35.953533;-83.93118;862.9;NaN;;4.54;12.226105;46.1;13 / 14;69531;2022-10-14 18:26:42:589
-7.1381;-28.9807;-19.768;0.7865;-9.7585;-0.569;-6.7469;-11.8729;-9.4585;-0.0735;-1.0603;0.6463;1.0;-2.7;42.21;-16.39;354.24;75.0;178.78;0.0;980.57;48.055;35.953545;-83.931175;865.63;NaN;;4.32;12.226105;50.0;14 / 14;70030;2022-10-14 18:26:43:088
-3.5408;-14.7763;-1.9968;2.243;-9.1504;2.722;0.0596;-0.8021;-0.0888;-0.6831;-0.1905;-0.0662;1.0;-2.66;39.83;-21.86;254.51;68.92;-39.49;0.0;981.27;48.415;35.953545;-83.931175;865.63;NaN;;4.32;12.226105;50.0;14 / 14;70530;2022-10-14 18:26:43:588
4.6911;-19.1169;-0.3556;0.4448;-9.5699;-2.0951;-3.1288;-12.0363;-10.4494;-1.564;-0.1828;0.441;1.0;-2.08;44.25;-12.45;349.99;72.78;-169.15;0.0;980.58;49.001;35.953552;-83.93117;866.61;NaN;;4.39;12.226105;56.5;14 / 14;71030;2022-10-14 18:26:44:088
-2.8657;-13.6271;-11.6701;1.898;-9.2054;2.798;0.6835;0.6717;-2.3253;0.7462;2.0991;-0.7345;1.0;-2.81;41.94;-19.67;253.22;69.83;-34.15;0.0;980.94;49.844;35.953552;-83.93117;866.61;NaN;;4.39;12.226105;56.5;14 / 14;71530;2022-10-14 18:26:44:588
3.7947;-7.9759;-0.5818;0.8434;-9.7372;-0.8043;3.3999;6.1183;1.1132;-0.3387;-0.7784;0.7458;1.0;-2.06;43.31;-15.43;354.31;72.98;-177.42;0.0;980.77;48.526;35.95356;-83.93116;866.99;NaN;;3.89;12.226105;53.5;14 / 14;72030;2022-10-14 18:26:45:088
-2.1787;-12.612;-10.5616;2.2988;-9.2261;2.4009;-0.7894;0.0313;-0.8904;1.4159;0.387;-0.6241;1.0;-1.03;42.02;-18.56;269.54;71.02;-43.15;0.0;980.73;47.016;35.95356;-83.93116;866.99;NaN;;3.89;12.226105;53.5;14 / 14;72530;2022-10-14 18:26:45:588
0.65;-12.5426;-15.4023;0.8335;-9.6022;-1.8092;-1.5853;-5.7852;-8.3924;1.4857;-0.0987;-0.1505;1.0;-1.26;43.59;-15.36;351.11;72.13;-167.35;0.0;980.71;48.203;35.953568;-83.93115;868.74;NaN;;4.61;12.226105;55.5;14 / 14;73030;2022-10-14 18:26:46:088
-2.5606;-12.4505;-2.3952;1.8294;-9.2393;2.7312;-0.7565;1.1021;-3.352;0.6509;-1.0556;-0.1388;1.0;3.15;45.94;-16.03;291.41;70.41;-33.81;0.0;980.6;48.825;35.953568;-83.93115;868.74;NaN;;4.61;12.226105;55.5;14 / 14;73530;2022-10-14 18:26:46:588
2.1715;-1.9534;1.1779;1.1928;-9.3141;-2.8277;0.3282;5.1976;3.2735;-0.8233;0.4093;0.3542;1.0;-3.21;41.79;-17.42;340.8;71.76;-157.13;0.0;980.61;49.99;35.95358;-83.931145;869.86;NaN;;4.57;12.226105;52.4;14 / 14;74030;2022-10-14 18:26:47:088
3.02;-9.1274;-6.786;1.7569;-9.5004;1.6813;0.3225;1.5176;-6.7434;1.7607;-1.1325;0.2831;1.0;-0.41;42.13;-12.96;280.3;75.64;-46.26;0.0;980.8;55.679;35.95358;-83.931145;869.86;NaN;;4.57;12.226105;52.4;14 / 14;74530;2022-10-14 18:26:47:588
4.5691;-3.3781;1.7237;-0.2535;-9.3578;-2.9219;-3.1079;1.9166;2.7603;-1.0261;2.2058;0.1526;0.0;-5.36;39.79;-22.28;339.49;77.36;-164.91;0.0;980.58;49.781;35.95359;-83.93114;870.99;NaN;;4.64;12.226105;59.1;14 / 14;75030;2022-10-14 18:26:48:088
1.1157;-9.1884;0.431;1.3008;-9.5223;1.9502;-0.8216;1.5958;-1.4945;2.4552;-0.0745;0.3042;1.0;-0.08;46.41;-11.38;347.56;80.58;-159.24;0.0;980.47;53.278;35.95359;-83.93114;870.99;NaN;;4.64;12.226105;59.1;14 / 14;75530;2022-10-14 18:26:48:588
2.8549;-5.7912;0.8764;-0.1984;-9.4565;-2.5893;2.9082;1.8309;3.0505;-0.77;0.7385;1.1357;0.0;-1.8;41.66;-19.63;359.12;74.64;175.62;0.0;980.29;48.374;35.9536;-83.93112;871.91;NaN;;4.46;12.226105;62.3;14 / 14;76030;2022-10-14 18:26:49:088
2.4096;-9.0652;-5.2837;1.5328;-9.4873;1.9526;-1.3583;0.5019;-2.3099;1.5262;-1.9017;0.1313;1.0;4.43;44.49;-10.52;341.4;77.67;-126.94;0.0;980.37;48.65;35.9536;-83.93112;871.91;NaN;;4.46;12.226105;62.3;14 / 14;76531;2022-10-14 18:26:49:589
-0.9422;-8.9791;-0.9984;0.6691;-9.5463;-2.1425;6.3301;-1.8474;6.4769;-0.3286;-0.2636;0.7371;0.0;-0.02;40.86;-20.14;301.94;81.76;-107.66;0.0;980.24;48.135;35.95361;-83.931114;871.36;NaN;;4.57;12.722182;55.5;14 / 14;77030;2022-10-14 18:26:50:088
-0.1615;-9.932;0.8477;1.4091;-9.5586;1.6788;-1.7064;-0.216;1.5873;2.3655;2.6951;-0.1753;1.0;5.57;42.77;-8.72;2.68;78.23;-151.11;0.0;980.36;48.241;35.95361;-83.931114;871.36;NaN;;4.57;12.722182;55.5;14 / 14;77530;2022-10-14 18:26:50:588
0.6787;-7.3068;1.3753;0.7354;-9.5098;-2.2788;5.4572;-3.6862;6.998;0.0868;-0.5178;1.0312;0.0;2.74;37.59;-18.53;353.86;75.87;-162.11;0.0;980.12;50.056;35.95362;-83.9311;870.7;NaN;;4.75;12.501173;39.2;14 / 14;78031;2022-10-14 18:26:51:089
-0.0622;-9.5644;0.1974;1.6705;-9.6036;1.0728;-0.9241;-1.4318;4.1918;1.1334;2.2936;-0.9064;1.0;3.24;40.07;-11.47;327.74;84.0;-125.49;0.0;980.31;48.97;35.95362;-83.9311;870.7;NaN;;4.75;12.501173;39.2;14 / 14;78530;2022-10-14 18:26:51:588
2.8777;-8.7039;-1.9439;0.4321;-9.6304;-1.7996;1.2556;-3.1285;3.1245;-0.9294;0.2258;0.6281;1.0;-0.36;35.87;-20.27;349.78;79.12;-166.5;0.0;980.24;49.467;35.95363;-83.93109;871.26;NaN;;4.82;12.517013;60.4;14 / 14;79030;2022-10-14 18:26:52:088
-1.8422;-11.6725;-1.0666;1.7553;-9.6483;-0.0038;3.6589;-0.2867;2.13;2.3419;2.1802;-0.3605;1.0;2.64;40.01;-10.8;5.18;80.23;-172.93;0.0;980.44;48.375;35.95363;-83.93109;871.26;NaN;;4.82;12.517013;60.4;14 / 14;79530;2022-10-14 18:26:52:588
6.0224;-8.9743;0.1675;0.7241;-9.5173;-2.251;2.8214;-2.9213;4.9024;-0.0587;-0.56;0.8737;1.0;-1.37;37.05;-20.18;345.37;76.05;-162.17;0.0;980.21;47.984;35.953632;-83.93107;871.16;NaN;;4.54;12.466125;66.9;13 / 14;80030;2022-10-14 18:26:53:088
-2.0554;-10.1785;3.7086;1.4094;-9.704;-0.1316;2.0289;-0.1679;1.3397;-0.8495;0.2653;-1.2274;1.0;0.66;41.44;-11.98;349.94;84.84;-162.15;0.0;980.22;48.274;35.953632;-83.93107;871.16;NaN;;4.54;12.466125;66.9;13 / 14;80530;2022-10-14 18:26:53:588
3.4714;-7.7127;1.136;0.9056;-9.6567;-1.4485;0.0059;-3.3733;-2.988;-0.7043;0.7248;0.1446;0.0;-1.76;37.99;-20.46;331.1;79.97;-147.99;0.0;980.5;49.291;35.95364;-83.93106;872.17;NaN;;4.54;12.284626;58.8;13 / 14;81030;2022-10-14 18:26:54:088
4.2389;-10.8619;-0.0395;1.5594;-9.5731;-1.447;4.6324;3.9152;0.5263;0.1061;1.6106;-0.3454;1.0;-0.75;41.34;-12.11;335.79;81.73;-149.16;0.0;980.09;48.622;35.95364;-83.93106;872.17;NaN;;4.54;12.284626;58.8;13 / 14;81530;2022-10-14 18:26:54:588
5.0348;-8.3985;2.715;1.0319;-9.3862;-2.6467;5.7824;-0.9536;7.0514;-1.6995;0.1546;0.1769;0.0;-1.44;38.12;-20.68;309.36;81.21;-120.0;0.0;980.58;50.104;35.953648;-83.931046;870.69;NaN;;4.57;12.226105;46.5;11 / 14;82030;2022-10-14 18:26:55:088
-1.1755;-10.1306;2.8334;1.6915;-9.6596;0.0166;2.2795;0.1824;1.665;2.2262;1.1569;0.0655;1.0;0.04;42.92;-12.15;301.32;80.07;-89.44;0.0;980.19;49.656;35.953648;-83.931046;870.69;NaN;;4.57;12.226105;46.5;11 / 14;82530;2022-10-14 18:26:55:588
5.3124;-14.2663;4.8482;0.6566;-9.6459;-1.6421;0.7169;-3.5551;-2.0332;-2.2659;-2.1154;0.8291;0.0;-1.93;38.18;-24.06;247.36;70.55;-40.27;0.0;980.7;47.998;35.953655;-83.93104;870.58;NaN;;4.43;12.226105;58.1;12 / 14;83030;2022-10-14 18:26:56:088
5.1257;-11.3228;1.1324;1.4737;-9.6322;-1.104;4.5416;4.6805;1.5573;-0.9076;-0.4027;0.4109;1.0;1.16;46.22;-11.53;353.56;79.23;-164.31;0.0;980.22;50.564;35.953655;-83.93104;870.58;NaN;;4.43;12.226105;58.1;12 / 14;83530;2022-10-14 18:26:56:588
2.7784;-13.5075;4.3454;1.8398;-9.5347;1.369;-5.2735;-3.2052;-6.0397;-2.8244;-1.5971;0.8391;0.0;-1.59;40.43;-24.04;251.24;76.48;-53.35;0.0;980.94;50.289;35.95366;-83.93102;866.4;NaN;;4.07;12.226105;49.6;12 / 14;84030;2022-10-14 18:26:57:088
7.0615;-14.0234;2.9889;0.4466;-9.6285;-1.8063;-7.651;-8.2798;-4.2327;-0.7241;0.6684;0.2552;1.0;-0.86;44.29;-14.57;329.69;80.62;-139.85;0.0;979.91;48.848;35.95366;-83.93102;866.4;NaN;;4.07;12.226105;49.6;12 / 14;84530;2022-10-14 18:26:57:588
-4.8302;-16.3146;-11.0536;2.0639;-9.3101;2.2876;-2.0977;-1.191;-1.8155;-1.2607;-1.0113;0.7656;1.0;-0.86;41.04;-21.73;256.88;71.69;-42.06;0.0;980.48;49.526;35.953663;-83.931015;864.73;NaN;;4.43;12.226105;56.2;12 / 14;85030;2022-10-14 18:26:58:088
-7.2087;-9.6051;-6.1983;0.9339;-9.6083;-1.7257;2.5655;6.2252;2.7492;-0.1429;0.4129;0.5284;0.0;-1.63;42.84;-16.18;352.88;74.13;-177.52;0.0;981.33;51.512;35.953663;-83.931015;864.73;NaN;;4.43;12.226105;56.2;12 / 14;85530;2022-10-14 18:26:58:588
0.2261;-11.584;1.3286;2.1179;-9.2749;2.3792;-0.5511;0.5369;-2.6135;-0.917;-0.6887;0.4413;0.0;0.15;41.81;-19.39;271.0;71.05;-41.68;0.0;980.53;49.68;35.953667;-83.93101;865.3;NaN;;4.46;12.226105;64.8;12 / 14;86030;2022-10-14 18:26:59:088
-3.7959;-32.0821;-23.0456;0.6194;-9.5432;-2.1711;2.2344;5.6354;3.3642;0.6676;-0.1005;0.24;0.0;-2.16;41.57;-18.24;357.75;75.33;177.16;0.0;980.34;50.597;35.953667;-83.93101;865.3;NaN;;4.46;12.226105;64.8;12 / 14;86530;2022-10-14 18:26:59:588
0.833;-10.1151;2.193;2.2046;-9.2808;2.2754;0.0725;0.8362;-2.8666;0.9382;-2.3913;-0.262;1.0;0.83;41.89;-18.19;278.56;71.15;-44.09;0.0;980.67;49.708;35.95367;-83.93099;867.57;NaN;;4.36;12.226105;68.5;12 / 14;87031;2022-10-14 18:27:00:089
1.3167;-6.1229;-0.303;-0.1741;-9.3698;-2.8891;-1.921;0.5968;1.9021;1.3235;1.0669;-0.875;0.0;-0.81;42.13;-16.89;0.05;72.83;176.55;0.0;980.52;51.288;35.95367;-83.93099;867.57;NaN;;4.36;12.226105;68.5;12 / 14;87530;2022-10-14 18:27:00:588
2.7784;-8.6809;1.2568;1.2401;-9.6576;1.1675;-0.5504;1.1052;-2.9565;1.6389;-0.234;0.4371;1.0;1.69;44.04;-13.65;317.22;80.21;-108.29;0.0;980.37;49.775;35.95368;-83.930984;863.42;NaN;;4.25;12.226105;43.9;12 / 14;88030;2022-10-14 18:27:01:088
-1.0355;-8.8152;-2.3043;0.9898;-9.4513;-2.4216;4.288;-0.1462;3.9777;-0.9807;0.4271;-0.0134;0.0;-2.57;39.45;-22.41;308.93;82.46;-126.55;0.0;980.67;50.355;35.95368;-83.930984;863.42;NaN;;4.25;12.226105;43.9;12 / 14;88530;2022-10-14 18:27:01:588
3.1795;-10.4121;4.666;1.8489;-9.6283;-0.2187;2.0025;1.6177;3.9178;3.118;1.1137;0.0402;1.0;1.33;44.63;-7.86;323.14;79.06;-96.75;0.0;979.82;51.786;35.95369;-83.93098;859.93;NaN;;4.18;12.226105;39.0;12 / 14;89030;2022-10-14 18:27:02:088
-1.3143;-11.755;-0.941;0.6797;-9.6868;-1.3694;-1.059;-3.2544;0.3353;-2.1023;-1.9683;1.1078;0.0;-2.87;37.48;-24.96;332.55;81.03;-153.6;0.0;980.09;50.139;35.95369;-83.93098;859.93;NaN;;4.18;12.226105;39.0;12 / 14;89530;2022-10-14 18:27:02:588
7.2721;2.7341;-10.1904;0.9548;-9.4718;-2.3545;-4.4562;-6.4591;-6.9048;-1.0324;0.3231;-0.1445;1.0;-0.47;44.23;-13.39;348.03;74.98;-157.93;0.0;981.09;50.8;35.953697;-83.93096;859.39;NaN;;4.5;12.226105;57.0;11 / 14;90031;2022-10-14 18:27:03:089
-4.8135;-15.0039;-11.281;1.8187;-9.5326;1.4113;-4.323;-2.8594;-5.1162;-2.5055;-0.418;1.3238;1.0;-2.23;42.84;-20.87;262.75;71.63;-45.66;0.0;980.97;50.362;35.953697;-83.93096;859.39;NaN;;4.5;12.226105;57.0;11 / 14;90530;2022-10-14 18:27:03:588
-14.1299;-17.8433;-3.463;0.5025;-9.7284;-1.1295;-4.6933;-4.2503;1.8765;1.9029;-0.2592;-0.1716;1.0;1.07;46.09;-13.44;346.34;82.76;-156.02;0.0;980.41;49.45;35.95371;-83.930954;860.25;NaN;;4.39;12.226105;59.8;12 / 14;91030;2022-10-14 18:27:04:088
-0.7361;-13.614;-7.7665;1.6184;-9.6205;0.9989;-2.6088;-1.7418;-2.9771;-3.0707;-1.2583;1.0297;1.0;1.89;41.7;-19.59;268.45;78.82;-58.32;0.0;980.77;49.189;35.95371;-83.930954;860.25;NaN;;4.39;12.226105;59.8;12 / 14;91530;2022-10-14 18:27:04:588
6.5647;-14.8337;4.5069;0.3905;-9.7646;-0.8194;-2.8974;-0.8912;-0.376;0.7868;1.5154;0.1617;0.0;2.08;42.83;-12.3;327.68;82.97;-125.02;0.0;980.37;50.354;35.953716;-83.93095;859.18;NaN;;4.79;12.226105;43.3;13 / 14;92031;2022-10-14 18:27:05:089
-2.6216;-11.8424;0.5291;2.3886;-9.0958;2.7806;-1.1849;-0.3161;-0.5313;-2.968;-0.4868;0.93;0.0;-2.06;38.83;-22.61;258.2;68.05;-40.66;0.0;981.3;48.961;35.953716;-83.93095;859.18;NaN;;4.79;12.226105;43.3;13 / 14;92530;2022-10-14 18:27:05:588
3.8725;-19.2521;5.0611;0.436;-9.7215;-1.2137;-3.3906;-7.4787;-7.1841;1.748;-0.3609;-0.0221;0.0;-1.44;42.32;-15.81;352.83;74.98;-171.78;0.0;980.43;49.627;35.953728;-83.93093;858.41;NaN;;4.79;12.226105;63.0;13 / 14;93030;2022-10-14 18:27:06:088
1.7453;-11.84;-3.8892;1.3647;-9.7097;-0.175;-1.3139;0.3825;-1.0375;-3.3501;-0.8464;1.0619;1.0;0.66;40.52;-18.21;296.92;81.93;-97.31;0.0;980.84;50.532;35.953728;-83.93093;858.41;NaN;;4.79;12.226105;63.0;13 / 14;93530;2022-10-14 18:27:06:588
3.8773;-3.9239;-1.6196;1.415;-9.6102;-1.3459;-5.8376;-8.3206;1.2352;-0.262;-0.7327;0.6003;1.0;0.54;41.66;-13.52;319.07;82.41;-120.18;0.0;980.43;49.936;35.953735;-83.93092;856.91;NaN;;4.61;12.226105;47.6;13 / 14;94031;2022-10-14 18:27:07:089
5.3509;-17.0291;3.3075;1.369;-9.6562;-1.0266;-3.0478;-4.5818;-2.2386;-3.0865;-2.9404;1.0925;0.0;-2.98;37.56;-23.36;311.47;79.95;-126.87;0.0;979.95;50.122;35.953735;-83.93092;856.91;NaN;;4.61;12.226105;47.6;13 / 14;94530;2022-10-14 18:27:07:588
5.4203;-7.2517;0.9063;0.0906;-9.5897;-2.0491;-5.667;-8.9288;-5.3483;-0.5275;-2.8304;-1.6485;1.0;-0.69;44.12;-12.66;341.42;78.92;-154.19;0.0;981.21;48.892;35.953743;-83.9309;852.07;NaN;;4.54;12.226105;55.8;13 / 14;95030;2022-10-14 18:27:08:088
-2.2002;-14.9596;-3.6595;1.5096;-9.6889;-0.1294;-2.1412;-3.1471;-2.8879;-1.5328;-0.5465;0.596;0.0;0.19;42.49;-18.88;258.97;76.11;-46.24;0.0;980.13;48.783;35.953743;-83.9309;852.07;NaN;;4.54;12.226105;55.8;13 / 14;95530;2022-10-14 18:27:08:588
-8.8415;-18.8525;-6.1373;0.6663;-9.7433;-0.8911;2.5015;9.324;1.5333;-0.7562;-0.263;0.3893;1.0;0.75;44.46;-14.12;335.61;83.49;-143.21;0.0;980.4;49.177;35.953747;-83.93089;850.68;NaN;;4.36;12.226105;60.0;13 / 14;96030;2022-10-14 18:27:09:088
-2.9315;-13.9576;-7.8814;2.2994;-9.3336;1.941;-2.7436;-1.7491;-1.3218;0.7736;1.8276;-0.8711;0.0;-1.59;40.09;-22.59;258.54;72.13;-49.83;0.0;981.11;48.718;35.953747;-83.93089;850.68;NaN;;4.36;12.226105;60.0;13 / 14;96530;2022-10-14 18:27:09:588
-11.0848;-31.9385;-2.8226;0.1382;-9.7758;-0.7649;-8.4613;-9.0848;-0.1202;-0.0794;-0.4189;0.164;1.0;0.19;42.23;-17.29;335.54;82.69;-148.22;0.0;980.4;49.316;35.95375;-83.93088;849.28;NaN;;4.97;12.226105;84.4;13 / 14;97030;2022-10-14 18:27:10:088
4.9582;-15.0386;5.1425;1.6736;-9.6623;0.0924;-3.9101;-4.1464;-6.8977;-3.4413;-1.3354;1.1246;0.0;-0.32;39.53;-21.02;270.39;69.74;-45.73;0.0;980.97;48.516;35.95375;-83.93088;849.28;NaN;;4.97;12.226105;84.4;13 / 14;97530;2022-10-14 18:27:10:588
0.5638;-12.0724;-0.1759;0.9408;-9.7477;-0.5166;2.9702;7.9495;1.314;0.4972;-0.7907;0.4073;0.0;-2.14;41.98;-14.92;305.41;83.72;-118.77;0.0;980.29;47.198;35.953754;-83.93086;848.24;NaN;;4.64;12.226105;68.2;13 / 14;98031;2022-10-14 18:27:11:089
-4.2784;-15.8022;-9.6745;2.2509;-9.3916;1.7032;-2.5526;-2.9113;-3.4617;-1.8822;-0.8667;0.8261;1.0;-3.94;39.66;-23.83;252.08;73.27;-52.89;0.0;981.16;49.146;35.953754;-83.93086;848.24;NaN;;4.64;12.226105;68.2;13 / 14;98530;2022-10-14 18:27:11:588
-3.9742;-8.9372;4.4375;1.5024;-9.6892;-0.1798;2.6908;7.4562;0.7356;1.8837;-0.28;-0.7933;1.0;-4.58;42.23;-18.17;281.3;81.12;-96.82;0.0;980.27;48.658;35.953766;-83.930855;850.21;NaN;;4.9;12.226105;43.6;13 / 14;99030;2022-10-14 18:27:12:088
-0.1244;-14.173;-3.1627;2.0911;-9.4115;1.7951;-4.5367;-2.6098;-1.5093;-2.3123;-0.9115;0.8538;0.0;-3.81;40.54;-22.03;251.87;71.32;-45.36;0.0;981.05;48.22;35.953766;-83.930855;850.21;NaN;;4.9;12.226105;43.6;13 / 14;99531;2022-10-14 18:27:12:589
2.6934;-12.0541;4.1118;0.8568;-9.7347;-0.8198;0.5662;-2.3405;-5.6578;2.4477;-0.3852;-0.5853;1.0;-3.73;43.05;-12.66;312.78;83.05;-133.74;0.0;980.27;47.989;35.953777;-83.93085;849.68;NaN;;4.43;12.226105;52.0;13 / 14;100030;2022-10-14 18:27:13:088
0.0526;-14.9788;-1.1348;1.9713;-9.4501;1.7261;-3.6353;-2.8333;-1.6191;-2.0442;-0.7849;0.7071;1.0;-2.03;41.66;-16.01;246.99;78.16;-43.61;0.0;980.64;47.378;35.953777;-83.93085;849.68;NaN;;4.43;12.226105;52.0;13 / 14;100530;2022-10-14 18:27:13:588
-6.2007;-9.5273;-3.2118;0.835;-9.726;-0.9368;-7.1682;-6.612;-2.0319;-0.7245;1.8255;-0.1013;1.0;-3.19;42.86;-11.98;320.51;82.65;-138.29;0.0;980.27;49.014;35.953785;-83.93084;848.18;NaN;;4.18;12.226105;52.4;13 / 14;101030;2022-10-14 18:27:14:088
1.963;-13.0609;-4.386;1.5431;-9.6712;0.5066;-5.3455;-3.7347;-5.5273;-3.2222;-1.1138;0.854;0.0;-3.68;39.45;-21.09;248.93;69.01;-38.06;0.0;980.73;47.978;35.953785;-83.93084;848.18;NaN;;4.18;12.226105;52.4;13 / 14;101530;2022-10-14 18:27:14:588
-7.8706;-17.7464;-3.0117;0.584;-9.7785;-0.4582;3.8867;7.173;0.9513;0.4675;-1.1547;0.3483;1.0;-2.31;41.74;-14.63;356.86;74.94;177.69;0.0;980.29;47.755;35.953793;-83.93083;851.11;NaN;;4.54;12.226105;49.7;13 / 14;102030;2022-10-14 18:27:15:088
-0.5327;-16.6427;-3.0655;1.4351;-9.7001;0.1395;-1.9974;-4.4653;-8.3153;-3.4433;-0.5215;1.0231;1.0;-2.36;38.64;-20.53;259.52;69.46;-41.46;0.0;980.48;48.735;35.953793;-83.93083;851.11;NaN;;4.54;12.226105;49.7;13 / 14;102530;2022-10-14 18:27:15:588
2.1918;-11.4197;-2.394;0.6015;-9.652;-1.6273;4.9161;-1.1841;4.3217;-0.4239;0.2097;0.3551;1.0;0.68;43.8;-9.84;348.35;80.26;-154.19;0.0;980.72;48.31;35.9538;-83.930824;850.61;NaN;;4.5;12.226105;49.7;13 / 14;103030;2022-10-14 18:27:16:088
-1.9872;-13.5206;-4.3478;2.1292;-9.3259;2.1598;-3.826;-2.9413;-3.7799;-1.6914;-0.9969;0.6727;0.0;-2.62;40.8;-18.64;253.09;73.11;-43.28;0.0;981.02;48.045;35.9538;-83.930824;850.61;NaN;;4.5;12.226105;49.7;13 / 14;103531;2022-10-14 18:27:16:589
6.6185;-17.8756;2.7628;0.5761;-9.4101;-2.6998;2.1462;8.0063;1.3121;-1.1494;-0.2483;0.3147;1.0;-1.97;42.28;-11.4;346.35;73.54;-162.61;0.0;980.35;47.883;35.953808;-83.93082;850.49;NaN;;4.18;12.226105;55.3;13 / 14;104031;2022-10-14 18:27:17:089
-2.0375;-12.7223;-1.6591;2.3472;-9.1094;2.7714;-0.6309;-0.9601;-1.4542;1.18;-2.0101;-0.035;1.0;-1.82;40.95;-15.92;292.22;77.86;-54.09;0.0;980.58;47.277;35.953808;-83.93082;850.49;NaN;;4.18;12.226105;55.3;13 / 14;104530;2022-10-14 18:27:17:588
2.4514;-1.64;-1.1551;0.7243;-9.13;-3.5056;-0.0901;3.1552;4.7222;1.7489;-0.1487;0.0547;1.0;-2.77;41.44;-11.34;348.07;68.59;-168.33;0.0;980.68;47.095;35.953815;-83.9308;851.54;NaN;;4.5;12.226105;49.3;13 / 14;105030;2022-10-14 18:27:18:088
2.2756;-8.8511;0.4322;1.8837;-9.3053;2.4565;-1.4061;1.0848;-2.0515;1.296;-2.0012;0.268;1.0;0.45;42.6;-9.39;352.29;74.32;-157.14;0.0;980.42;46.997;35.953815;-83.9308;851.54;NaN;;4.5;12.226105;49.3;13 / 14;105531;2022-10-14 18:27:18:589
4.1836;-2.6121;1.9271;0.1074;-8.8566;-4.2095;0.6287;3.5765;5.8598;-1.8835;2.8711;0.6725;0.0;-2.62;40.61;-13.39;353.51;64.57;-178.54;0.0;980.66;47.226;35.953823;-83.93079;851.76;NaN;;4.75;12.226105;46.5;13 / 14;106030;2022-10-14 18:27:19:088
2.6025;-8.5409;0.2285;1.5179;-9.6167;1.1773;-1.7888;0.2289;-6.377;1.3331;-1.2685;0.4105;2.0;1.03;42.66;-10.84;285.54;78.7;-52.2;0.0;980.61;46.203;35.953823;-83.93079;851.76;NaN;;4.75;12.226105;46.5;13 / 14;106530;2022-10-14 18:27:19:588
1.075;-7.0747;-0.2656;-0.0956;-9.3895;-2.8281;-1.8846;-0.1913;2.2944;-0.8503;1.4819;0.8776;1.0;-4.74;38.25;-20.08;334.04;76.16;-157.55;0.0;980.12;47.346;35.95383;-83.930786;854.5;NaN;;5.0;12.226105;45.0;13 / 14;107030;2022-10-14 18:27:20:088
-0.9829;-14.0988;1.9247;1.3509;-9.6815;-0.7837;6.1741;5.2281;-0.1636;2.4696;3.9533;-1.1728;2.0;0.62;43.48;-9.32;329.08;80.84;-120.12;0.0;980.14;46.975;35.95383;-83.930786;854.5;NaN;;5.0;12.226105;45.0;13 / 14;107530;2022-10-14 18:27:20:588
4.3346;-8.9599;-1.8099;0.6063;-9.5424;-2.1784;4.377;-3.8365;5.5151;-1.308;0.5036;0.1402;0.0;-4.89;37.41;-23.36;339.12;76.67;-164.45;0.0;979.9;60.394;35.953842;-83.93077;852.98;NaN;;4.97;12.226105;49.8;13 / 14;108030;2022-10-14 18:27:21:088
-0.6834;-18.4537;12.6601;0.2945;-9.6337;-1.8101;-4.0661;-2.2187;-2.4116;1.1907;0.2824;0.4098;1.0;0.11;44.06;-9.04;355.13;79.22;-170.76;0.0;981.04;47.012;35.953842;-83.93077;852.98;NaN;;4.97;12.226105;49.8;13 / 14;108530;2022-10-14 18:27:21:588
6.8112;-13.1794;4.2413;0.8941;-9.7058;-1.0809;-1.0553;-4.1805;-2.2242;-2.8637;-2.9093;1.1713;1.0;-4.12;38.36;-22.74;319.06;81.78;-140.4;0.0;980.95;48.098;35.95385;-83.93076;852.53;NaN;;5.4;12.226105;79.6;13 / 14;109030;2022-10-14 18:27:22:088
4.7498;-8.2394;1.488;0.5881;-9.6256;-1.781;-2.1845;-8.3447;-8.3016;-1.2997;-0.6399;0.1917;1.0;-1.46;43.11;-12.67;345.92;78.97;-161.73;0.0;979.88;47.461;35.95385;-83.93076;852.53;NaN;;5.4;12.226105;79.6;13 / 14;109530;2022-10-14 18:27:22:588
3.7337;-14.0677;5.0025;0.619;-9.6465;-1.6531;0.9479;-4.0763;-1.9354;-3.308;-0.7868;0.9758;0.0;-0.97;39.68;-20.53;263.21;69.87;-41.71;0.0;980.59;47.012;35.953857;-83.93074;853.04;NaN;;5.29;12.226105;49.7;13 / 14;110031;2022-10-14 18:27:23:089
4.538;-8.7924;3.7397;0.6666;-9.7499;-0.8161;3.4134;-1.1143;4.3961;-0.4462;-0.2886;-0.959;1.0;0.39;43.41;-14.33;321.57;85.48;-132.99;0.0;979.76;50.042;35.953857;-83.93074;853.04;NaN;;5.29;12.226105;49.7;13 / 14;110530;2022-10-14 18:27:23:588
0.1113;-12.8312;-0.7014;1.498;-9.6645;0.7243;-4.6184;-3.9418;-7.6877;-3.412;-0.6076;0.9862;0.0;-2.85;39.32;-24.0;252.66;80.23;-64.2;0.0;980.8;45.726;35.953865;-83.93073;853.08;NaN;;4.75;12.226105;68.7;13 / 14;111030;2022-10-14 18:27:24:088
4.684;-11.2774;0.7528;0.5922;-9.7429;-0.9461;0.9427;-1.932;2.2382;1.0578;0.1091;-0.053;0.0;-2.74;43.95;-14.31;317.87;81.82;-133.11;0.0;980.15;45.453;35.953865;-83.93073;853.08;NaN;;4.75;12.226105;68.7;13 / 14;111530;2022-10-14 18:27:24:588
3.4845;-15.4672;3.5348;1.6598;-9.6306;0.8171;-6.6726;-3.4229;-6.021;-0.6346;-0.7365;0.2247;0.0;-5.38;38.72;-24.86;248.68;79.13;-63.79;0.0;981.05;46.11;35.95387;-83.930725;853.07;NaN;;4.72;12.226105;58.7;13 / 14;112030;2022-10-14 18:27:25:088
6.0607;-2.8561;-2.9518;0.3537;-9.5561;-2.174;-3.8002;-10.3393;-8.8476;-0.8305;-1.0003;0.4691;0.0;-3.58;43.01;-14.7;354.74;68.96;175.02;0.0;979.5;50.69;35.95387;-83.930725;853.07;NaN;;4.72;12.226105;58.7;13 / 14;112530;2022-10-14 18:27:25:588
-1.3358;-14.7512;-1.9199;2.5499;-9.1369;2.4872;-1.8519;-1.3325;-1.3118;-3.0639;-0.4556;1.1361;0.0;-3.71;42.96;-19.28;242.28;75.07;-42.1;0.0;980.5;48.495;35.95388;-83.93072;852.32;NaN;;4.9;12.226105;40.5;13 / 14;113030;2022-10-14 18:27:26:088
-2.2181;-11.1697;7.0376;0.7803;-9.7048;-1.1741;-4.2965;-9.3414;-8.4928;0.3418;0.2741;-0.0507;1.0;-4.61;46.37;-13.27;333.06;80.17;-159.59;0.0;980.56;44.528;35.95388;-83.93072;852.32;NaN;;4.9;12.226105;40.5;13 / 14;113530;2022-10-14 18:27:26:588
1.555;-14.3611;-5.5173;1.0964;-9.7451;0.0254;-5.9681;-5.5586;-3.2292;-3.5775;-1.6785;0.8427;0.0;1.82;43.31;-16.44;291.84;83.58;-88.68;0.0;980.41;49.37;35.953888;-83.93071;853.02;NaN;;4.75;12.226105;52.9;13 / 14;114030;2022-10-14 18:27:27:088
8.0501;-0.3628;-6.7418;0.3972;-9.6172;-1.8766;-6.1233;-11.3694;-9.66;0.2577;0.5243;0.141;0.0;5.19;42.41;-6.41;13.68;78.72;-168.05;0.0;980.36;47.984;35.953888;-83.93071;853.02;NaN;;4.75;12.226105;52.9;13 / 14;114530;2022-10-14 18:27:27:588
-4.9295;-15.4852;-2.1679;2.1554;-9.2427;2.4691;-1.2525;-1.1044;-2.0171;-0.6219;-0.4923;0.3481;0.0;1.65;37.26;-16.31;267.93;75.2;-43.44;0.0;980.38;45.238;35.95389;-83.930695;852.07;NaN;;4.68;12.226105;56.4;14 / 14;115030;2022-10-14 18:27:28:088
-1.1252;-8.6605;-2.1655;0.84;-9.627;-1.669;-4.4756;-11.5653;-9.9625;-1.0426;-0.5978;0.1988;0.0;-3.99;37.56;-18.64;340.18;75.74;-163.2;0.0;981.47;44.518;35.95389;-83.930695;852.07;NaN;;4.68;12.226105;56.4;14 / 14;115530;2022-10-14 18:27:28:588
0.0311;-10.6837;1.7776;2.3605;-9.1734;2.5389;-1.6329;-1.068;-0.7531;0.9415;1.6704;-0.9137;1.0;-4.05;42.73;-18.73;246.75;74.64;-44.11;0.0;980.51;45.261;35.9539;-83.93069;851.44;NaN;;4.39;12.226105;51.9;14 / 14;116030;2022-10-14 18:27:29:088
2.5953;-7.7055;-2.1284;0.3762;-9.6007;-1.9633;2.3699;5.0859;3.0364;-0.7113;1.8157;0.322;0.0;-3.47;44.85;-15.79;346.06;78.24;-169.15;0.0;980.3;45.7;35.9539;-83.93069;851.44;NaN;;4.39;12.226105;51.9;14 / 14;116530;2022-10-14 18:27:29:588
-1.7249;-13.5613;-4.538;1.9012;-9.462;1.7395;-0.1674;0.2163;-5.6169;0.4939;1.9396;-0.7031;0.0;-0.08;45.26;-15.39;280.52;74.77;-47.54;0.0;980.68;43.034;35.953907;-83.93068;850.56;NaN;;4.68;12.226105;51.9;14 / 14;117030;2022-10-14 18:27:30:088
-13.3878;-14.5502;-4.1632;1.516;-9.6833;-0.324;2.6136;7.669;0.9345;1.0598;0.6696;-0.8587;1.0;-1.35;44.18;-14.44;356.94;76.32;-178.85;0.0;980.24;44.437;35.953907;-83.93068;850.56;NaN;;4.68;12.226105;51.9;14 / 14;117530;2022-10-14 18:27:30:588
1.6316;-9.6829;2.0423;2.2805;-9.1948;2.5347;-1.7188;-0.9665;-1.1647;0.9455;0.8709;-0.8966;0.0;1.14;41.74;-16.99;270.05;74.3;-42.81;0.0;980.66;42.82;35.95391;-83.930664;850.77;NaN;;4.61;12.226105;54.0;14 / 14;118030;2022-10-14 18:27:31:088
-6.1361;-28.6944;-16.1483;0.7881;-9.4582;-2.4682;2.3112;5.5502;3.3048;-0.7424;1.1565;0.1068;0.0;0.54;39.79;-17.64;0.26;75.2;-177.22;0.0;980.27;44.878;35.95391;-83.930664;850.77;NaN;;4.61;12.226105;54.0;14 / 14;118530;2022-10-14 18:27:31:588
2.1942;-8.4619;-0.638;2.0571;-9.3369;2.1819;-0.1585;0.9123;-2.8992;1.0261;-2.099;0.0108;1.0;2.85;40.63;-16.39;273.21;79.15;-53.84;0.0;980.39;44.974;35.95392;-83.93066;848.15;NaN;;4.9;12.226105;43.4;14 / 14;119030;2022-10-14 18:27:32:088
4.1213;-4.5236;1.3549;-0.3127;-9.4646;-2.5484;1.7346;2.2253;3.2041;-1.0772;0.8877;0.8112;0.0;-0.51;38.48;-22.89;346.93;80.74;-166.14;0.0;980.61;45.026;35.95392;-83.93066;848.15;NaN;;4.9;12.226105;43.4;14 / 14;119530;2022-10-14 18:27:32:588
1.1228;-8.3136;-0.9661;1.2928;-9.7066;0.5307;-0.8336;-2.2495;4.3651;2.0609;-0.0879;0.2855;1.0;3.94;44.46;-13.52;287.89;81.81;-67.68;0.0;980.13;44.507;35.95393;-83.93064;847.23;NaN;;5.0;12.226105;61.3;14 / 14;120030;2022-10-14 18:27:33:088
0.315;-6.2031;0.0455;-0.5657;-9.6356;-1.7336;4.7829;1.4657;4.3025;-0.4555;0.289;0.9809;0.0;1.65;40.2;-22.63;270.48;72.86;-46.83;0.0;980.63;42.286;35.95393;-83.93064;847.23;NaN;;5.0;12.226105;61.3;14 / 14;120530;2022-10-14 18:27:33:588
0.8186;-8.5995;-1.331;1.1313;-9.7149;0.7149;-0.659;-0.3453;3.0657;2.6271;0.1413;0.3088;2.0;4.76;46.33;-14.63;279.35;82.16;-57.71;0.0;979.85;42.922;35.953938;-83.930626;845.88;NaN;;4.61;12.226105;55.1;14 / 15;121030;2022-10-14 18:27:34:088
-1.2939;-7.1668;0.1507;-0.008;-9.5328;-2.3013;3.7207;0.5252;2.2282;-0.3553;-0.4563;0.8801;0.0;0.83;42.96;-22.76;347.31;80.01;-160.92;0.0;980.47;44.66;35.953938;-83.930626;845.88;NaN;;4.61;12.226105;55.1;14 / 15;121530;2022-10-14 18:27:34:588
2.0937;-10.3723;4.8446;1.3625;-9.5226;-1.9064;2.4032;6.6336;2.9239;0.8282;1.4968;-0.8062;1.0;2.25;46.84;-11.76;346.23;76.18;-144.45;0.0;979.65;43.58;35.95394;-83.93062;845.19;NaN;;4.61;12.226105;59.1;14 / 15;122030;2022-10-14 18:27:35:088
6.5874;-11.3922;1.8529;0.675;-9.5514;-2.1179;3.8465;-4.3102;5.1971;-2.8125;-0.315;1.0095;0.0;-0.97;42.54;-22.67;277.16;79.29;-79.26;0.0;980.09;44.998;35.95394;-83.93062;845.19;NaN;;4.61;12.226105;59.1;14 / 15;122530;2022-10-14 18:27:35:588
6.4977;-5.5675;-1.9092;0.5303;-9.705;-1.3049;-1.8936;-2.4741;0.7682;-0.3474;1.418;-0.9894;1.0;3.34;46.24;-11.98;354.7;81.74;-157.88;0.0;980.49;43.086;35.95395;-83.9306;847.81;NaN;;4.5;12.226105;59.6;14 / 15;123030;2022-10-14 18:27:36:088
4.7943;-14.2017;2.8896;0.6745;-9.7263;-1.0559;0.9457;-4.5762;-1.5734;-2.5285;-0.7218;1.3419;0.0;4.41;42.02;-18.94;285.64;69.17;-42.74;0.0;980.21;43.281;35.95395;-83.9306;847.81;NaN;;4.5;12.226105;59.6;14 / 15;123530;2022-10-14 18:27:36:588
7.1022;-2.5822;-0.6523;0.7553;-9.5832;-1.9395;0.6739;-4.8486;1.3461;-0.9465;0.8992;-0.8596;1.0;5.36;43.8;-12.34;0.79;77.75;-158.72;0.0;981.39;44.236;35.953953;-83.930595;846.83;NaN;;4.61;12.226105;58.1;14 / 15;124030;2022-10-14 18:27:37:088
3.8521;-14.3324;3.05;2.2156;-9.2882;2.2342;-2.2039;-0.3437;-1.0248;-1.2514;-0.9115;0.7715;1.0;3.49;40.05;-18.97;271.54;74.94;-48.61;0.0;980.31;43.419;35.953953;-83.930595;846.83;NaN;;4.61;12.226105;58.1;14 / 15;124531;2022-10-14 18:27:37:589
7.6552;-13.748;4.4231;0.7741;-9.6612;-1.4943;1.5782;-1.8251;2.1145;-1.2497;0.3354;0.4287;1.0;2.74;41.81;-14.14;316.83;83.69;-112.14;0.0;980.34;46.597;35.95396;-83.93057;844.17;NaN;;4.5;12.226105;54.3;14 / 15;125030;2022-10-14 18:27:38:088
-4.8805;-14.9082;-10.1749;2.4237;-9.2601;2.1325;-2.6986;-0.6604;-1.2221;-2.7489;-0.1297;1.1397;0.0;2.49;39.79;-17.74;271.81;75.13;-49.65;0.0;980.78;43.367;35.95396;-83.93057;844.17;NaN;;4.5;12.226105;54.3;14 / 15;125531;2022-10-14 18:27:38:589
-3.4271;-7.247;-3.8139;0.7119;-9.675;-1.4344;-7.3508;-11.7713;-9.9466;0.3888;-0.2345;0.3815;1.0;-1.99;42.23;-15.26;336.14;78.34;-151.01;0.0;980.26;44.396;35.953964;-83.930565;843.95;NaN;;4.21;12.226105;50.6;14 / 15;126030;2022-10-14 18:27:39:088
-5.0611;-15.3532;-14.2244;2.2592;-9.3302;2.0037;-2.4805;-0.8108;-0.8656;-1.2944;-0.9237;0.7193;1.0;-0.86;41.33;-20.1;260.59;77.44;-44.16;0.0;980.53;42.604;35.953964;-83.930565;843.95;NaN;;4.21;12.226105;50.6;14 / 15;126530;2022-10-14 18:27:39:588
-5.2334;-9.5477;-6.0679;0.7563;-9.6331;-1.6741;-6.4537;-11.956;-10.8155;-0.0482;0.1058;0.3442;0.0;-1.82;43.86;-15.36;336.43;78.33;-150.82;0.0;980.48;43.347;35.95397;-83.93056;843.26;NaN;;4.61;12.226105;47.0;14 / 15;127030;2022-10-14 18:27:40:088
-1.5156;-11.5325;-0.0479;1.8205;-9.4542;1.8639;-0.234;1.1863;-3.7759;0.9551;-1.5745;-0.6448;1.0;-0.79;43.48;-17.03;279.98;81.21;-80.86;0.0;980.41;45.838;35.95397;-83.93056;843.26;NaN;;4.61;12.226105;47.0;14 / 15;127530;2022-10-14 18:27:40:588
1.7668;-0.8354;1.1097;0.8686;-9.6063;-1.7705;1.9789;5.0376;2.5868;2.1448;1.0164;-1.1857;1.0;-4.52;43.31;-16.72;330.81;78.4;-153.87;0.0;980.6;46.732;35.95398;-83.93054;843.64;NaN;;4.54;12.226105;50.4;14 / 15;128030;2022-10-14 18:27:41:088
0.37;-10.3941;1.992;2.5042;-9.0601;2.7954;-0.965;0.3816;-1.8968;1.2491;-1.5654;0.1216;1.0;-4.43;45.23;-15.92;245.85;75.82;-40.48;0.0;980.26;46.198;35.95398;-83.93054;843.64;NaN;;4.54;12.226105;50.4;14 / 15;128530;2022-10-14 18:27:41:588
2.5738;-0.3138;1.1216;0.5146;-9.4763;-2.4708;-0.8749;3.442;3.5116;1.7272;0.5821;-0.5357;1.0;-5.85;45.79;-13.46;339.63;75.09;-168.23;0.0;980.49;44.368;35.953987;-83.930534;842.95;NaN;;4.57;12.226105;51.6;14 / 15;129030;2022-10-14 18:27:42:088
-1.1611;-10.6155;-4.3681;2.2859;-9.2851;2.1755;-1.0339;1.2276;-3.2841;0.8154;-2.0059;-0.14;1.0;-3.96;47.93;-9.96;283.4;77.41;-50.2;0.0;980.3;44.175;35.953987;-83.930534;842.95;NaN;;4.57;12.226105;51.6;14 / 15;129530;2022-10-14 18:27:42:588
2.9447;-0.9685;1.142;-0.0143;-9.5074;-2.4039;-1.9917;2.0083;2.5616;2.6308;0.9012;-1.2224;1.0;-3.64;46.74;-12.64;350.77;75.81;179.66;0.0;980.53;41.222;35.95399;-83.93052;844.06;NaN;;4.93;12.226105;75.4;14 / 15;130030;2022-10-14 18:27:43:088
-0.4107;-11.627;-0.7816;2.1369;-9.311;2.2155;-0.7666;1.4129;-4.5097;-0.1907;0.6846;-0.3227;1.0;1.54;48.08;-6.71;315.87;77.9;-44.03;0.0;980.33;43.21;35.95399;-83.93052;844.06;NaN;;4.93;12.226105;75.4;14 / 15;130530;2022-10-14 18:27:43:588
3.3302;-1.1324;1.5239;0.6899;-9.5809;-1.9752;1.8861;8.2326;1.5963;1.2096;0.9127;-1.1367;0.0;1.35;44.68;-12.51;351.33;77.68;-160.75;0.0;980.56;42.7;35.954;-83.93051;844.35;NaN;;4.72;12.226105;56.2;14 / 15;131030;2022-10-14 18:27:44:088
1.5275;-8.6091;-0.6775;2.4942;-9.1758;2.3989;-0.9947;0.6985;-5.8405;1.37;-1.2404;0.111;2.0;2.19;44.03;-12.15;346.52;77.81;-134.86;0.0;980.32;45.378;35.954;-83.93051;844.35;NaN;;4.72;12.226105;56.2;14 / 15;131530;2022-10-14 18:27:44:588
1.5048;-7.2159;-0.8402;1.4563;-9.6792;-0.6025;1.5093;6.3423;1.7502;2.4349;0.4413;-0.9245;1.0;-2.21;41.64;-18.22;303.96;80.75;-112.48;0.0;980.63;43.689;35.954006;-83.9305;842.33;NaN;;4.5;12.226105;46.1;14 / 15;132030;2022-10-14 18:27:45:088
-1.2784;-11.3408;0.0299;2.2366;-9.4152;1.5883;-0.1985;0.4846;-8.1428;0.6199;-1.8573;-0.3471;2.0;-2.06;42.92;-17.31;286.77;79.08;-86.17;0.0;980.3;46.001;35.954006;-83.9305;842.33;NaN;;4.5;12.226105;46.1;14 / 15;132530;2022-10-14 18:27:45:588
-6.0344;-25.2829;-4.8613;1.1424;-9.7391;-0.1242;2.7759;8.644;0.5433;1.5934;0.2276;-0.337;1.0;-4.27;42.17;-17.44;279.17;83.27;-96.2;0.0;980.55;48.396;35.954018;-83.93049;840.95;NaN;;4.79;12.226105;45.7;13 / 15;133030;2022-10-14 18:27:46:088
-3.711;-13.5721;-13.8739;2.4587;-9.168;2.4644;-1.8164;0.647;-0.6291;-0.959;0.6336;-0.1546;1.0;-3.39;42.13;-18.08;271.77;71.24;-49.96;0.0;981.03;45.591;35.954018;-83.93049;840.95;NaN;;4.79;12.226105;45.7;13 / 15;133530;2022-10-14 18:27:46:588
7.1237;-15.1176;4.0675;0.4634;-9.7073;-1.3126;-8.3218;-11.5266;-8.7395;-1.4306;1.4873;0.7512;1.0;-3.26;43.35;-14.96;320.23;81.19;-135.81;0.0;980.27;42.489;35.954025;-83.93048;840.18;NaN;;4.82;12.226105;52.4;14 / 15;134030;2022-10-14 18:27:47:088
-2.2959;-16.4354;-4.1716;2.3887;-9.1525;2.5878;-2.1992;0.4129;-1.3725;-0.4752;0.7755;-0.0793;1.0;-3.26;42.9;-17.91;255.86;75.52;-48.79;0.0;980.95;44.348;35.954025;-83.93048;840.18;NaN;;4.82;12.226105;52.4;14 / 15;134530;2022-10-14 18:27:47:588
-1.6699;-9.2809;-0.3867;0.4033;-9.7318;-1.14;-7.908;-11.5804;-10.3921;-0.8536;0.7353;0.5912;1.0;-0.79;44.27;-13.88;333.96;81.28;-146.23;0.0;980.29;44.142;35.954037;-83.930466;839.38;NaN;;5.54;12.226105;44.5;14 / 15;135030;2022-10-14 18:27:48:088
2.266;-15.539;2.7544;2.4633;-9.0853;2.7495;-1.4219;0.6735;-1.7423;0.5241;1.4728;-0.6896;1.0;1.54;43.89;-13.8;277.86;76.48;-42.18;0.0;980.93;41.924;35.954037;-83.930466;839.38;NaN;;5.54;12.226105;44.5;14 / 15;135530;2022-10-14 18:27:48:588
-2.126;-29.7562;-11.956;1.1089;-9.6536;-1.3225;-3.0E-4;5.9982;-1.6648;-0.6723;0.9793;0.3931;1.0;1.28;41.76;-9.04;341.29;79.86;-140.02;0.0;980.28;45.689;35.95405;-83.93046;838.22;NaN;;5.0;12.226105;52.8;14 / 15;136030;2022-10-14 18:27:49:088
-5.9207;-13.3866;-6.804;2.5591;-9.1753;2.3314;-1.1487;1.1748;-3.0841;1.2168;-2.003;-0.2982;2.0;0.02;40.46;-12.22;282.53;78.11;-59.6;0.0;980.53;52.139;35.95405;-83.93046;838.22;NaN;;5.0;12.226105;52.8;14 / 15;136530;2022-10-14 18:27:49:588
4.398;-0.1759;0.0287;0.4429;-9.6872;-1.4602;3.353;8.9478;0.4672;1.5963;1.3116;-1.2839;1.0;-2.81;38.36;-16.24;339.57;81.05;-163.13;0.0;980.64;54.976;35.954056;-83.93044;838.28;NaN;;4.9;12.377947;52.7;14 / 15;137030;2022-10-14 18:27:50:088
-0.7253;-9.8949;1.8912;2.3684;-9.2;2.4332;-0.2308;0.6412;-6.4783;0.9655;1.5332;-0.5152;2.0;0.28;39.56;-15.0;335.73;76.97;-139.64;0.0;980.27;47.146;35.954056;-83.93044;838.28;NaN;;4.9;12.377947;52.7;14 / 15;137530;2022-10-14 18:27:50:588
2.5798;-1.4785;0.6188;0.3107;-9.4986;-2.4189;2.1423;7.6062;2.0646;0.3338;1.3858;-0.7212;1.0;-2.93;39.45;-16.84;348.67;75.6;-172.68;0.0;980.64;48.43;35.954063;-83.930435;837.87;NaN;;4.97;12.226105;48.6;14 / 15;138031;2022-10-14 18:27:51:089
1.8721;-9.0233;0.4442;1.98;-9.4068;1.9394;-0.9647;1.1615;-3.3185;1.0793;-0.7409;-0.5711;2.0;-0.67;41.96;-15.0;267.73;79.13;-59.1;0.0;980.42;46.904;35.954063;-83.930435;837.87;NaN;;4.97;12.226105;48.6;14 / 15;138530;2022-10-14 18:27:51:588
4.4004;-3.1077;0.9266;0.6758;-9.5627;-2.066;0.1074;3.4803;2.196;-0.8243;1.5583;0.3105;1.0;-2.79;39.11;-21.96;346.15;79.35;-169.68;0.0;980.39;46.558;35.95407;-83.93043;836.91;NaN;;4.79;12.226105;50.9;14 / 15;139030;2022-10-14 18:27:52:088
0.9015;-7.867;-1.3801;1.6979;-9.5116;1.6782;-0.9909;-1.3733;1.3113;0.7761;-2.5269;-0.0103;4.0;1.44;43.97;-13.82;279.87;75.91;-45.33;0.0;980.49;56.854;35.95407;-83.93043;836.91;NaN;;4.79;12.226105;50.9;14 / 15;139530;2022-10-14 18:27:52:588
2.4491;-0.8103;2.0782;-0.0568;-9.4946;-2.4534;0.6392;3.0255;3.1998;-1.0515;-0.1556;0.2582;1.0;-4.56;39.99;-20.78;351.57;75.51;178.67;0.0;980.28;52.704;35.95408;-83.93041;836.97;NaN;;4.82;12.226105;46.4;14 / 15;140030;2022-10-14 18:27:53:088
-0.0431;-10.322;-4.4794;1.7077;-9.6199;0.8436;0.342;-1.8213;5.5865;0.758;-1.189;-0.2966;3.0;-1.82;43.88;-10.2;347.75;75.11;-166.48;0.0;980.39;50.881;35.95408;-83.93041;836.97;NaN;;4.82;12.226105;46.4;14 / 15;140530;2022-10-14 18:27:53:588
0.4908;-5.9662;1.3083;-0.0871;-9.612;-1.9424;3.9348;2.1534;2.3378;-0.4426;0.0105;0.5488;0.0;-8.66;38.72;-19.74;343.71;78.56;177.43;0.0;980.17;51.076;35.954086;-83.9304;834.63;NaN;;4.79;12.226105;52.3;14 / 15;141030;2022-10-14 18:27:54:088
3.2668;-9.198;-3.3601;1.6019;-9.4971;1.8467;-0.7214;1.1426;-2.7237;2.2609;-0.2646;0.4635;3.0;-4.26;42.02;-12.6;253.98;75.56;-40.94;0.0;980.25;47.028;35.954086;-83.9304;834.63;NaN;;4.79;12.226105;52.3;14 / 15;141530;2022-10-14 18:27:54:588
-5.2753;-9.6637;-0.9972;-0.0315;-9.6149;-1.9294;6.0691;0.3914;3.0413;-0.592;0.2632;0.2676;0.0;-5.61;38.63;-20.16;348.29;78.65;179.06;0.0;980.2;46.878;35.95409;-83.93039;833.95;NaN;;4.57;12.226105;52.3;14 / 15;142030;2022-10-14 18:27:55:088
1.8206;-9.288;-2.7903;1.3132;-9.5679;1.7035;-1.0208;-0.1996;-0.8159;2.8033;0.7813;0.2588;3.0;-1.59;42.36;-11.66;333.32;76.76;-142.49;0.0;980.3;44.483;35.95409;-83.93039;833.95;NaN;;4.57;12.226105;52.3;14 / 15;142530;2022-10-14 18:27:55:588
2.8478;-6.603;-2.3234;0.3299;-9.6113;-1.9193;6.4024;-4.6597;4.6552;-0.5006;-0.2311;0.5517;0.0;-3.09;37.99;-20.92;346.6;78.55;-170.25;0.0;980.25;44.314;35.954098;-83.93038;831.89;NaN;;4.64;12.226105;54.0;14 / 15;143030;2022-10-14 18:27:56:088
0.941;-9.3957;0.0251;1.4587;-9.6677;0.7608;-0.8879;-1.5364;3.7641;1.875;1.3951;-0.0693;3.0;-0.62;42.86;-11.55;315.16;81.85;-126.65;0.0;980.28;45.371;35.954098;-83.93038;831.89;NaN;;4.64;12.226105;54.0;14 / 15;143530;2022-10-14 18:27:56:588
-2.8585;-8.4727;0.425;0.561;-9.6523;-1.6399;2.6414;-3.5455;2.9574;-0.8576;-0.8989;0.8387;0.0;-2.29;38.64;-21.6;341.37;79.82;-161.11;0.0;980.11;44.352;35.9541;-83.93037;832.5;NaN;;4.54;12.226105;55.8;14 / 15;144030;2022-10-14 18:27:57:088
2.3725;-8.5696;1.4593;1.0925;-9.7162;0.7565;-0.1265;-2.3356;4.0796;1.6043;0.4681;0.4815;3.0;1.33;43.78;-11.01;344.93;75.82;-145.45;0.0;980.32;46.219;35.9541;-83.93037;832.5;NaN;;4.54;12.226105;55.8;14 / 15;144530;2022-10-14 18:27:57:588
3.4798;-7.7521;-4.1381;0.3154;-9.6128;-1.9142;-0.3584;-3.3942;1.8248;-0.8322;-1.0759;0.3898;1.0;2.19;39.92;-23.38;356.68;78.59;-170.64;0.0;980.1;46.595;35.954105;-83.93036;831.67;NaN;;4.68;12.226105;54.6;14 / 15;145030;2022-10-14 18:27:58:088
1.0905;-10.1115;-4.9702;1.5138;-9.5803;1.4476;2.3892;-0.1674;4.2399;1.6526;-0.7736;0.0475;2.0;2.34;45.45;-12.28;286.2;77.67;-46.28;0.0;980.32;44.238;35.954105;-83.93036;831.67;NaN;;4.68;12.226105;54.6;14 / 15;145531;2022-10-14 18:27:58:589
2.9758;-4.8721;1.5347;-0.3498;-9.605;-1.9471;4.6745;0.3492;1.8314;-0.2645;-0.1135;0.6798;1.0;-0.99;41.12;-19.63;335.69;79.45;-150.01;0.0;980.07;45.085;35.954105;-83.93034;831.81;NaN;;4.79;12.226105;68.8;14 / 15;146030;2022-10-14 18:27:59:088
0.4119;-10.2431;4.9702;1.6246;-9.5617;-1.451;4.4975;4.7884;1.3796;2.7445;0.8045;0.0047;2.0;-0.26;41.59;-9.53;334.76;77.17;-131.77;0.0;980.27;47.502;35.954105;-83.93034;831.81;NaN;;4.79;12.226105;68.8;14 / 15;146530;2022-10-14 18:27:59:588
-1.8697;-8.2645;3.0093;0.5242;-9.5927;-1.9687;6.6905;-3.0059;3.4738;-0.8773;-0.2599;0.5319;1.0;-6.82;38.14;-19.61;293.92;81.1;-118.62;0.0;980.15;46.244;35.954113;-83.930336;834.06;NaN;;4.97;12.226105;53.1;14 / 15;147030;2022-10-14 18:28:00:088
-0.0885;-11.5158;-15.5043;2.2204;-9.377;1.8197;-1.7562;-1.2848;0.2537;3.5018;2.428;-0.3964;2.0;-2.91;42.73;-9.71;331.59;74.76;-137.88;0.0;980.3;45.109;35.954113;-83.930336;834.06;NaN;;4.97;12.226105;53.1;14 / 15;147530;2022-10-14 18:28:00:588
2.5774;-6.1086;-1.8003;0.2665;-9.5233;-2.3252;7.3642;-4.0951;3.4927;-1.0552;-0.9933;0.8341;0.0;-6.54;39.68;-14.38;296.89;79.59;-119.17;0.0;980.17;44.834;35.954117;-83.93032;835.42;NaN;;4.75;12.226105;62.1;14 / 15;148030;2022-10-14 18:28:01:088
-0.1208;-8.9515;-0.8378;1.9493;-9.6053;-0.3313;2.1418;3.2846;0.4946;2.0891;2.3602;-0.3309;2.0;-8.74;39.88;-0.02;247.47;78.37;-99.65;0.0;980.31;50.265;35.954117;-83.93032;835.42;NaN;;4.75;12.226105;62.1;14 / 15;148530;2022-10-14 18:28:01:588
-4.6935;-9.1119;0.3736;0.6748;-9.63;-1.7255;4.9517;2.4259;1.6886;-0.1568;-0.136;0.7255;1.0;-18.13;38.31;-14.94;303.05;79.11;-158.64;0.0;980.15;45.294;35.95412;-83.93031;835.64;NaN;;4.72;12.226105;47.6;14 / 15;149030;2022-10-14 18:28:02:088
0.4944;-9.8207;1.439;1.6539;-9.645;0.6387;4.6874;6.4136;-1.2653;0.9459;2.052;-0.4784;3.0;-10.54;46.11;-10.65;305.66;80.6;-147.71;0.0;980.25;47.217;35.95412;-83.93031;835.64;NaN;;4.72;12.226105;47.6;14 / 15;149530;2022-10-14 18:28:02:588
5.4299;-7.8036;-0.2345;0.415;-9.6759;-1.5414;7.0216;-5.3224;3.7478;-0.2372;-0.5081;0.531;0.0;-7.71;43.56;-20.64;332.3;80.63;-164.93;0.0;980.21;45.293;35.95413;-83.930305;837.31;NaN;;5.0;12.226105;48.6;14 / 15;150030;2022-10-14 18:28:03:088
0.061;-10.625;6.294;1.5071;-9.5963;-1.3453;5.185;4.2424;-0.1968;-0.681;0.2258;-0.6064;2.0;-2.81;47.44;-10.24;282.24;84.41;-104.92;0.0;979.95;45.325;35.95413;-83.930305;837.31;NaN;;5.0;12.226105;48.6;14 / 15;150530;2022-10-14 18:28:03:588
5.2011;-8.45;0.5267;0.997;-9.6059;-1.7039;7.0731;-2.7133;6.693;-1.497;-1.4124;0.6173;0.0;-7.61;42.69;-21.53;255.91;80.79;-78.93;0.0;980.48;44.888;35.954136;-83.93029;838.91;NaN;;4.9;12.226105;46.2;14 / 15;151030;2022-10-14 18:28:04:088
2.9279;-8.5217;4.8171;1.7029;-9.4946;-1.767;2.3175;-1.8753;2.0502;-0.9986;0.937;-1.0353;1.0;-7.01;46.18;-11.61;335.89;76.35;-169.72;0.0;979.8;46.636;35.954136;-83.93029;838.91;NaN;;4.9;12.226105;46.2;14 / 15;151530;2022-10-14 18:28:04:588
13.1578;-14.2866;1.8589;2.3515;-9.4665;-1.013;-4.5633;-5.0796;-4.3094;-1.1575;-3.3833;2.5168;1.0;-12.69;41.03;-20.06;286.17;74.87;-113.31;0.0;980.55;45.952;35.954144;-83.93028;839.55;NaN;;4.79;12.226105;44.7;14 / 15;152030;2022-10-14 18:28:05:088
6.9787;-9.4962;7.5461;1.161;-9.4102;-2.5039;3.214;-3.743;0.456;-0.6079;-1.485;0.7006;2.0;-4.59;46.2;-7.27;319.48;75.86;-116.64;0.0;980.15;49.424;35.954144;-83.93028;839.55;NaN;;4.79;12.226105;44.7;14 / 15;152530;2022-10-14 18:28:05:588
-5.2669;-11.3157;-0.3317;-2.4784;-9.475;0.503;-1.4088;-2.1629;-5.3432;-1.5535;-0.1807;4.3702;1.0;1.99;42.86;-17.81;71.6;75.06;78.53;0.0;980.53;53.476;35.95415;-83.930275;838.32;NaN;;4.57;12.226105;49.0;14 / 15;153030;2022-10-14 18:28:06:088
-3.5396;-14.6997;3.1316;-3.186;-9.2693;-0.3161;-4.099;0.0414;-2.701;0.821;-1.2286;1.6313;441.0;6.45;34.95;-28.14;73.56;70.95;95.67;2.0;980.45;49.455;35.95415;-83.930275;838.32;NaN;;4.57;12.226105;49.0;14 / 15;153530;2022-10-14 18:28:06:588
-1.7967;-4.1381;7.6146;-6.9411;-4.8725;4.9245;-2.2634;-2.7881;-4.7071;-0.1051;-2.8723;2.1841;1233.0;20.34;31.99;-21.28;71.56;47.07;88.97;2.0;980.49;49.128;35.954155;-83.93026;840.3;NaN;;4.57;12.226105;40.5;14 / 15;154030;2022-10-14 18:28:07:088
-2.321;1.0666;9.3909;-2.6281;0.1521;9.4467;0.2593;0.9682;0.3774;-0.3444;-0.0911;-0.4216;1326.0;10.88;7.58;-36.36;8.11;-8.7;19.94;2.0;980.42;49.042;35.954155;-83.93026;840.3;NaN;;4.57;12.226105;40.5;14 / 15;154530;2022-10-14 18:28:07:588
-2.3665;3.4582;9.5656;-1.5563;2.3827;9.3846;0.7566;-0.7276;-0.3105;0.9845;0.1057;0.6796;1324.0;-14.96;0.68;-42.9;63.93;-14.06;9.42;2.0;980.46;47.312;35.95416;-83.930244;841.09;NaN;;4.32;12.226105;59.7;14 / 15;155030;2022-10-14 18:28:08:088
0.8895;5.3904;9.938;-0.9255;3.685;9.0407;0.7583;0.7237;-2.0717;-0.0308;-0.1623;-0.1148;1279.0;-16.48;-7.59;-41.29;70.03;-22.07;5.84;2.0;980.48;46.561;35.95416;-83.930244;841.09;NaN;;4.32;12.226105;59.7;14 / 15;155530;2022-10-14 18:28:08:588
-1.0128;4.4937;8.8702;-0.6915;3.9686;8.941;0.6141;0.7984;-0.902;0.6241;-0.0403;0.061;1283.0;-18.15;-5.91;-40.93;72.97;-18.63;5.83;2.0;980.46;46.333;35.954163;-83.93024;840.04;NaN;;4.28;12.226105;53.5;14 / 15;156030;2022-10-14 18:28:09:088
-0.3652;6.154;8.3303;-0.1741;4.6496;8.6326;0.5966;1.3397;-2.3811;0.207;0.2763;0.2019;1343.0;-20.68;-9.34;-39.62;64.07;-27.48;0.52;2.0;980.45;47.479;35.954163;-83.93024;840.04;NaN;;4.28;12.226105;53.5;14 / 15;156530;2022-10-14 18:28:09:588
-1.762;2.3402;10.8667;-0.9271;2.7705;9.3614;-0.4985;-0.1494;-1.8517;0.1445;0.0515;0.0602;1236.0;-20.57;-5.1;-40.97;76.65;-15.42;4.06;2.0;980.43;44.841;35.954166;-83.93022;840.11;NaN;;4.82;12.226105;52.4;14 / 15;157030;2022-10-14 18:28:10:088
-3.1651;2.4778;7.2015;-5.6125;1.586;7.8838;2.8213;1.0597;-1.3034;-0.7977;2.0148;1.1232;667.0;-12.64;0.53;-43.31;73.66;-12.34;22.7;2.0;980.5;46.879;35.954166;-83.93022;840.11;NaN;;4.82;12.226105;52.4;14 / 15;157530;2022-10-14 18:28:10:588
-1.9813;0.2417;2.4646;-6.0248;4.1381;6.5383;2.0019;-0.7518;-2.9862;1.3435;1.1882;-1.0711;553.0;9.58;8.91;-43.35;41.8;-24.96;42.66;2.0;980.46;47.782;35.95417;-83.930214;839.44;NaN;;4.82;12.226105;48.7;14 / 15;158031;2022-10-14 18:28:11:089
-2.2744;1.0845;1.433;-8.176;1.5885;5.177;2.3143;0.9176;-8.2683;-0.6743;-0.5259;0.3315;81.0;30.83;-0.84;-31.37;88.2;2.11;87.52;0.0;980.49;48.473;35.95417;-83.930214;839.44;NaN;;4.82;12.226105;48.7;14 / 15;158530;2022-10-14 18:28:11:588
-8.9228;-9.1214;-1.4797;-6.758;-6.9591;-1.439;-2.0459;-0.8436;1.893;4.9144;2.9421;-1.9524;262.0;23.18;18.41;-26.83;88.7;45.2;102.02;2.0;980.49;47.615;35.95418;-83.9302;841.05;NaN;;4.72;12.226105;46.7;14 / 15;159030;2022-10-14 18:28:12:088
-1.4557;-1.0857;3.469;-9.4108;0.5004;2.7124;1.7645;-3.0372;0.6896;0.3902;0.4969;3.5347;151.0;12.24;32.03;-25.07;77.73;50.63;51.21;0.0;980.51;48.047;35.95418;-83.9302;841.05;NaN;;4.72;12.226105;46.7;14 / 15;159530;2022-10-14 18:28:12:588
-9.4687;-1.561;-2.217;-8.7089;-4.5047;0.1832;3.4299;-0.6129;3.5325;0.2673;1.4693;-2.3214;43.0;31.71;5.08;-26.03;112.53;27.35;88.79;0.0;980.48;46.385;35.954185;-83.93019;841.71;NaN;;4.54;12.226105;43.3;14 / 15;160030;2022-10-14 18:28:13:088
-4.9893;-4.4638;-0.3245;-7.3294;-6.5039;-0.3871;2.4442;2.7267;1.6889;0.1965;0.9543;-0.0526;6.0;27.17;21.51;-24.0;90.11;42.29;96.17;0.0;980.49;45.425;35.954185;-83.93019;841.71;NaN;;4.54;12.226105;43.3;14 / 15;160530;2022-10-14 18:28:13:588
-9.3993;-6.475;-2.2385;-6.9269;-6.9403;0.1481;0.5541;-1.0164;0.446;-0.2307;0.4051;-1.3839;2.0;27.19;26.38;-22.54;92.76;45.05;88.77;0.0;980.51;48.697;35.954193;-83.93018;842.3;NaN;;4.79;12.226105;41.2;14 / 15;161030;2022-10-14 18:28:14:088
-2.5041;-5.0216;-2.0806;-4.6299;-8.4836;-1.6624;1.1002;2.3197;-1.4315;-0.1829;-1.1424;-1.4263;0.0;25.28;29.66;-21.34;89.75;49.62;95.73;0.0;980.55;47.43;35.954193;-83.93018;842.3;NaN;;4.79;12.226105;41.2;14 / 15;161530;2022-10-14 18:28:14:588
0.2441;-8.8546;-3.0667;-0.2396;-9.7649;0.872;0.6927;0.6599;0.0695;1.9619;1.4182;-0.895;2.0;4.61;39.53;-20.68;64.55;84.44;119.58;0.0;980.32;47.425;35.954197;-83.930176;844.66;NaN;;4.64;12.226105;41.9;14 / 15;162030;2022-10-14 18:28:15:088
3.5922;-1.8494;0.3401;0.1326;-9.7109;-1.3606;1.6592;4.5157;1.7802;-0.139;-0.4907;0.7547;0.0;1.13;38.76;-22.14;357.6;81.99;-174.43;0.0;980.63;45.8;35.954197;-83.930176;844.66;NaN;;4.64;12.226105;41.9;14 / 15;162530;2022-10-14 18:28:15:588
0.9314;-8.0022;-3.2979;2.214;-9.4781;1.1979;-0.4434;-1.0521;-3.7115;0.4208;-1.7679;-0.5925;3.0;0.13;41.61;-19.28;324.35;78.32;-129.69;0.0;980.4;45.161;35.954205;-83.93017;844.46;NaN;;4.75;12.226105;45.2;14 / 15;163030;2022-10-14 18:28:16:088
3.1172;-9.8049;1.6627;1.2759;-9.6856;-0.8556;-1.9958;5.0717;0.4255;0.6091;-0.583;-0.075;1.0;-4.95;38.96;-23.57;330.45;78.04;-153.35;0.0;980.52;46.139;35.954205;-83.93017;844.46;NaN;;4.75;12.226105;45.2;14 / 15;163530;2022-10-14 18:28:16:588
-6.3431;-14.8158;-7.2314;2.5195;-9.3419;1.5973;-3.4698;0.3855;-1.0114;0.9379;0.6696;-0.9239;1.0;-3.45;38.98;-24.82;243.87;74.38;-47.15;0.0;980.72;46.794;35.95421;-83.93016;840.81;NaN;;4.79;12.226105;49.7;14 / 15;164030;2022-10-14 18:28:17:088
-8.8391;-28.8105;-17.5343;1.3015;-9.6233;-1.3673;0.4249;6.6364;2.9967;-0.1026;1.6054;-0.6225;1.0;-5.25;41.53;-21.69;354.2;74.31;177.01;0.0;980.94;47.227;35.95421;-83.93016;840.81;NaN;;4.79;12.226105;49.7;14 / 15;164530;2022-10-14 18:28:17:588
-5.6979;-13.2084;-0.1555;2.4264;-9.2792;2.0444;-1.3658;1.2292;-3.0283;1.508;-1.4503;-0.5347;1.0;-3.24;44.61;-17.21;280.36;71.12;-49.88;0.0;980.45;47.452;35.954212;-83.930145;838.11;NaN;;5.29;12.226105;62.2;14 / 15;165030;2022-10-14 18:28:18:088
3.2321;-1.6232;0.5686;1.2384;-9.7046;-0.6769;-2.925;1.721;1.4825;1.5532;0.9234;-0.6442;1.0;-8.33;42.09;-17.25;290.91;81.73;-118.66;0.0;980.59;45.344;35.954212;-83.930145;838.11;NaN;;5.29;12.226105;62.2;14 / 15;165530;2022-10-14 18:28:18:588
2.0112;-9.5166;2.4802;2.5982;-9.2124;2.1336;-1.5185;2.7376;-3.1382;1.1889;0.2088;0.0957;2.0;-8.31;41.48;-18.13;238.19;74.78;-52.77;0.0;980.48;46.893;35.954216;-83.93013;839.32;NaN;;4.9;12.226105;65.6;14 / 15;166030;2022-10-14 18:28:19:088
-7.9268;-33.3377;-11.3384;1.244;-9.6849;-0.9084;1.3631;7.2116;-0.2033;2.5338;1.2696;-0.9826;0.0;-8.46;40.13;-19.2;344.79;75.68;179.17;0.0;980.54;48.966;35.954216;-83.93013;839.32;NaN;;4.9;12.226105;65.6;14 / 15;166530;2022-10-14 18:28:19:588
0.5327;-9.4137;1.2018;1.984;-9.432;1.8085;-1.0549;1.7093;-6.5461;-0.0773;0.514;-0.7959;2.0;-4.33;41.91;-9.3;305.51;74.11;-47.65;0.0;980.82;47.935;35.95422;-83.93012;840.57;NaN;;5.08;12.226105;68.1;14 / 15;167030;2022-10-14 18:28:20:088
2.642;-1.4725;0.7002;1.4748;-9.6899;-0.3169;1.1722;6.3422;0.8618;-0.0912;1.5498;-0.8327;1.0;-3.02;41.42;-13.86;346.23;83.76;-178.08;0.0;980.58;47.566;35.95422;-83.93012;840.57;NaN;;5.08;12.226105;68.1;14 / 15;167530;2022-10-14 18:28:20:588
-0.0311;-9.2471;-2.9315;2.4521;-9.2779;2.0196;-1.5861;2.5013;-5.7153;2.7295;0.4036;-0.1307;2.0;-2.79;42.49;-14.87;318.82;79.01;-114.27;0.0;980.76;47.898;35.954224;-83.93011;839.27;NaN;;4.97;12.226105;62.3;14 / 15;168030;2022-10-14 18:28:21:088
-9.5189;-16.8437;-7.9603;1.2734;-9.7233;-0.083;1.7451;8.053;1.0188;0.345;-0.2385;0.4968;1.0;-4.59;41.85;-16.84;339.72;78.94;-164.08;0.0;980.51;48.49;35.954224;-83.93011;839.27;NaN;;4.97;12.226105;62.3;14 / 15;168530;2022-10-14 18:28:21:588
-2.4275;-17.5977;-2.837;1.9527;-9.3697;2.1369;-1.3092;1.4196;-7.2662;0.8769;-0.0966;-0.5669;1.0;-2.1;41.96;-17.38;264.96;72.83;-42.42;0.0;980.58;47.131;35.95423;-83.9301;838.94;NaN;;5.15;12.226105;57.2;14 / 15;169030;2022-10-14 18:28:22:088
6.615;-13.8057;-2.0387;1.1653;-9.7352;-0.1972;1.7786;8.3014;1.3207;-0.1095;-0.5701;0.5232;0.0;-1.88;42.9;-15.97;290.04;83.08;-99.61;0.0;981.57;46.871;35.95423;-83.9301;838.94;NaN;;5.15;12.226105;57.2;14 / 15;169530;2022-10-14 18:28:22:588
-1.9235;-15.3066;2.4227;1.6988;-9.6514;0.3674;-2.7693;0.8919;-0.6652;0.7987;0.3496;-0.3771;1.0;-3.47;40.63;-19.65;270.67;79.79;-77.8;0.0;980.68;50.364;35.95424;-83.93008;837.82;NaN;;5.11;12.226105;55.4;14 / 15;170031;2022-10-14 18:28:23:089
6.1505;-8.8247;2.9985;1.0009;-9.5888;-1.7957;0.5222;-2.9694;2.3987;-0.8556;0.4538;-0.3632;1.0;-4.2;42.04;-17.12;356.35;76.51;172.36;0.0;981.16;50.379;35.95424;-83.93008;837.82;NaN;;5.11;12.226105;55.4;14 / 15;170530;2022-10-14 18:28:23:588
9.999;-16.3684;3.0176;0.6385;-9.644;-1.6599;-1.7727;-5.1827;-0.3116;-2.8123;-0.9758;1.3816;1.0;-6.79;39.9;-22.12;329.98;79.55;-158.96;0.0;980.93;44.556;35.954247;-83.93007;837.61;NaN;;4.93;12.226105;42.6;14 / 15;171030;2022-10-14 18:28:24:088
1.8194;-10.6573;1.2664;1.7077;-9.6298;0.7212;2.8804;-0.6524;5.3632;1.5739;1.6779;-0.3467;1.0;-8.16;43.61;-14.51;323.51;77.84;-153.12;0.0;980.18;45.15;35.954247;-83.93007;837.61;NaN;;4.93;12.226105;42.6;14 / 15;171530;2022-10-14 18:28:24:588
2.6408;-6.9093;-0.443;0.2288;-9.6144;-1.9186;7.3248;-5.9639;2.9864;-0.494;-0.8671;0.5519;0.0;-7.63;41.03;-20.79;284.73;81.34;-110.18;0.0;980.19;46.676;35.95426;-83.93006;839.36;NaN;;4.86;12.226105;31.9;14 / 15;172030;2022-10-14 18:28:25:088
1.3298;-9.4292;-0.4406;2.1602;-9.5085;1.0455;-0.6819;-0.7087;-1.4289;0.9606;-1.3505;-0.4787;1.0;-6.32;44.42;-12.19;327.52;72.44;-142.74;0.0;980.48;46.391;35.95426;-83.93006;839.36;NaN;;4.86;12.226105;31.9;14 / 15;172530;2022-10-14 18:28:25:588
-3.5013;-8.7194;-0.7744;0.2386;-9.5369;-2.2716;5.3441;0.5845;2.2268;0.0402;0.0445;0.8776;0.0;-9.23;41.46;-17.81;337.42;76.53;-174.0;0.0;980.91;49.805;35.954273;-83.93005;837.38;NaN;;5.04;12.226105;41.1;14 / 15;173030;2022-10-14 18:28:26:088
1.6232;-9.6206;-3.2692;1.5644;-9.4318;2.1829;-1.1721;1.7395;-2.0299;1.793;-0.989;-0.1652;1.0;-4.22;44.36;-11.55;312.53;82.97;-137.53;0.0;980.58;47.211;35.954273;-83.93005;837.38;NaN;;5.04;12.226105;41.1;14 / 15;173530;2022-10-14 18:28:26:588
3.28;-1.2664;-0.0108;0.4789;-9.6968;-1.3834;-1.4126;3.5162;2.4229;-0.1317;-0.4618;0.2779;0.0;-6.77;39.83;-20.14;329.57;81.41;-160.91;0.0;980.6;47.086;35.95428;-83.93004;839.24;NaN;;5.0;12.226105;40.4;14 / 15;174030;2022-10-14 18:28:27:088
0.8824;-7.4695;0.4059;2.1758;-9.3791;1.8627;-2.3579;2.2255;-7.22;1.1199;-2.3436;-0.1987;1.0;-4.43;43.61;-12.49;316.37;80.27;-136.56;0.0;980.97;45.288;35.95428;-83.93004;839.24;NaN;;5.0;12.226105;40.4;14 / 15;174530;2022-10-14 18:28:27:588
1.7453;-2.1452;1.701;1.3584;-9.6615;-0.9904;1.2431;7.7188;2.4037;1.9123;0.1979;-0.4526;0.0;-4.44;41.98;-16.24;349.98;79.45;-179.53;0.0;980.8;46.503;35.95429;-83.93003;837.36;NaN;;5.29;12.226105;55.2;14 / 15;175030;2022-10-14 18:28:28:088
2.9758;-7.4671;-7.2135;1.8066;-9.3835;2.2037;-2.0278;1.088;-2.4248;1.1968;-2.5712;-0.2017;1.0;-0.64;45.45;-9.15;324.76;78.31;-115.85;0.0;981.0;45.347;35.95429;-83.93003;837.36;NaN;;5.29;12.226105;55.2;14 / 15;175530;2022-10-14 18:28:28:588
2.3186;-4.9008;0.2465;0.0585;-9.5349;-2.2919;-1.8446;1.5005;2.8564;0.6713;1.4795;-0.56;0.0;-6.39;41.04;-18.62;346.92;76.48;-178.54;0.0;980.89;46.767;35.954296;-83.930016;837.07;NaN;;4.97;12.226105;47.2;14 / 15;176031;2022-10-14 18:28:29:089
0.1496;-9.7379;2.1236;1.5584;-9.445;2.1291;-0.9703;-0.2662;0.9735;3.0017;-0.1096;0.0709;1.0;-4.78;42.53;-17.29;233.24;74.39;-36.2;0.0;981.16;50.901;35.954296;-83.930016;837.07;NaN;;4.97;12.226105;47.2;14 / 15;176529;2022-10-14 18:28:29:587
4.3394;-0.4549;1.3561;0.3247;-9.4363;-2.6497;-0.3464;4.1897;3.5287;0.6018;1.6901;-0.6848;1.0;-6.52;41.03;-19.89;340.31;76.77;-171.48;0.0;980.96;48.126;35.954304;-83.93;835.34;NaN;;4.75;12.226105;53.0;14 / 15;177030;2022-10-14 18:28:30:088
1.3167;-9.2219;1.4904;2.564;-9.1332;2.4863;-0.2229;1.6827;-5.8443;2.764;-0.5889;0.2729;1.0;-0.77;43.78;-13.52;264.8;77.24;-43.77;0.0;980.95;48.156;35.954304;-83.93;835.34;NaN;;4.75;12.226105;53.0;14 / 15;177530;2022-10-14 18:28:30:588
1.9813;-4.7581;0.7516;0.143;-9.4713;-2.5386;-2.4901;3.1537;2.7233;-0.4998;1.3444;-0.3533;0.0;-4.07;41.31;-18.19;349.78;74.97;-176.78;0.0;980.96;49.897;35.95431;-83.92999;835.84;NaN;;4.86;12.226105;52.2;14 / 15;178030;2022-10-14 18:28:31:088
3.4199;-7.587;-6.4424;1.5316;-9.4839;1.9696;-1.2068;0.558;-1.7997;0.6195;-1.3567;-0.907;1.0;-2.62;41.42;-18.17;239.61;75.26;-37.87;0.0;981.07;48.188;35.95431;-83.92999;835.84;NaN;;4.86;12.226105;52.2;14 / 15;178530;2022-10-14 18:28:31:588
0.7851;-5.4718;1.0905;0.2344;-9.3902;-2.8179;-2.1492;2.629;3.3526;-0.8567;0.6309;0.8985;0.0;-7.44;38.91;-22.69;332.29;78.35;-160.9;0.0;980.8;48.946;35.954323;-83.92998;836.73;NaN;;5.0;12.226105;44.8;14 / 15;179030;2022-10-14 18:28:32:088
1.0415;-8.7769;-1.3932;1.9093;-9.5707;0.9625;-0.9525;-2.3989;5.5924;1.1783;-1.5052;0.1106;1.0;-4.54;43.44;-13.65;263.7;77.41;-63.25;0.0;980.95;46.86;35.954323;-83.92998;836.73;NaN;;5.0;12.226105;44.8;14 / 15;179530;2022-10-14 18:28:32:588
-3.9491;-9.3335;-1.5443;-0.0479;-9.5096;-2.3947;-0.6641;1.1051;2.6347;-0.7341;1.072;0.6569;0.0;-8.44;39.43;-20.25;345.35;75.86;178.85;0.0;980.58;48.1;35.95433;-83.92997;834.99;NaN;;4.9;12.226105;41.6;14 / 15;180030;2022-10-14 18:28:33:088
0.122;-9.8602;-2.3474;1.71;-9.5773;1.2334;-0.2287;-0.6004;3.0402;1.9161;2.626;-0.4418;1.0;-4.09;43.39;-12.34;324.07;82.16;-155.14;0.0;980.67;49.609;35.95433;-83.92997;834.99;NaN;;4.9;12.226105;41.6;14 / 15;180530;2022-10-14 18:28:33:588
-0.1184;-6.5575;1.3801;0.3475;-9.5517;-2.1942;-1.1218;2.5912;2.3257;-0.4698;-0.3955;0.3463;0.0;-4.61;39.43;-21.79;333.06;81.95;-159.79;0.0;980.55;47.624;35.95434;-83.92996;833.85;NaN;;4.54;12.226105;39.9;14 / 15;181030;2022-10-14 18:28:34:088
2.6922;-11.0405;-3.4642;1.6046;-9.5108;-1.7722;3.2259;6.1537;2.7861;1.9129;1.6599;0.2046;1.0;-1.71;44.44;-13.16;340.26;74.03;-151.51;0.0;980.73;49.096;35.95434;-83.92996;833.85;NaN;;4.54;12.226105;39.9;14 / 15;181530;2022-10-14 18:28:34:588
-2.004;-7.5138;0.0455;0.8159;-9.6513;-1.5353;4.997;-5.4998;3.621;-1.3288;-0.191;-0.0316;0.0;-2.36;40.13;-24.94;334.18;79.79;-152.01;0.0;980.37;47.023;35.95435;-83.929955;835.14;NaN;;4.93;12.226105;52.3;14 / 15;182030;2022-10-14 18:28:35:088
-1.0989;-11.7359;-17.5618;1.7882;-9.583;1.0668;1.0861;-1.8826;3.4673;1.3912;-0.9134;-0.0495;2.0;0.02;46.59;-10.33;300.07;77.74;-59.18;0.0;980.62;47.327;35.95435;-83.929955;835.14;NaN;;4.93;12.226105;52.3;14 / 15;182530;2022-10-14 18:28:35:588
-4.7545;-8.633;-1.0319;0.6217;-9.6627;-1.5543;6.0032;0.1501;2.0326;-0.8582;-0.2997;0.1398;0.0;-1.91;41.16;-21.34;339.24;80.17;-158.2;0.0;980.36;50.824;35.954357;-83.92995;833.86;NaN;;4.68;12.226105;57.3;14 / 15;183030;2022-10-14 18:28:36:088
2.7808;-8.6557;-7.9041;1.5624;-9.6388;0.9065;0.2034;-1.2481;5.1228;2.996;0.3639;0.1369;1.0;0.71;44.01;-13.88;279.23;79.39;-59.88;0.0;980.56;49.38;35.954357;-83.92995;833.86;NaN;;4.68;12.226105;57.3;14 / 15;183530;2022-10-14 18:28:36:588
-1.9092;-7.3475;1.0116;0.7205;-9.6308;-1.7028;-2.5173;2.8307;2.0982;-0.1063;-0.4111;0.2049;0.0;-0.45;40.82;-20.23;345.04;81.19;-160.55;0.0;980.8;51.961;35.95436;-83.92993;831.08;NaN;;4.14;12.226105;62.0;14 / 15;184031;2022-10-14 18:28:37:089
0.3425;-9.6482;-9.8423;1.6529;-9.6063;1.0759;-1.3429;-2.1492;2.3694;1.0307;-1.4393;-0.3735;1.0;0.84;43.41;-13.03;282.43;78.4;-56.94;0.0;981.15;49.973;35.95436;-83.92993;831.08;NaN;;4.14;12.226105;62.0;14 / 15;184530;2022-10-14 18:28:37:588
0.9625;-4.7871;0.6081;-0.0632;-9.6207;-1.8998;4.336;2.2722;4.3532;-0.1338;0.0216;0.6904;0.0;-2.4;40.41;-18.54;357.04;78.82;178.09;0.0;980.81;47.094;35.954365;-83.92992;828.56;NaN;;4.82;12.226105;48.9;14 / 15;185030;2022-10-14 18:28:38:088
1.3825;-7.0472;0.0024;1.8023;-9.5036;1.6138;-2.3139;1.5055;-5.9603;1.0132;-1.5625;-0.2884;1.0;-0.08;43.28;-11.42;354.43;81.56;-171.29;0.0;981.03;45.786;35.954365;-83.92992;828.56;NaN;;4.82;12.226105;48.9;14 / 15;185530;2022-10-14 18:28:38:588
2.764;-3.3386;0.4358;0.4032;-9.6443;-1.7307;-1.012;4.2458;1.7278;-0.2989;0.1704;0.5632;0.0;-4.18;38.68;-20.46;353.39;83.46;176.7;0.0;980.87;50.321;35.95437;-83.9299;828.76;NaN;;4.82;12.226105;55.3;14 / 15;186030;2022-10-14 18:28:39:088
1.0917;-7.1477;-1.325;2.0612;-9.3942;1.9157;-1.5379;1.1718;-5.8887;1.6985;-1.1651;-0.071;2.0;0.66;43.14;-13.44;299.14;81.04;-88.13;0.0;980.93;46.433;35.95437;-83.9299;828.76;NaN;;4.82;12.226105;55.3;14 / 15;186530;2022-10-14 18:28:39:588
1.2054;-4.7871;0.3341;-0.131;-9.6113;-1.9435;2.9435;2.1532;1.4872;-0.5215;0.4381;0.7594;0.0;-4.5;40.09;-20.64;354.87;78.54;176.14;0.0;980.98;48.186;35.954376;-83.92989;828.68;NaN;;4.43;12.226105;54.7;14 / 15;187030;2022-10-14 18:28:40:088
1.2006;-7.8634;-7.2254;1.5567;-9.658;0.6856;1.3588;-2.428;3.2556;0.9905;-1.6913;-0.3232;2.0;-0.43;44.16;-11.94;284.64;80.01;-66.23;0.0;980.69;47.251;35.954376;-83.92989;828.68;NaN;;4.43;12.226105;54.7;14 / 15;187530;2022-10-14 18:28:40:588
2.3821;-6.3431;2.7269;0.0949;-9.6559;-1.7104;6.2654;-5.2693;1.3615;-0.977;0.2401;0.3476;1.0;-6.38;39.21;-21.07;345.23;79.94;-176.82;0.0;980.32;47.142;35.954384;-83.929886;828.59;NaN;;4.82;12.226105;44.8;14 / 15;188031;2022-10-14 18:28:41:089
0.6595;-9.5429;-0.2874;1.481;-9.6941;0.0275;1.9461;-1.2434;5.2111;1.4426;-1.0042;-0.1059;2.0;0.34;43.71;-12.62;296.24;81.31;-88.94;0.0;980.73;49.364;35.954384;-83.929886;828.59;NaN;;4.82;12.226105;44.8;14 / 15;188530;2022-10-14 18:28:41:588
1.1635;-3.827;2.1332;0.0353;-9.5373;-2.2822;2.71;1.8421;2.8574;-0.7849;-0.5672;0.423;0.0;-2.16;39.99;-20.59;334.43;82.9;-154.23;0.0;980.77;49.081;35.95439;-83.92987;823.75;NaN;;5.29;12.226105;59.0;14 / 15;189030;2022-10-14 18:28:42:088
-0.1388;-10.7495;-3.6882;1.9243;-9.4997;1.491;-2.0665;-0.1664;-6.6217;2.0216;-0.0193;-0.2604;2.0;2.78;44.61;-9.56;336.51;79.3;-121.53;0.0;980.77;48.128;35.95439;-83.92987;823.75;NaN;;5.29;12.226105;59.0;14 / 15;189530;2022-10-14 18:28:42:588
-1.203;-6.5551;0.778;0.0302;-9.6191;-1.9085;7.704;-5.3241;2.2965;-0.9529;0.7884;0.2521;0.0;-1.14;40.26;-21.06;357.31;78.78;-179.09;0.0;980.37;47.51;35.954395;-83.92986;821.25;NaN;;4.82;12.226105;48.3;14 / 15;190030;2022-10-14 18:28:43:088
1.3621;-7.436;-1.0678;1.4355;-9.5753;1.5567;-0.0201;-3.5384;1.7282;3.415;0.1658;0.112;2.0;1.74;43.71;-12.41;314.38;85.92;-114.37;0.0;980.57;45.851;35.954395;-83.92986;821.25;NaN;;4.82;12.226105;48.3;14 / 15;190531;2022-10-14 18:28:43:589
-3.0428;-9.1825;-1.5191;0.6415;-9.6369;-1.6997;5.1703;-6.7892;5.6313;-0.7013;-0.1388;0.6678;1.0;-1.86;39.53;-21.58;340.31;79.32;-159.32;0.0;980.64;48.304;35.954403;-83.929855;820.74;NaN;;4.75;12.226105;48.3;14 / 15;191030;2022-10-14 18:28:44:088
0.9553;-10.3869;1.1324;1.4112;-9.704;0.1038;2.1126;1.0349;3.7844;0.1135;0.8016;-0.5219;2.0;2.31;43.97;-10.33;350.35;80.26;-152.15;0.0;980.44;44.29;35.954403;-83.929855;820.74;NaN;;4.75;12.226105;48.3;14 / 15;191530;2022-10-14 18:28:44:588
3.5827;-9.0114;-4.823;0.1743;-9.6754;-1.5893;2.367;-5.6017;4.3892;-0.5731;-0.3606;0.9532;1.0;0.26;39.83;-21.21;355.17;80.62;-173.74;0.0;980.51;44.1;35.95441;-83.92984;819.48;NaN;;4.75;12.226105;53.8;14 / 15;192030;2022-10-14 18:28:45:088
2.1404;-16.4857;4.684;1.564;-9.2495;-2.8585;1.3557;-5.2747;3.1878;-1.02;0.5823;-0.2047;1.0;4.69;44.91;-8.91;348.82;80.48;-131.85;0.0;980.54;43.772;35.95441;-83.92984;819.48;NaN;;4.75;12.226105;53.8;14 / 15;192530;2022-10-14 18:28:45:588
8.2645;-17.3405;3.6906;0.3722;-9.7038;-1.367;0.5738;-5.201;-0.0269;-1.5311;-1.9251;0.4163;1.0;9.43;41.36;-15.39;288.75;73.65;-38.09;0.0;981.05;44.979;35.95442;-83.92983;817.87;NaN;;4.86;12.226105;55.3;14 / 15;193030;2022-10-14 18:28:46:088
5.8666;-14.6184;6.4496;1.1432;-9.738;0.1883;3.0794;-0.3525;4.6979;-0.0154;1.1036;-0.2669;2.0;3.75;42.62;-15.62;345.53;82.2;-146.54;0.0;980.53;44.88;35.95442;-83.92983;817.87;NaN;;4.86;12.226105;55.3;14 / 15;193530;2022-10-14 18:28:46:588
8.3363;-16.7372;5.2633;0.1081;-9.7332;-1.1932;-1.1655;-5.5233;3.4042;-1.7351;-0.6102;0.1537;1.0;1.91;40.09;-22.18;0.01;82.98;-174.82;0.0;980.65;44.512;35.954426;-83.929825;817.31;NaN;;4.61;12.226105;64.8;14 / 15;194030;2022-10-14 18:28:47:088
1.1539;-10.1533;2.5208;1.7496;-9.3549;-2.3653;0.5391;0.8599;5.5207;-0.072;1.1185;-0.3712;2.0;2.96;44.74;-10.72;321.79;79.16;-115.27;0.0;980.54;43.065;35.954426;-83.929825;817.31;NaN;;4.61;12.226105;64.8;14 / 15;194530;2022-10-14 18:28:47:588
-0.9147;-6.7573;0.5518;0.6623;-9.5458;-2.1469;-0.0545;-5.3766;4.2409;-0.0097;-0.8594;0.8609;0.0;1.11;41.74;-19.39;350.44;76.76;-162.86;0.0;980.42;44.727;35.95443;-83.92981;816.35;NaN;;4.72;12.226105;72.5;14 / 15;195030;2022-10-14 18:28:48:088
2.4287;-11.6653;2.4598;1.5609;-9.6814;0.0663;3.7508;-0.3314;4.9921;0.6499;1.5293;-0.5992;2.0;3.17;45.23;-11.96;355.34;78.72;-158.08;0.0;980.68;45.231;35.95443;-83.92981;816.35;NaN;;4.72;12.226105;72.5;14 / 15;195530;2022-10-14 18:28:48:588
-0.1172;-4.7318;0.9111;0.6158;-9.6116;-1.8462;7.1204;-1.0536;3.3656;0.1039;-1.0043;0.2792;0.0;1.28;41.72;-20.21;348.83;78.55;-161.55;0.0;980.89;47.373;35.954433;-83.929794;816.08;NaN;;4.72;12.226105;68.8;14 / 15;196030;2022-10-14 18:28:49:088
2.5077;-6.4173;-7.605;1.8757;-9.4889;1.6164;-0.2712;0.5419;-1.4825;0.888;-1.7918;-0.3052;1.0;0.39;43.67;-15.34;278.19;75.38;-49.25;0.0;980.86;48.315;35.954433;-83.929794;816.08;NaN;;4.72;12.226105;68.8;14 / 15;196530;2022-10-14 18:28:49:588
0.7361;-4.3525;1.3406;0.466;-9.7238;-1.1836;6.1136;1.0145;1.6473;-0.1632;-0.211;0.2458;0.0;-2.19;40.07;-22.86;319.43;82.72;-136.39;0.0;980.85;45.133;35.95444;-83.92979;817.6;NaN;;4.79;12.313755;59.1;14 / 15;197030;2022-10-14 18:28:50:088
2.5977;-9.1406;-2.5714;1.736;-9.5103;1.6464;0.1777;0.728;-1.5087;0.9496;-1.1201;-0.632;1.0;0.34;43.52;-15.11;329.25;77.91;-131.4;0.0;981.19;47.919;35.95444;-83.92979;817.6;NaN;;4.79;12.313755;59.1;14 / 15;197531;2022-10-14 18:28:50:589
-0.0933;-6.2761;0.1699;0.9124;-9.585;-1.8617;4.9011;1.801;2.8147;0.2215;-0.3267;0.637;0.0;-2.21;41.19;-20.03;337.32;77.79;-153.89;0.0;980.96;47.042;35.954445;-83.92977;815.37;NaN;;4.79;12.692417;63.4;14 / 15;198030;2022-10-14 18:28:51:088
1.6424;-7.3654;-0.9135;1.746;-9.5176;1.5928;-0.5387;0.4404;-2.1398;0.5775;-2.2746;-0.1217;1.0;-0.17;44.01;-14.4;330.38;77.4;-131.04;0.0;981.42;44.056;35.954445;-83.92977;815.37;NaN;;4.79;12.692417;63.4;14 / 15;198530;2022-10-14 18:28:51:588
2.1057;-4.4614;0.3114;1.6863;-9.587;-1.1902;0.3834;5.9971;1.8523;2.0387;1.05;-1.3502;0.0;-1.03;40.33;-21.47;343.04;77.39;-159.18;0.0;981.21;44.006;35.954453;-83.92975;812.58;NaN;;4.82;13.122223;60.3;14 / 15;199030;2022-10-14 18:28:52:088
2.6372;-9.4962;-8.3279;2.1286;-9.4476;1.5438;-1.5006;-0.1635;-3.0857;0.6856;-1.3458;-0.3082;1.0;-1.95;42.64;-18.06;269.1;74.45;-54.05;0.0;981.07;46.19;35.954453;-83.92975;812.58;NaN;;4.82;13.122223;60.3;14 / 15;199530;2022-10-14 18:28:52:588
3.2285;0.6739;2.0459;0.5204;-9.5906;-1.9799;-1.0011;3.9877;2.8906;0.5411;1.9183;-0.7116;1.0;-3.96;39.26;-24.49;334.5;80.16;-157.5;0.0;981.11;45.48;35.95446;-83.92974;811.14;NaN;;4.82;12.669621;56.2;14 / 15;200030;2022-10-14 18:28:53:088
0.2177;-8.3818;2.3689;2.1927;-9.507;0.9894;-0.1193;-2.5327;1.7461;0.9041;-0.5375;-0.1226;1.0;-0.47;44.81;-15.51;344.11;71.14;-150.45;0.0;980.92;46.181;35.95446;-83.92974;811.14;NaN;;4.82;12.669621;56.2;14 / 15;200530;2022-10-14 18:28:53:588
3.2608;-0.5267;1.0391;0.5505;-9.6173;-1.837;-2.5936;2.8283;2.5975;-0.2969;1.8706;-0.5301;1.0;-2.25;41.66;-23.19;338.06;81.12;-157.24;0.0;980.93;43.267;35.954468;-83.929726;811.61;NaN;;4.82;12.516675;60.8;14 / 15;201030;2022-10-14 18:28:54:088
1.5347;-8.5899;-8.0142;1.8522;-9.4669;1.7657;-1.8448;-0.455;2.6321;0.6265;-2.0148;-0.0948;1.0;1.18;46.74;-13.09;345.76;77.48;-150.59;0.0;981.24;45.65;35.954468;-83.929726;811.61;NaN;;4.82;12.516675;60.8;14 / 15;201530;2022-10-14 18:28:54:588
0.9757;-4.7378;0.1974;-0.032;-9.5739;-2.1235;-3.602;1.8851;1.9566;-0.6622;1.4416;0.0879;0.0;2.57;43.16;-16.72;7.18;77.49;179.14;0.0;981.11;46.457;35.95448;-83.92972;814.16;NaN;;4.82;12.935351;68.2;14 / 15;202030;2022-10-14 18:28:55:088
2.1093;-8.56;-0.0981;1.428;-9.4013;2.3972;-0.9244;0.5874;-5.8938;2.1856;-1.5076;0.3234;1.0;6.38;44.51;-10.22;350.17;78.22;-131.68;0.0;981.17;45.962;35.95448;-83.92972;814.16;NaN;;4.82;12.935351;68.2;14 / 15;202532;2022-10-14 18:28:55:590
3.5659;-2.5786;1.6783;0.0649;-9.6412;-1.7928;3.0806;3.3667;1.0362;-0.2067;1.7334;-0.4385;0.0;0.13;39.24;-21.0;358.43;79.46;-177.93;0.0;981.03;43.818;35.954483;-83.92971;814.4;NaN;;4.79;12.713897;67.3;14 / 15;203030;2022-10-14 18:28:56:088
1.4498;-7.9017;-4.2317;2.1499;-9.387;1.8525;-1.6159;0.4566;-2.8573;2.9373;-0.0088;0.0689;1.0;-0.06;42.62;-16.22;314.89;78.02;-111.99;0.0;981.08;45.434;35.954483;-83.92971;814.4;NaN;;4.79;12.713897;67.3;14 / 15;203530;2022-10-14 18:28:56:588
-3.1029;-9.0006;-0.1184;0.8707;-9.5322;-2.133;-0.5903;3.4241;2.9428;-0.3805;-0.389;0.5073;0.0;-5.38;38.44;-24.92;336.3;78.22;-161.0;0.0;980.93;46.9;35.95449;-83.929695;816.23;NaN;;4.79;12.673355;79.4;14 / 15;204030;2022-10-14 18:28:57:088
1.6723;-8.621;-4.2915;1.8357;-9.5406;1.3331;-2.4427;0.162;0.5802;1.4456;-0.5086;0.2;1.0;-1.18;44.33;-15.84;297.54;77.94;-90.48;0.0;981.05;47.279;35.95449;-83.929695;816.23;NaN;;4.79;12.673355;79.4;14 / 15;204530;2022-10-14 18:28:57:588
-5.2322;-9.7116;-0.7588;0.4022;-9.599;-1.9668;5.9001;1.5007;4.1809;-0.2641;-0.7842;1.0145;0.0;-2.98;40.91;-22.33;345.74;78.19;-168.44;0.0;980.68;42.577;35.9545;-83.92969;817.47;NaN;;5.08;12.8794;55.9;14 / 15;205030;2022-10-14 18:28:58:088
2.217;-8.5923;-2.9818;1.9889;-9.6014;0.1678;0.2273;-0.9286;4.9293;1.2696;-1.2344;0.2933;1.0;1.43;43.54;-14.12;302.03;78.26;-85.18;0.0;980.69;46.36;35.9545;-83.92969;817.47;NaN;;5.08;12.8794;55.9;14 / 15;205530;2022-10-14 18:28:58:588
4.0735;-7.2434;0.6799;0.1742;-9.4932;-2.4534;4.4707;2.0768;3.5484;-0.8679;0.0046;-0.1167;0.0;-1.14;38.93;-22.33;338.95;79.97;-155.47;0.0;980.64;45.415;35.95451;-83.92967;817.43;NaN;;4.72;13.252057;73.4;13 / 15;206030;2022-10-14 18:28:59:088
0.2934;-3.3505;2.5834;0.7163;-9.2633;-3.1382;2.8227;4.8087;0.1668;0.9108;-0.6344;-1.2356;1.0;4.11;45.39;-4.12;8.87;70.84;-167.14;0.0;980.59;46.593;35.95451;-83.92967;817.43;NaN;;4.72;13.252057;73.4;13 / 15;206531;2022-10-14 18:28:59:589
-0.122;-16.8293;0.0538;1.5726;-9.6777;0.1986;-6.1114;-3.6919;-8.8441;-1.5846;-1.3946;1.0487;1.0;2.76;39.23;-17.94;290.2;69.23;-53.04;0.0;980.95;44.838;35.954517;-83.929665;815.44;NaN;;4.61;14.283648;62.3;14 / 15;207030;2022-10-14 18:29:00:088
12.1095;-24.4738;3.518;0.4868;-9.5961;-1.9617;-5.8092;-11.7135;-10.7136;-1.8321;-0.2215;0.9887;1.0;1.13;40.09;-18.9;358.4;77.53;-174.7;0.0;981.53;45.612;35.954517;-83.929665;815.44;NaN;;4.61;14.283648;62.3;14 / 15;207530;2022-10-14 18:29:00:588
-1.7704;-13.1988;-18.5913;1.8722;-9.5767;0.9761;-4.333;-3.9615;-8.0239;-2.8413;-0.878;1.2502;1.0;2.91;39.68;-19.26;292.36;66.85;-50.88;0.0;980.85;45.597;35.95452;-83.92965;816.18;NaN;;5.04;14.502307;82.4;14 / 15;208030;2022-10-14 18:29:01:088
1.1731;-4.5835;1.2832;1.4149;-9.7034;-0.1115;1.188;9.0576;2.1216;1.2008;1.6706;-0.9105;1.0;-0.15;40.26;-19.48;290.99;81.68;-94.5;0.0;981.95;47.545;35.95452;-83.92965;816.18;NaN;;5.04;14.502307;82.4;14 / 15;208530;2022-10-14 18:29:01:588
-4.8984;-14.8433;-6.2294;2.4825;-9.2575;2.0751;-3.6983;1.1346;-1.9542;0.6848;1.7165;-0.8716;1.0;1.74;41.16;-19.59;279.78;70.74;-50.11;0.0;980.86;43.44;35.95453;-83.929634;815.96;NaN;;5.76;14.793538;67.7;14 / 15;209031;2022-10-14 18:29:02:089
-10.2108;-21.8127;-9.1023;1.2419;-9.7237;-0.2787;1.2117;7.3927;1.4874;-0.2567;-0.2875;0.8531;0.0;0.15;40.93;-20.33;351.79;77.07;-168.24;0.0;981.55;44.632;35.95453;-83.929634;815.96;NaN;;5.76;14.793538;67.7;14 / 15;209530;2022-10-14 18:29:02:588
-0.4071;-9.6458;1.4521;2.3722;-9.4084;1.4233;-0.8561;1.5159;-8.5712;0.6974;-1.7258;-0.6037;1.0;1.91;43.18;-17.85;286.55;73.61;-59.04;0.0;981.05;44.278;35.954536;-83.92962;819.93;NaN;;5.4;15.784571;72.8;14 / 15;210030;2022-10-14 18:29:03:088
0.0395;-21.6452;-3.4953;1.5529;-9.6708;-0.4837;1.8361;6.8923;1.3198;1.7724;1.763;-1.1695;1.0;-0.09;42.45;-18.68;304.65;80.45;-107.3;0.0;980.93;44.838;35.954536;-83.92962;819.93;NaN;;5.4;15.784571;72.8;14 / 15;210531;2022-10-14 18:29:03:589
0.079;-8.7781;2.3163;2.6751;-9.1226;2.4067;-2.7977;0.7729;-0.7762;0.31;-1.5958;-0.8169;1.0;1.61;42.51;-18.22;292.05;68.47;-48.02;0.0;981.44;45.704;35.954544;-83.92961;817.56;NaN;;4.64;16.29861;61.3;14 / 15;211030;2022-10-14 18:29:04:088
3.6643;-2.4849;1.0355;1.6827;-9.6605;-0.1133;1.651;6.9892;1.0966;0.2034;1.1867;-0.7045;0.0;-0.21;41.74;-19.87;354.92;80.89;-173.3;0.0;981.02;43.609;35.954544;-83.92961;817.56;NaN;;4.64;16.29861;61.3;14 / 15;211530;2022-10-14 18:29:04:588
-1.9116;-8.6306;0.443;1.615;-9.3461;2.4924;-0.4578;0.7658;-2.0089;0.2276;-1.477;-0.6326;1.0;2.33;41.91;-18.81;263.16;72.37;-32.94;0.0;980.96;46.637;35.95455;-83.9296;816.18;NaN;;4.54;16.584436;49.8;14 / 15;212030;2022-10-14 18:29:05:088
1.8147;-3.6066;1.0822;1.169;-9.5761;-1.7612;-0.9835;4.6653;3.1028;-0.5386;1.3173;-0.1842;1.0;0.19;40.39;-21.47;336.04;83.0;-148.43;0.0;981.01;46.468;35.95455;-83.9296;816.18;NaN;;4.54;16.584436;49.8;14 / 15;212530;2022-10-14 18:29:05:588
0.6799;-6.6616;-9.3646;2.6186;-9.1148;2.4968;-2.4701;0.6156;-3.881;0.5198;-2.5152;-0.4683;2.0;1.88;42.77;-16.01;276.81;73.58;-38.73;0.0;980.96;48.385;35.95456;-83.92959;815.81;NaN;;3.74;15.638328;48.5;14 / 15;213030;2022-10-14 18:29:06:088
3.0957;-1.8446;1.1432;0.879;-9.5997;-1.8012;0.1927;3.4386;2.1301;-0.1665;0.514;0.1742;0.0;0.23;40.26;-20.42;347.87;79.09;-163.73;0.0;980.99;49.102;35.95456;-83.92959;815.81;NaN;;3.74;15.638328;48.5;14 / 15;213530;2022-10-14 18:29:06:588
0.4621;-7.9711;1.9522;2.72;-9.0689;2.5547;-2.0025;0.5622;-9.2622;0.4396;-2.0516;-0.3781;2.0;1.88;41.94;-16.14;284.99;72.26;-45.26;0.0;981.04;49.343;35.954563;-83.92958;817.22;NaN;;4.5;14.187104;68.1;14 / 15;214031;2022-10-14 18:29:07:089
2.2552;-9.2315;1.2772;0.1473;-9.5812;-2.0853;0.0625;3.0563;1.5803;0.42;1.3936;-0.8976;0.0;-1.54;40.65;-19.54;353.09;77.69;-175.96;0.0;981.02;50.849;35.954563;-83.92958;817.22;NaN;;4.5;14.187104;68.1;14 / 15;214530;2022-10-14 18:29:07:588
-0.1783;-9.8554;1.3645;2.8571;-9.2004;1.833;-1.2466;0.1881;-3.7578;0.5448;-0.0798;-0.5724;2.0;1.14;43.13;-15.79;275.62;75.98;-50.42;0.0;981.07;51.57;35.954567;-83.929565;818.96;NaN;;4.36;14.369871;69.2;14 / 15;215030;2022-10-14 18:29:08:088
3.8067;-1.7393;0.7433;0.6619;-9.5131;-2.2878;-2.5767;2.0409;1.0055;-0.1052;1.2503;-0.1903;1.0;-2.21;39.98;-21.09;344.77;77.34;-164.29;0.0;980.92;50.961;35.954567;-83.929565;818.96;NaN;;4.36;14.369871;69.2;14 / 15;215530;2022-10-14 18:29:08:588
-0.4274;-8.8463;1.069;2.5826;-9.2742;1.8681;-1.668;1.3406;-8.2831;0.7488;-0.5215;-0.7371;2.0;0.23;41.25;-18.79;280.29;71.03;-54.12;0.0;981.13;53.106;35.954575;-83.92956;817.91;NaN;;4.32;13.446883;64.9;14 / 15;216031;2022-10-14 18:29:09:089
2.254;0.2512;1.4833;1.2583;-9.53;-1.9409;-0.2551;5.0821;3.1447;-0.6085;1.2257;0.0798;1.0;-1.93;39.83;-21.53;333.95;81.18;-152.65;0.0;980.96;54.719;35.954575;-83.92956;817.91;NaN;;4.32;13.446883;64.9;14 / 15;216530;2022-10-14 18:29:09:588
0.6272;-7.7725;-0.055;2.8202;-9.1919;1.93;-2.3506;1.8595;-1.9658;1.1093;-0.2636;-0.6359;2.0;1.37;42.24;-12.99;295.69;75.38;-63.22;0.0;981.46;57.384;35.954582;-83.92955;819.16;NaN;;4.32;12.929344;66.8;14 / 15;217030;2022-10-14 18:29:10:088
-12.3954;-16.2918;-8.1808;1.4701;-9.6588;-0.8467;1.3849;8.7291;1.9866;0.1726;-0.9748;0.6734;1.0;-1.09;41.4;-14.85;315.24;80.04;-119.94;0.0;980.91;58.024;35.954582;-83.92955;819.16;NaN;;4.32;12.929344;66.8;14 / 15;217530;2022-10-14 18:29:10:588
-2.9925;-10.8057;-7.0807;2.3452;-9.325;1.9275;0.3564;2.2015;-7.5376;0.3373;-0.378;-0.8579;1.0;0.02;41.1;-17.96;277.47;71.97;-50.58;0.0;981.47;56.359;35.954594;-83.929535;815.98;NaN;;4.43;13.825675;62.5;14 / 15;218031;2022-10-14 18:29:11:089
1.6017;-12.1717;2.4945;1.3913;-9.6396;-1.1457;1.5268;8.9904;2.6337;0.0673;-1.4701;0.4855;1.0;-2.03;42.98;-14.42;321.4;79.41;-129.47;0.0;980.96;56.23;35.954594;-83.929535;815.98;NaN;;4.43;13.825675;62.5;14 / 15;218530;2022-10-14 18:29:11:588
-1.6675;-9.7176;2.1153;3.0586;-9.1138;1.9378;-3.7301;-1.1483;-0.9947;0.0852;-0.3801;-1.1133;1.0;-5.08;40.29;-19.65;273.6;68.33;-57.64;0.0;981.57;49.073;35.954605;-83.92953;813.77;NaN;;4.46;13.389749;60.8;14 / 15;219030;2022-10-14 18:29:12:088
-11.7395;-23.2935;-9.9356;1.5568;-9.6798;0.2177;1.7251;7.4992;0.1151;0.5074;0.1131;0.0918;1.0;-3.3;42.32;-15.22;276.91;80.78;-82.04;0.0;981.25;62.539;35.954605;-83.92953;813.77;NaN;;4.46;13.389749;60.8;14 / 15;219530;2022-10-14 18:29:12:588
1.0941;-15.3951;2.2887;2.3762;-9.2397;2.2699;-3.6582;0.7103;-4.5954;-2.7423;-0.8609;1.4337;1.0;-2.12;40.59;-20.34;267.2;70.42;-46.31;0.0;981.69;47.308;35.954613;-83.92952;814.19;NaN;;4.39;13.208931;42.4;14 / 15;220030;2022-10-14 18:29:13:088
4.7931;-14.5872;5.5029;1.0977;-9.558;-1.9002;-4.9638;-9.8481;-13.495;-1.0839;0.1038;0.6041;0.0;-0.88;40.93;-19.16;310.94;79.39;-116.82;0.0;982.18;47.721;35.954613;-83.92952;814.19;NaN;;4.39;13.208931;42.4;14 / 15;220530;2022-10-14 18:29:13:588
1.6196;-16.2045;3.2847;2.1207;-9.4894;1.2747;-3.0342;1.4212;-1.5624;-2.7955;-1.0391;1.3119;1.0;1.84;41.18;-17.46;282.75;75.39;-58.99;0.0;981.03;52.214;35.954624;-83.92951;814.5;NaN;;4.64;13.379725;42.5;14 / 15;221030;2022-10-14 18:29:14:088
5.3976;-11.1015;2.5343;0.7506;-9.6412;-1.629;-4.692;-6.861;-13.3815;-0.5014;-0.4232;0.5333;1.0;1.33;42.13;-15.28;357.94;77.07;-173.76;0.0;981.67;53.018;35.954624;-83.92951;814.5;NaN;;4.64;13.379725;42.5;14 / 15;221530;2022-10-14 18:29:14:588
1.6472;-13.3196;-5.2131;2.0569;-9.5516;0.841;-3.4876;-0.0786;-2.0094;-2.9102;-0.972;0.6506;1.0;2.72;40.93;-18.47;282.78;70.53;-43.49;0.0;981.0;53.333;35.95463;-83.929504;812.79;NaN;;4.54;13.174457;46.3;14 / 15;222030;2022-10-14 18:29:15:088
-5.6249;-10.2945;-4.3741;1.6646;-9.6618;-0.2198;2.0755;8.168;1.0164;1.9838;1.2273;-0.9367;0.0;0.73;43.35;-14.21;306.42;80.14;-97.52;0.0;982.09;54.803;35.95463;-83.929504;812.79;NaN;;4.54;13.174457;46.3;14 / 15;222530;2022-10-14 18:29:15:588
0.146;-16.8556;-2.1535;2.3937;-9.2392;2.2534;-2.9946;0.8802;-1.3835;-0.7788;0.2423;0.0521;1.0;2.03;40.48;-19.74;276.68;70.41;-46.73;0.0;981.13;54.642;35.95464;-83.9295;812.61;NaN;;4.61;13.326234;53.6;14 / 15;223031;2022-10-14 18:29:16:089
-2.9554;-11.0991;-4.6648;0.895;-9.6508;-1.4937;-4.3434;-9.4176;-11.4112;0.3065;0.0877;0.4687;1.0;0.38;42.24;-16.69;334.09;77.24;-140.79;0.0;981.87;58.07;35.95464;-83.9295;812.61;NaN;;4.61;13.326234;53.6;14 / 15;223530;2022-10-14 18:29:16:588
-1.2449;-9.3431;-0.2225;2.4899;-9.1764;2.4011;-2.2089;0.8471;-3.1709;-1.4489;-0.0908;0.8704;1.0;1.65;41.74;-18.75;284.23;69.35;-46.04;0.0;981.4;55.825;35.954647;-83.92948;813.82;NaN;;5.0;12.996152;68.7;14 / 15;224030;2022-10-14 18:29:17:088
-8.5421;-23.6357;-9.4173;1.3009;-9.7018;-0.5943;0.662;4.6546;0.8531;2.5858;1.2473;-1.2351;1.0;-1.16;42.3;-18.02;351.23;76.36;-169.84;0.0;981.16;55.672;35.954647;-83.92948;813.82;NaN;;5.0;12.996152;68.7;14 / 15;224530;2022-10-14 18:29:17:588
-5.0719;-10.7686;-4.8912;1.687;-9.6474;-0.5016;-5.7691;-3.3546;-6.2605;-1.5227;-0.3007;0.7855;0.0;-2.23;42.73;-18.21;289.16;68.88;-57.5;0.0;981.03;55.379;35.954655;-83.929474;813.34;NaN;;4.5;12.556501;67.9;14 / 15;225030;2022-10-14 18:29:18:088
-4.9319;-8.7745;-3.5492;1.5563;-9.6823;0.0246;1.2055;6.5882;0.7426;2.6749;1.1575;-1.1025;1.0;-4.99;42.53;-18.26;334.07;76.03;-156.12;0.0;982.1;55.088;35.954655;-83.929474;813.34;NaN;;4.5;12.556501;67.9;14 / 15;225530;2022-10-14 18:29:18:588
5.5998;-15.4011;-2.7449;2.5697;-9.3171;1.6608;-3.7095;0.557;0.0276;-1.8405;-0.4781;1.0457;1.0;-1.93;42.21;-20.33;274.35;71.82;-57.13;0.0;981.02;54.691;35.95466;-83.92947;813.48;NaN;;4.68;12.25796;52.6;14 / 15;226030;2022-10-14 18:29:19:088
5.5304;-5.6489;1.5024;0.8093;-9.5229;-2.1978;-3.5335;-5.0331;0.5333;-1.2723;0.3124;0.9822;1.0;-5.02;43.01;-17.34;320.97;80.04;-142.54;0.0;981.21;54.091;35.95466;-83.92947;813.48;NaN;;4.68;12.25796;52.6;14 / 15;226530;2022-10-14 18:29:19:588
8.9121;-19.2329;4.3394;1.8727;-9.6262;0.0124;-4.9102;-0.4179;-8.2962;-1.7052;-2.7703;1.2814;1.0;-6.24;40.65;-19.37;275.47;78.99;-89.62;0.0;981.62;54.06;35.954674;-83.92946;814.53;NaN;;4.57;12.226105;45.2;14 / 15;227031;2022-10-14 18:29:20:089
3.4594;-10.6645;6.6497;1.1403;-9.5797;-1.7607;0.1324;-3.2966;2.9422;-1.2276;1.2144;0.678;1.0;-3.97;43.8;-13.07;329.85;77.65;-147.07;0.0;980.83;55.953;35.954674;-83.92946;814.53;NaN;;4.57;12.226105;45.2;14 / 15;227530;2022-10-14 18:29:20:588
10.6226;-21.0224;4.2174;0.3936;-9.6142;-1.8926;1.8945;-6.5892;0.6845;-1.7333;-0.2315;0.6582;1.0;-3.11;40.65;-19.72;292.22;82.13;-105.92;0.0;981.5;54.684;35.954678;-83.92944;814.17;NaN;;4.36;12.226105;60.9;14 / 15;228030;2022-10-14 18:29:21:088
0.6715;-14.1084;7.806;0.9762;-9.688;-1.1662;-6.8483;-13.6415;-12.5861;-0.0576;0.3155;0.4562;1.0;0.92;45.36;-9.13;340.85;81.08;-140.07;0.0;981.3;55.796;35.954678;-83.92944;814.17;NaN;;4.36;12.226105;60.9;14 / 15;228530;2022-10-14 18:29:21:588
4.7067;-13.0597;-0.516;1.2798;-9.6827;-0.8821;-6.1665;-5.3932;-5.1993;-3.195;-2.314;1.2063;0.0;-4.03;40.48;-21.26;307.22;80.88;-124.58;0.0;981.61;55.621;35.95469;-83.929436;814.36;NaN;;5.04;12.226105;38.5;14 / 15;229030;2022-10-14 18:29:22:088
4.5188;-1.8589;-1.0379;0.8227;-9.5626;-2.0124;-4.9755;-12.4455;-3.4913;-1.5034;1.4902;-0.2457;1.0;-3.51;44.66;-9.32;336.85;77.19;-157.76;0.0;980.56;55.846;35.95469;-83.929436;814.36;NaN;;5.04;12.226105;38.5;14 / 15;229530;2022-10-14 18:29:22:588
5.3773;-16.1124;3.4977;0.2834;-9.6487;-1.73;1.1531;-5.4008;-1.1587;-1.6078;-2.1618;0.9013;0.0;-5.42;39.83;-19.31;266.35;70.07;-53.43;0.0;981.51;56.921;35.954697;-83.92942;815.38;NaN;;4.64;12.226105;51.4;13 / 15;230030;2022-10-14 18:29:23:088
3.8737;-7.5078;2.0961;1.261;-9.4626;-2.2447;5.1335;-2.5009;3.9188;-1.2757;1.6862;0.4171;1.0;-4.87;41.4;-14.36;293.18;82.24;-112.85;0.0;981.26;56.883;35.954697;-83.92942;815.38;NaN;;4.64;12.226105;51.4;13 / 15;230531;2022-10-14 18:29:23:589
2.9315;-14.0198;-1.4426;0.6354;-9.5762;-2.0157;2.894;-5.0616;3.7617;-2.9187;-2.3792;1.3018;0.0;-4.54;38.33;-20.59;248.91;75.32;-56.3;0.0;981.36;56.807;35.954704;-83.92941;813.28;NaN;;4.5;12.226105;47.5;13 / 15;231030;2022-10-14 18:29:24:088
4.8374;-0.6523;-0.0993;0.4645;-9.6346;-1.7689;-5.2126;-7.1874;-2.3597;-0.8653;-0.9532;0.6705;1.0;-3.66;42.73;-13.37;352.07;74.76;176.08;0.0;981.18;57.22;35.954704;-83.92941;813.28;NaN;;4.5;12.226105;47.5;13 / 15;231530;2022-10-14 18:29:24:588
2.1547;-12.7702;-2.4096;1.5145;-9.681;-0.3925;-3.926;-3.8584;-2.8081;-1.921;0.0732;1.1351;0.0;-4.37;40.44;-20.51;271.06;66.62;-47.95;0.0;981.55;57.056;35.954712;-83.929405;812.81;NaN;;4.57;12.226105;60.9;13 / 15;232030;2022-10-14 18:29:25:088
6.7226;-12.9616;2.3282;1.0728;-9.7292;-0.6018;2.1323;6.2047;2.0423;2.7373;0.5692;-0.8013;1.0;-1.8;41.76;-13.33;308.64;82.79;-119.29;0.0;982.04;56.787;35.954712;-83.929405;812.81;NaN;;4.57;12.226105;60.9;13 / 15;232530;2022-10-14 18:29:25:588
-2.8011;-15.685;-9.1561;1.7614;-9.6352;-0.4803;-4.4477;-2.1049;-5.8567;-1.2538;-0.4041;0.1434;1.0;-1.84;39.41;-19.26;298.59;79.27;-105.25;0.0;981.2;56.143;35.95472;-83.9294;810.69;NaN;;4.54;12.226105;46.7;13 / 15;233030;2022-10-14 18:29:26:088
-1.1324;-15.1439;-0.1962;1.1631;-9.7369;0.0969;2.5222;6.3466;0.3126;-1.239;0.8215;0.8718;1.0;-1.41;41.06;-15.79;0.21;76.41;176.1;0.0;981.53;57.196;35.95472;-83.9294;810.69;NaN;;4.54;12.226105;46.7;13 / 15;233530;2022-10-14 18:29:26:588
1.3047;-16.366;-2.5798;2.1532;-9.3783;1.8926;-4.0777;-0.8774;-3.7919;0.439;0.9971;-0.8816;1.0;-1.05;37.89;-22.69;256.04;73.0;-48.69;0.0;981.14;55.742;35.954727;-83.92939;810.5;NaN;;4.5;12.226105;61.3;13 / 15;234030;2022-10-14 18:29:27:088
5.2525;-17.9964;1.3238;0.4005;-9.6425;-1.7415;-6.8572;-11.1552;-10.7297;-0.1874;-0.9134;0.6174;0.0;-4.22;40.11;-17.76;354.16;76.11;176.19;0.0;982.02;54.901;35.954727;-83.92939;810.5;NaN;;4.5;12.226105;61.3;13 / 15;234530;2022-10-14 18:29:27:588
0.309;-15.1606;-5.4503;2.716;-9.1723;2.1595;-1.8325;0.6435;-2.4859;0.6493;-0.8385;-0.8107;1.0;-4.56;41.29;-17.23;275.33;69.28;-51.51;0.0;981.18;55.146;35.954735;-83.929375;809.11;NaN;;4.07;12.226105;62.5;13 / 15;235030;2022-10-14 18:29:28:088
-13.2072;-16.5024;-5.4909;0.961;-9.7455;-0.5222;0.6093;-2.2431;-3.2351;2.5816;0.1912;-0.998;1.0;-6.67;40.52;-16.26;342.67;73.12;-175.24;0.0;981.13;54.882;35.954735;-83.929375;809.11;NaN;;4.07;12.226105;62.5;13 / 15;235531;2022-10-14 18:29:28:589
0.1172;-9.2172;1.3597;2.4;-9.3541;1.7062;-1.0942;1.3367;-3.57;-0.0075;0.6009;-0.2089;1.0;-7.5;39.17;-19.67;244.51;72.53;-54.59;0.0;981.47;54.442;35.95474;-83.92937;810.21;NaN;;4.46;12.226105;51.5;12 / 15;236030;2022-10-14 18:29:29:088
-2.7018;-27.3371;-22.5308;1.2943;-9.7174;-0.259;2.5404;7.4957;1.1953;1.8726;0.8515;-1.2515;1.0;-9.39;42.34;-17.53;326.87;80.46;-163.7;0.0;981.17;54.49;35.95474;-83.92937;810.21;NaN;;4.46;12.226105;51.5;12 / 15;236530;2022-10-14 18:29:29:588
-0.4717;-9.3383;0.3185;2.518;-9.1843;2.3408;-1.7432;1.434;-1.7938;-0.4253;0.5114;-0.3934;1.0;-4.74;46.58;-13.88;283.53;72.69;-50.99;0.0;981.47;53.853;35.954746;-83.92936;808.66;NaN;;4.39;12.226105;48.3;11 / 15;237030;2022-10-14 18:29:30:088
-9.8133;-21.0814;-11.7706;1.0267;-9.6427;-1.461;1.1434;5.3176;2.1808;1.8977;1.0129;-1.023;0.0;-1.71;43.52;-10.99;333.16;79.51;-144.9;0.0;981.36;55.564;35.954746;-83.92936;808.66;NaN;;4.39;12.226105;48.3;11 / 15;237530;2022-10-14 18:29:30:588
-2.1703;-8.5708;-0.2752;2.7997;-9.1436;2.1742;-1.8906;1.4992;-2.6879;0.2497;1.0385;-0.6812;1.0;-3.45;39.84;-15.38;290.15;68.81;-52.17;0.0;981.51;55.28;35.954758;-83.92935;810.19;NaN;;4.39;12.226105;46.8;12 / 15;238030;2022-10-14 18:29:31:088
2.2193;-1.7034;3.0583;0.4865;-9.5223;-2.2932;-0.1696;4.8173;3.0769;0.5934;1.6243;-0.762;1.0;-6.34;40.48;-15.34;338.33;76.17;-168.02;0.0;981.21;55.679;35.954758;-83.92935;810.19;NaN;;4.39;12.226105;46.8;12 / 15;238530;2022-10-14 18:29:31:588
2.2564;-14.5992;-0.2752;2.1623;-9.5049;1.0734;-1.9785;1.6797;-2.57;0.5734;0.7805;-0.5059;1.0;-2.94;42.68;-16.41;275.04;73.64;-55.33;0.0;981.17;54.583;35.95477;-83.929344;810.06;NaN;;4.43;12.226105;49.6;12 / 15;239030;2022-10-14 18:29:32:088
2.7197;-6.5707;1.4545;1.7439;-9.6501;-0.0679;-2.0258;-7.6465;-6.8518;-1.1449;-0.3642;0.8019;0.0;0.69;45.45;-12.49;308.33;79.75;-92.23;0.0;982.16;54.838;35.95477;-83.929344;810.06;NaN;;4.43;12.226105;49.6;12 / 15;239529;2022-10-14 18:29:32:587
-4.2269;-17.0243;-1.9645;2.2261;-9.4725;1.2195;-4.7137;0.941;-2.2542;0.2242;1.0084;-0.6537;1.0;1.41;38.33;-14.23;288.16;75.0;-61.29;0.0;981.34;56.206;35.954777;-83.92934;811.02;NaN;;4.43;12.226105;51.4;12 / 15;240030;2022-10-14 18:29:33:088
0.0072;-23.5149;1.4222;1.4498;-9.4107;-2.3467;0.836;-5.0367;2.885;-1.8784;1.5211;0.5072;1.0;-5.34;37.2;-18.84;332.07;78.41;-157.05;0.0;981.94;55.356;35.954777;-83.92934;811.02;NaN;;4.43;12.226105;51.4;12 / 15;240530;2022-10-14 18:29:33:588
-1.4318;-7.3798;0.3138;1.0603;-9.6525;-1.3694;-4.2653;-3.745;-6.6712;-2.6959;-1.9988;1.5434;1.0;-5.61;46.5;-20.19;320.01;79.83;-142.25;0.0;981.73;54.549;35.95478;-83.92932;810.38;NaN;;4.54;12.226105;63.8;12 / 15;241030;2022-10-14 18:29:34:088
4.4758;-7.3977;1.1157;1.8387;-9.5446;-1.2998;3.6325;0.641;1.8701;-1.3408;0.6214;-0.2433;1.0;-0.77;48.98;-10.12;327.14;80.71;-127.8;0.0;980.62;55.733;35.95478;-83.92932;810.38;NaN;;4.54;12.226105;63.8;12 / 15;241530;2022-10-14 18:29:34:588
9.1167;-19.1324;3.5707;0.5151;-9.6909;-1.4112;-2.4292;-6.0615;-0.8018;-1.5364;-2.6766;1.11;0.0;-2.66;45.86;-17.51;282.09;70.29;-50.6;0.0;981.66;55.257;35.95479;-83.92931;810.8;NaN;;4.43;12.226105;61.3;13 / 15;242030;2022-10-14 18:29:35:088
0.1998;-12.4708;4.7967;1.9204;-9.5912;-0.7006;0.6189;3.2925;3.8705;2.7136;0.9377;0.2308;2.0;-0.97;48.11;-9.3;323.99;77.97;-110.04;0.0;980.96;55.953;35.95479;-83.92931;810.8;NaN;;4.43;12.226105;61.3;13 / 15;242530;2022-10-14 18:29:35:588
8.0046;-9.3897;1.5084;-0.0623;-9.6169;-1.9188;1.7512;3.5195;1.0936;-1.2286;-2.223;0.8534;1.0;-3.26;44.38;-16.93;343.68;80.48;-167.09;0.0;981.01;54.966;35.954796;-83.9293;811.09;NaN;;4.57;12.257444;54.4;13 / 15;243030;2022-10-14 18:29:36:088
0.3664;-8.1449;0.067;1.3855;-9.6;-1.4459;5.2774;-5.9556;1.4869;2.0941;1.2667;-0.2427;2.0;0.94;43.58;-7.22;344.25;78.22;-136.22;0.0;981.09;55.258;35.954796;-83.9293;811.09;NaN;;4.57;12.257444;54.4;13 / 15;243530;2022-10-14 18:29:36:588
-0.2704;-7.5592;0.6882;1.0762;-9.4241;-2.4896;6.1729;-6.6581;6.1119;-0.3836;-0.5141;0.3425;1.0;-3.54;34.01;-15.92;335.5;73.94;-156.62;0.0;980.97;54.187;35.954803;-83.92929;809.47;NaN;;4.64;12.226105;44.3;14 / 15;244030;2022-10-14 18:29:37:088
2.4096;-9.2821;-1.573;1.5772;-9.6003;1.2318;-0.4594;-2.1901;2.9351;2.9975;1.7326;0.5776;2.0;-6.47;34.84;-11.91;289.54;79.77;-110.83;0.0;981.13;52.913;35.954803;-83.92929;809.47;NaN;;4.64;12.226105;44.3;14 / 15;244530;2022-10-14 18:29:37:588
2.2433;-5.9124;0.6823;0.8968;-9.5711;-1.9392;0.3298;-6.1368;5.0033;-2.5729;-2.2651;1.352;1.0;-8.01;32.44;-23.14;324.9;77.42;-155.18;0.0;980.96;51.242;35.954815;-83.92928;809.03;NaN;;4.68;12.226105;44.2;14 / 15;245030;2022-10-14 18:29:38:088
2.3342;-11.3456;5.7781;1.4739;-9.6899;-0.3218;3.3211;1.7258;3.7595;2.449;1.6228;-0.087;3.0;-3.81;41.61;-13.8;330.9;80.35;-153.55;0.0;981.07;51.724;35.954815;-83.92928;809.03;NaN;;4.68;12.226105;44.2;14 / 15;245530;2022-10-14 18:29:38:588
-0.7289;-7.9651;-0.4753;0.4989;-9.6073;-1.9031;4.5267;-6.1404;4.956;-0.8582;-0.1474;0.2615;1.0;-2.89;40.86;-23.19;343.39;78.43;-165.31;0.0;981.28;51.613;35.954823;-83.929276;810.77;NaN;;4.68;12.487722;46.9;14 / 15;246030;2022-10-14 18:29:39:088
1.4892;-9.5548;1.9235;1.5804;-9.666;0.4909;0.8819;0.0838;3.4601;0.8367;1.5474;-0.268;2.0;-2.12;45.73;-15.34;292.06;80.8;-92.81;0.0;981.07;48.822;35.954823;-83.929276;810.77;NaN;;4.68;12.487722;46.9;14 / 15;246530;2022-10-14 18:29:39:588
7.2314;-10.0038;4.4435;0.89;-9.5909;-1.8422;4.0787;-4.9048;3.2809;-0.8771;0.6927;-0.0433;1.0;-0.56;41.91;-23.92;338.95;77.96;-154.21;0.0;981.56;47.745;35.954838;-83.92926;811.04;NaN;;4.57;12.428754;47.9;14 / 15;247030;2022-10-14 18:29:40:088
1.5287;-10.9496;4.3155;1.9849;-9.5288;-1.1965;3.5264;7.2615;2.5495;2.1496;1.2175;-0.2413;2.0;-2.04;51.19;-16.11;321.33;76.33;-121.08;0.0;981.1;49.93;35.954838;-83.92926;811.04;NaN;;4.57;12.428754;47.9;14 / 15;247530;2022-10-14 18:29:40:588
