sep=;
ACCELEROMETER X (m/s²);ACCELEROMETER Y (m/s²);ACCELEROMETER Z (m/s²);GRAVITY X (m/s²);GRAVITY Y (m/s²);GRAVITY Z (m/s²);LINEAR ACCELERATION X (m/s²);LINEAR ACCELERATION Y (m/s²);LINEAR ACCELERATION Z (m/s²);GYROSCOPE X (rad/s);GYROSCOPE Y (rad/s);GYROSCOPE Z (rad/s);LIGHT (lux);MAGNETIC FIELD X (μT);MAGNETIC FIELD Y (μT);MAGNETIC FIELD Z (μT);ORIENTATION Z (azimuth °);ORIENTATION X (pitch °);ORIENTATION Y (roll °);PROXIMITY (i);ATMOSPHERIC PRESSURE (hPa);SOUND LEVEL (dB);LOCATION Latitude : ;LOCATION Longitude : ;LOCATION Altitude ( m);LOCATION Altitude-google ( m);LOCATION Altitude-atmospheric pressure ( m);LOCATION Speed ( Kmh);LOCATION Accuracy ( m);LOCATION ORIENTATION (°);Satellites in range;Time since start in ms ;YYYY-MO-DD HH-MI-SS_SSS
-0.9302;3.0969;10.1533;-0.9299;3.3073;9.1852;-0.5994;0.8398;0.5367;0.0043;-0.6263;-0.1879;20358.0;10.88;-22.52;-18.56;208.01;-19.35;8.88;5.0;986.57;48.313;35.95603;-83.92862;799.03;NaN;;;179.49678;;0 / 20;22;2022-10-12 12:43:49:380
-10.5808;3.335;8.5624;-6.452;4.7903;5.6209;-0.5946;1.3075;-1.2249;-1.1332;0.244;0.3615;16974.0;13.91;-22.16;-21.37;134.82;-30.65;48.71;5.0;986.56;51.275;35.956062;-83.92816;816.01;NaN;;3.38;44.824417;180.6;0 / 20;522;2022-10-12 12:43:49:880
-1.282;3.9969;9.2952;-5.4881;5.6039;5.8862;3.3105;-0.0776;-1.229;0.2822;-3.2434;-2.5648;11969.0;26.01;-26.12;-16.59;163.4;-32.58;59.68;5.0;986.55;50.762;35.956062;-83.92816;816.01;NaN;;3.38;44.824417;180.6;0 / 20;1022;2022-10-12 12:43:50:380
-6.999;-3.02;12.7427;-1.6062;0.0607;9.674;-9.3091;-2.5295;1.5434;0.712;-1.2008;0.9177;17195.0;20.44;-18.75;-35.19;216.72;-0.35;9.43;5.0;986.58;47.112;35.956047;-83.92817;814.32;NaN;;3.2;44.89787;164.1;15 / 20;1522;2022-10-12 12:43:50:880
0.0156;-1.1037;9.5501;-2.5236;1.233;9.3958;2.7595;-2.0397;-0.0656;-0.4503;-0.3102;-0.3736;41321.0;16.69;-9.21;-46.91;199.52;-4.01;17.66;5.0;986.58;47.333;35.956047;-83.92817;814.32;NaN;;3.2;44.89787;164.1;15 / 20;2022;2022-10-12 12:43:51:380
-4.9104;0.5016;13.9421;-1.6083;-0.4882;9.6615;-0.7068;0.7705;-2.4232;-0.2469;-0.3281;-0.2868;66599.0;16.99;-11.49;-55.37;209.23;2.85;9.45;5.0;986.57;50.786;35.956028;-83.92819;811.53;NaN;;3.6;46.054398;177.6;15 / 20;2522;2022-10-12 12:43:51:880
-1.2006;-1.3693;7.9567;-3.4373;1.584;9.0469;2.679;-2.6473;-1.4531;0.4245;-0.4082;0.2129;47597.0;23.48;-14.27;-56.02;186.7;-4.68;21.33;5.0;986.59;47.498;35.956028;-83.92819;811.53;NaN;;3.6;46.054398;177.6;15 / 20;3022;2022-10-12 12:43:52:380
-4.9822;0.4035;8.2071;-2.5426;-1.3692;9.3718;-1.9246;1.4176;-2.7414;-0.4235;-0.5921;-0.136;44414.0;35.72;-17.36;-51.6;220.03;8.03;15.18;5.0;986.55;50.02;35.95601;-83.92821;810.69;NaN;;4.21;45.28117;170.2;15 / 20;3521;2022-10-12 12:43:52:879
-0.516;-1.5479;8.7841;-3.6292;2.3899;8.7913;2.9474;-3.4663;-2.0175;0.0672;-0.1262;1.7071;35793.0;36.94;-26.03;-43.31;235.81;-14.11;22.43;5.0;986.58;48.299;35.95601;-83.92821;810.69;NaN;;4.21;45.28117;170.2;15 / 20;4021;2022-10-12 12:43:53:379
-5.2657;-0.1974;7.9137;-1.0149;-1.7086;9.6032;-3.2828;1.0613;-2.365;-0.3786;-0.3637;-1.4016;47127.0;25.48;-42.81;-33.96;202.33;6.73;9.04;5.0;986.56;50.084;35.95599;-83.92822;812.7;NaN;;4.68;41.484234;160.6;15 / 20;4522;2022-10-12 12:43:53:880
-0.5698;-2.0148;7.8359;-3.0825;2.0667;9.0773;1.2845;-4.7629;-1.1368;0.4154;-0.4662;4.0086;46589.0;40.33;-22.91;-26.57;226.63;1.82;23.79;5.0;986.6;49.822;35.95599;-83.92822;812.7;NaN;;4.68;41.484234;160.6;15 / 20;5022;2022-10-12 12:43:54:380
-2.1464;-0.1615;7.2242;-1.4172;-1.3887;9.6038;-0.5934;1.3446;-2.2034;-0.3775;-0.1538;-2.0676;38961.0;12.58;-37.48;-15.86;194.63;3.54;10.31;5.0;986.57;53.711;35.95597;-83.92822;812.83;NaN;;4.75;37.837517;157.0;15 / 20;5522;2022-10-12 12:43:54:880
0.0933;-0.7528;7.8036;-2.8134;1.2353;9.3129;0.8783;-3.0363;-0.2687;0.8989;0.3409;2.3499;73687.0;17.78;-25.13;-18.6;208.24;-7.24;16.81;5.0;986.57;50.735;35.95597;-83.92822;812.83;NaN;;4.75;37.837517;157.0;15 / 20;6022;2022-10-12 12:43:55:380
-4.5763;-1.2185;7.5604;-1.0348;-1.0947;9.6903;-0.0049;1.5634;-1.0574;-0.3699;-0.8225;-2.2891;28388.998;5.76;-26.42;-17.55;183.44;0.79;13.66;5.0;986.57;50.303;35.95596;-83.92822;811.84;NaN;;4.46;35.191177;156.0;15 / 20;6522;2022-10-12 12:43:55:880
-0.7816;-1.6005;8.3626;-2.8834;-0.0028;9.3732;-1.1851;-1.6919;2.2873;1.1688;0.303;1.8007;82639.0;8.08;-17.38;-27.28;179.02;0.02;17.1;5.0;986.56;49.641;35.95596;-83.92822;811.84;NaN;;4.46;35.191177;156.0;15 / 20;7021;2022-10-12 12:43:56:379
-2.4168;0.3784;9.5429;-2.0325;-0.7496;9.5644;-0.9988;-0.3208;0.2841;-1.1868;-1.2022;-1.1785;22200.0;5.89;-28.57;-27.15;180.47;4.38;12.0;5.0;986.57;48.908;35.95595;-83.92822;813.02;NaN;;4.39;33.460186;155.7;15 / 20;7522;2022-10-12 12:43:56:880
-0.2333;-1.9908;8.3495;-2.7935;1.8497;9.2166;0.8468;-4.8157;0.9443;1.0406;0.3269;3.4057;85773.0;8.83;-20.49;-35.38;181.11;3.97;13.73;5.0;986.6;51.086;35.95595;-83.92822;813.02;NaN;;4.39;33.460186;155.7;15 / 20;8022;2022-10-12 12:43:57:380
-1.6316;-0.0132;9.8734;-2.0071;0.1959;9.5971;0.4574;-1.6965;0.6282;-1.608;-0.5679;-0.8189;22272.0;1.24;-33.6;-25.65;172.61;-1.14;11.81;5.0;986.57;51.064;35.95594;-83.92822;813.14;NaN;;4.36;31.693811;154.7;15 / 20;8522;2022-10-12 12:43:57:880
-0.6954;-2.4586;8.4679;-2.9769;0.1306;9.343;-1.1118;-4.2797;0.6508;0.6642;-0.48;4.2524;81514.0;11.42;-21.43;-34.82;184.91;12.56;13.63;5.0;986.56;52.127;35.95594;-83.92822;813.14;NaN;;4.36;31.693811;154.7;15 / 20;9021;2022-10-12 12:43:58:379
-1.5431;0.4011;8.9444;-2.2427;-0.0813;9.5464;-0.4257;-0.6016;-1.2862;-1.4349;-0.6522;-0.0265;35070.0;7.28;-25.71;-23.76;182.9;0.47;13.22;5.0;986.58;52.03;35.95593;-83.92822;812.92;NaN;;4.43;29.868555;152.4;15 / 20;9522;2022-10-12 12:43:58:880
-2.1248;-2.2504;7.7091;-2.7963;-0.5526;9.3833;-2.7182;-3.1738;1.0016;0.7252;0.4145;2.4478;94641.0;10.73;-11.77;-27.73;190.55;3.23;16.59;5.0;986.56;50.813;35.95593;-83.92822;812.92;NaN;;4.43;29.868555;152.4;15 / 20;10021;2022-10-12 12:43:59:379
-1.2485;-0.6428;6.9858;-1.8254;-1.1753;9.5633;1.2958;1.1548;-0.5778;-0.6976;-0.3648;-1.0126;49006.0;9.53;-16.44;-28.24;188.66;0.73;14.84;5.0;986.59;50.394;35.95592;-83.928215;808.85;NaN;;4.14;28.111732;153.3;15 / 20;10521;2022-10-12 12:43:59:879
-1.5419;-2.4885;11.5828;-2.1171;-1.7972;9.4052;-4.1873;-0.441;1.9616;0.928;0.5327;3.3532;112135.0;6.38;-7.35;-35.36;192.94;21.14;2.58;5.0;986.57;53.224;35.95592;-83.928215;808.85;NaN;;4.14;28.111732;153.3;15 / 20;11022;2022-10-12 12:44:00:380
-1.1731;-0.4035;8.4224;-1.7494;-1.4561;9.5389;-0.1872;-0.5657;1.9836;-1.3007;-0.846;-0.8004;51703.0;3.32;-22.63;-36.3;163.76;-4.81;14.01;5.0;986.6;51.698;35.95591;-83.928215;806.09;NaN;;4.25;28.341024;159.8;13 / 20;11522;2022-10-12 12:44:00:880
-1.7405;-4.4758;8.6318;-1.811;-2.7534;9.2363;-5.2487;-0.2655;3.8376;1.2254;0.5982;2.4607;117882.99;5.01;-12.49;-42.02;172.26;16.31;11.09;5.0;986.57;49.415;35.95591;-83.928215;806.09;NaN;;4.25;28.341024;159.8;13 / 20;12022;2022-10-12 12:44:01:380
-0.7756;-1.6256;9.8279;-2.0467;-1.2833;9.5045;1.2327;-1.7171;2.2447;-1.6967;0.1751;-2.1101;46576.0;-1.41;-24.32;-36.77;153.88;-11.11;11.15;5.0;986.61;49.873;35.955894;-83.92822;803.28;NaN;;4.36;27.500134;165.8;13 / 20;12521;2022-10-12 12:44:01:879
-3.0105;-6.1911;11.0225;-1.3565;-2.7468;9.3159;-9.1026;0.6523;4.6848;1.3274;0.8953;4.8247;111294.0;3.49;-14.87;-42.41;173.28;16.27;8.28;5.0;986.55;54.481;35.955894;-83.92822;803.28;NaN;;4.36;27.500134;165.8;13 / 20;13022;2022-10-12 12:44:02:380
-1.4916;-2.0746;11.7957;-2.0661;0.2021;9.5844;2.4411;-2.3345;-2.1493;-2.7274;0.7079;-2.8614;26323.0;-0.94;-31.44;-35.08;164.58;-1.18;12.17;5.0;986.58;50.281;35.955887;-83.92822;805.6;NaN;;4.43;26.759726;158.9;13 / 20;13522;2022-10-12 12:44:02:880
-6.2115;-6.2474;13.1507;-3.017;-1.7146;9.1722;-3.9821;-2.8606;4.087;1.0691;1.0915;3.7904;112310.0;12.98;-11.61;-45.19;203.9;22.53;0.54;5.0;986.57;47.73;35.955887;-83.92822;805.6;NaN;;4.43;26.759726;158.9;13 / 20;14022;2022-10-12 12:44:03:380
-2.0315;0.9063;13.4201;-0.8486;1.2977;9.6833;1.0753;-5.5616;-2.1268;-2.0654;-1.1631;-1.3207;37338.0;8.25;-29.1;-29.74;192.22;-7.6;5.01;5.0;986.59;48.258;35.95587;-83.92822;804.82;NaN;;4.5;26.696524;153.2;13 / 20;14522;2022-10-12 12:44:03:880
-6.95;-0.4657;13.9528;-0.1798;-2.3713;9.5139;-5.8317;3.0155;3.9349;0.9331;1.0965;0.844;104731.0;11.49;-15.81;-35.57;210.95;17.62;-7.13;5.0;986.57;46.904;35.95587;-83.92822;804.82;NaN;;4.5;26.696524;153.2;13 / 20;15022;2022-10-12 12:44:04:380
0.9194;-2.1045;10.0708;-1.3683;2.8119;9.2947;2.3085;-6.0756;-3.0092;-0.8169;-0.4223;0.6899;48807.0;16.52;-19.28;-29.74;234.19;-16.66;8.37;5.0;986.58;46.013;35.955864;-83.92822;802.48;NaN;;3.53;25.99448;154.3;13 / 20;15522;2022-10-12 12:44:04:880
-9.3514;-2.4754;11.4413;-1.4844;-3.7051;8.9576;-10.5622;-1.5656;3.0049;0.1418;1.2867;1.4544;96767.0;18.53;-1.28;-33.17;222.83;22.2;9.41;5.0;986.55;49.643;35.955864;-83.92822;802.48;NaN;;3.53;25.99448;154.3;13 / 20;16022;2022-10-12 12:44:05:380
-0.0012;-3.0117;5.0575;-3.9069;0.2641;8.9909;3.0335;-3.0123;-2.954;-1.0699;1.6247;-3.7293;53213.0;21.17;-8.78;-29.36;273.59;-16.97;11.67;5.0;986.58;46.523;35.955853;-83.92823;803.01;NaN;;4.1;25.007582;154.4;13 / 20;16522;2022-10-12 12:44:05:880
-9.1011;-0.2393;13.4297;-2.3455;-2.5536;9.1732;-7.1214;1.3126;2.2267;-0.596;-0.4629;0.5283;42132.0;26.79;-9.94;-28.16;226.11;12.31;16.69;5.0;986.6;47.717;35.955853;-83.92823;803.01;NaN;;4.1;25.007582;154.4;13 / 20;17021;2022-10-12 12:44:06:379
-4.2532;0.189;11.1242;-4.7647;1.953;8.3459;2.6225;-0.293;4.4909;1.5457;0.1701;-3.0867;33333.0;22.22;-14.57;-28.72;235.75;-13.85;22.88;5.0;986.58;47.205;35.95584;-83.92823;802.98;NaN;;4.18;24.519032;155.6;13 / 20;17521;2022-10-12 12:44:06:879
-9.0844;-1.124;10.9074;-3.1668;-0.1299;9.2803;-4.4385;1.6557;-2.9095;-0.4545;-0.547;-0.206;23411.0;24.17;-15.75;-30.45;218.33;0.76;18.84;5.0;986.57;46.719;35.95584;-83.92823;802.98;NaN;;4.18;24.519032;155.6;13 / 20;18021;2022-10-12 12:44:07:379
-0.632;-2.8083;10.2132;-4.3301;0.8939;8.7534;3.1325;-2.5456;-0.8227;-0.3644;-1.1808;-0.3139;35252.0;24.58;-16.16;-36.84;180.68;-7.28;33.89;5.0;986.57;48.23;35.95583;-83.92823;801.88;NaN;;4.07;22.8897;151.8;13 / 20;18521;2022-10-12 12:44:07:879
-10.6717;-5.656;12.618;-1.4083;-3.322;9.1188;-7.9155;2.1109;-2.0959;-0.21;0.9343;2.2462;52908.0;29.1;-10.97;-41.27;221.22;19.8;8.78;5.0;986.58;48.466;35.95583;-83.92823;801.88;NaN;;4.07;22.8897;151.8;13 / 20;19021;2022-10-12 12:44:08:379
-1.8206;-2.0949;6.7167;-4.5346;1.7183;8.5238;2.4407;-5.4014;-1.1358;0.3047;-0.0624;-0.3899;70531.0;22.26;-19.48;-37.97;188.14;-10.09;28.01;5.0;986.57;46.161;35.95582;-83.928215;799.79;NaN;;4.72;22.498392;156.3;14 / 20;19521;2022-10-12 12:44:08:879
-6.2593;-0.868;14.3719;-0.8853;-1.6972;9.618;-7.0982;0.663;3.2281;-0.2231;0.5888;1.6087;95401.0;9.58;-25.01;-39.02;199.13;8.68;-0.89;5.0;986.57;47.152;35.95582;-83.928215;799.79;NaN;;4.72;22.498392;156.3;14 / 20;20021;2022-10-12 12:44:09:379
-0.213;-0.4155;6.5216;-2.1296;3.2004;9.0218;2.7309;-5.3118;-1.5167;0.2588;-0.285;0.071;82099.0;-5.72;-27.21;-31.31;141.21;-19.05;13.28;5.0;986.57;48.223;35.95581;-83.92821;796.67;NaN;;4.03;21.65234;160.3;14 / 20;20522;2022-10-12 12:44:09:880
-6.8124;-2.2696;15.0589;-0.6851;-3.6024;9.0953;-3.8699;4.2069;2.4697;-0.0186;0.7122;-0.7878;108922.99;-12.13;-20.42;-31.82;155.02;20.55;3.32;5.0;986.58;48.574;35.95581;-83.92821;796.67;NaN;;4.03;21.65234;160.3;14 / 20;21021;2022-10-12 12:44:10:379
-1.2269;-3.1196;7.6193;-4.1335;2.1189;8.6368;3.2331;-5.0407;-1.212;0.5585;0.021;1.0468;115602.0;-11.33;-18.13;-35.59;114.46;-12.48;25.58;5.0;986.55;50.238;35.955807;-83.92819;795.53;NaN;;4.03;20.970327;182.5;14 / 20;21523;2022-10-12 12:44:10:881
-7.8191;-4.2051;14.1526;-0.4911;-4.2195;8.8388;-3.3439;3.4873;0.5558;-0.476;-0.327;-1.6646;118973.01;-18.88;-15.54;-38.94;145.49;25.48;3.18;5.0;986.56;49.391;35.955807;-83.92819;795.53;NaN;;4.03;20.970327;182.5;14 / 20;22022;2022-10-12 12:44:11:380
-1.0774;-2.8478;6.8578;-4.9879;1.9224;8.2217;4.5143;-4.0997;-1.5438;0.3901;0.1255;-0.12;142611.0;-13.24;-20.1;-42.58;116.16;-6.84;30.54;5.0;986.55;50.02;35.9558;-83.92818;794.73;NaN;;7.52;20.024273;123.5;14 / 20;22521;2022-10-12 12:44:11:879
-4.9582;0.0514;7.8227;-1.6809;-1.3377;9.5685;-1.5321;1.2848;-3.2519;-0.5042;-0.3907;-0.8929;116748.01;-16.33;-28.28;-36.58;142.59;4.68;12.09;5.0;986.57;52.417;35.9558;-83.92818;794.73;NaN;;7.52;20.024273;123.5;14 / 20;23021;2022-10-12 12:44:12:379
-0.4681;-1.9403;7.7127;-2.5712;2.3123;9.1767;1.8965;-4.4776;-1.6377;1.2502;-0.0218;0.6676;124737.0;-22.22;-17.49;-33.58;117.26;-2.49;16.47;5.0;986.54;53.64;35.9558;-83.92815;793.89;NaN;;4.14;19.33014;116.7;14 / 20;23522;2022-10-12 12:44:12:880
-14.033;-1.9932;3.754;-1.9325;-1.9263;9.4194;1.6575;1.0707;2.5196;0.2537;1.1036;-5.9419;93247.0;-14.19;-16.35;-31.54;136.59;11.33;11.59;5.0;986.57;51.022;35.9558;-83.92815;793.89;NaN;;4.14;19.33014;116.7;14 / 20;24023;2022-10-12 12:44:13:381
-2.1763;-2.7999;9.9727;-3.545;2.4701;8.8035;1.874;-5.4376;0.7628;0.8437;0.2326;4.1645;101791.0;-1.91;-19.78;-32.18;147.6;2.79;21.47;5.0;986.51;58.486;35.9558;-83.92813;795.31;NaN;;4.14;18.710556;119.1;14 / 20;24523;2022-10-12 12:44:13:881
-2.9698;-1.1503;9.3227;-2.1903;-1.7029;9.406;0.7779;-0.2028;2.6605;-0.6968;-0.7604;-3.2679;92285.0;-4.97;-15.75;-34.82;149.19;10.0;13.11;5.0;986.56;53.915;35.9558;-83.92813;795.31;NaN;;4.14;18.710556;119.1;14 / 20;25022;2022-10-12 12:44:14:380
-0.1567;-5.546;9.6194;-3.5044;0.5187;9.1444;0.9649;-7.2423;1.3084;0.5141;-0.7387;6.1689;121776.0;5.87;-6.26;-37.28;117.94;-3.03;20.97;5.0;986.57;57.927;35.9558;-83.9281;795.57;NaN;;4.14;18.38748;125.4;14 / 20;25523;2022-10-12 12:44:14:881
-1.6783;-0.1256;9.6577;-0.3488;-2.9223;9.3546;-1.7731;2.6013;1.7102;-0.2633;0.1817;-4.9166;95350.0;2.4;-6.23;-33.84;152.91;7.15;12.13;5.0;986.57;51.307;35.9558;-83.9281;795.57;NaN;;4.14;18.38748;125.4;14 / 20;26021;2022-10-12 12:44:15:379
1.0893;-2.5798;6.6018;-4.1891;0.3207;8.8611;1.0621;-7.6036;-0.393;-0.0432;-0.6977;5.6707;133992.0;3.36;4.24;-36.43;121.1;15.23;18.95;5.0;986.56;50.459;35.9558;-83.928085;796.2;NaN;;4.28;18.007748;109.8;14 / 20;26521;2022-10-12 12:44:15:879
-4.9259;-1.1647;7.8933;-1.4859;-3.2763;9.123;-1.4549;3.0918;-0.4519;-0.6312;-0.4016;-2.4645;126353.0;10.86;2.14;-37.82;176.1;10.28;16.65;5.0;986.58;50.105;35.9558;-83.928085;796.2;NaN;;4.28;18.007748;109.8;14 / 20;27022;2022-10-12 12:44:16:380
-3.1687;-4.8745;8.6545;-4.0242;-1.3276;8.8439;-2.431;-4.5781;3.3749;0.9585;1.0271;3.0674;144686.0;1.58;17.87;-39.45;47.97;7.78;24.47;5.0;986.53;51.882;35.9558;-83.92806;796.46;NaN;;4.36;16.70836;92.1;14 / 20;27522;2022-10-12 12:44:16:880
-4.0089;-0.7014;8.6737;-2.6148;-2.2162;9.1881;-0.7435;0.2498;3.0077;-0.5366;-0.392;-2.7755;131602.0;14.51;8.49;-49.88;190.49;13.06;15.89;5.0;986.57;49.209;35.9558;-83.92806;796.46;NaN;;4.36;16.70836;92.1;14 / 20;28021;2022-10-12 12:44:17:379
-3.3051;-6.1086;10.2156;-3.6529;0.2654;9.097;1.2495;-6.0249;0.8582;0.5789;-0.5011;4.7717;145727.0;-3.06;19.99;-54.21;73.65;15.29;19.61;5.0;986.58;48.84;35.955807;-83.92805;797.58;NaN;;4.14;15.986998;95.2;14 / 20;28521;2022-10-12 12:44:17:879
-0.364;0.4753;11.1446;-2.6777;-1.6253;9.2929;0.1059;-1.0283;0.9691;-1.5445;-0.6982;-1.186;127971.99;16.8;2.44;-55.78;18.62;-6.25;19.64;5.0;986.57;49.997;35.955807;-83.92805;797.58;NaN;;4.14;15.986998;95.2;14 / 20;29021;2022-10-12 12:44:18:379
-3.3099;-5.2095;10.1318;-4.2846;-0.8893;8.7762;-0.8406;-4.8858;1.5456;0.4298;0.2091;4.1014;143587.0;9.58;17.08;-54.64;120.97;18.84;13.61;5.0;986.58;50.566;35.955807;-83.928024;799.54;NaN;;4.28;15.35797;109.6;14 / 20;29521;2022-10-12 12:44:18:879
-1.9355;-2.388;14.051;-2.9965;-1.6709;9.1869;2.1878;-0.8363;-0.8;-1.9294;-0.5803;-1.3152;138802.0;22.5;-1.84;-49.72;209.41;9.81;18.07;5.0;986.57;51.04;35.955807;-83.928024;799.54;NaN;;4.28;15.35797;109.6;14 / 20;30022;2022-10-12 12:44:19:380
-5.4562;-5.4335;11.968;-3.2552;-2.933;8.7734;-3.622;-0.0404;3.4594;0.7568;1.0628;2.2949;133243.0;11.78;14.25;-51.97;210.38;25.66;6.47;5.0;986.58;50.518;35.95581;-83.928;800.14;NaN;;5.0;14.003983;75.2;14 / 20;30522;2022-10-12 12:44:19:880
-1.5849;-2.7173;11.5074;-3.8128;2.3686;8.7191;3.0849;-5.3457;-1.9073;-2.0397;-0.3834;-2.5241;141898.0;17.29;-7.48;-42.82;20.72;-13.98;23.62;5.0;986.56;49.309;35.95581;-83.928;800.14;NaN;;5.0;14.003983;75.2;14 / 20;31021;2022-10-12 12:44:20:379
-8.2609;-5.2765;14.482;-1.9353;-4.2188;8.6387;-12.3496;-2.7355;2.3428;-0.7751;1.4687;3.6158;139475.0;9.43;1.59;-43.93;177.27;25.48;12.63;5.0;986.57;49.239;35.955826;-83.927986;799.8;NaN;;4.43;13.118436;54.3;14 / 20;31521;2022-10-12 12:44:20:879
-0.8103;-0.9697;7.7785;-3.3372;0.0641;9.2211;2.4082;-1.8292;-1.4108;-1.4279;0.1721;-2.4345;130131.99;2.4;-10.03;-41.25;81.24;-16.76;19.14;5.0;986.53;49.994;35.955826;-83.927986;799.8;NaN;;4.43;13.118436;54.3;14 / 20;32022;2022-10-12 12:44:21:380
-2.2875;-4.7764;7.7354;-2.3808;-2.4439;9.194;-9.7409;-4.7801;4.7627;0.6065;0.3306;4.4324;144729.0;6.38;-8.49;-43.12;164.96;14.43;14.52;5.0;986.56;48.399;35.955837;-83.92796;799.81;NaN;;4.61;12.38021;81.4;14 / 20;32522;2022-10-12 12:44:21:880
-3.2907;-1.5849;9.2004;-3.7689;-1.439;8.9384;2.6836;-1.0588;-2.2138;-2.1072;-1.3036;-0.6639;145965.0;7.14;-13.76;-38.19;127.28;-3.74;33.78;5.0;986.57;50.519;35.955837;-83.92796;799.81;NaN;;4.61;12.38021;81.4;14 / 20;33021;2022-10-12 12:44:22:379
-6.3503;-5.983;12.9341;-1.9993;-3.5118;8.9353;-4.516;2.0119;0.5587;0.1316;0.6593;1.1058;132020.0;-3.62;-7.03;-35.27;147.97;20.98;12.61;5.0;986.6;48.512;35.955845;-83.92794;798.32;NaN;;4.14;12.226105;66.5;14 / 20;33522;2022-10-12 12:44:22:880
1.0331;-2.7126;9.2665;-3.6336;-0.0163;9.1086;5.2501;-2.8004;-1.6685;-1.1871;-0.8718;-1.5273;160308.0;0.28;3.43;-35.48;77.2;0.1;21.75;5.0;986.57;49.965;35.955845;-83.92794;798.32;NaN;;4.14;12.226105;66.5;14 / 20;34021;2022-10-12 12:44:23:379
-7.3164;-2.0171;10.9735;-1.2319;-3.9521;8.8901;-6.9344;0.3142;4.0313;0.009;1.6231;-0.5204;141971.0;-7.03;5.51;-36.07;133.11;22.31;2.45;5.0;986.6;53.223;35.955853;-83.927925;799.63;NaN;;4.21;12.226105;51.2;14 / 20;34521;2022-10-12 12:44:23:879
0.7169;-2.6085;8.1182;-3.3487;1.3654;9.1155;4.9664;-3.8551;-1.3586;0.4339;-0.4537;-0.3869;154210.0;-2.16;4.74;-42.99;69.14;-4.35;25.94;5.0;986.57;48.511;35.955853;-83.927925;799.63;NaN;;4.21;12.226105;51.2;14 / 20;35021;2022-10-12 12:44:24:379
-9.1944;-2.6599;13.1279;0.5138;-2.3587;9.5049;-7.4697;1.0687;1.4625;0.1659;1.1531;-2.3186;136308.0;-7.18;1.89;-49.89;155.96;16.59;-1.67;5.0;986.61;50.322;35.95586;-83.9279;801.46;NaN;;4.32;12.226105;67.7;14 / 20;35521;2022-10-12 12:44:24:879
1.4474;-2.7748;7.5245;-2.5111;2.8721;9.0342;3.8649;-5.6346;-1.8802;0.6961;-0.5416;1.7644;130162.0;-4.73;-9.06;-55.97;71.05;-17.03;15.53;5.0;986.55;50.949;35.95586;-83.9279;801.46;NaN;;4.32;12.226105;67.7;14 / 20;36021;2022-10-12 12:44:25:379
-8.1832;-2.0124;15.3628;1.4862;-4.088;8.7892;-7.4123;5.2566;1.7631;-0.3069;-0.2429;-0.3117;129922.99;-9.9;-8.21;-56.76;166.92;21.26;-3.43;5.0;986.58;48.619;35.955864;-83.92789;802.32;NaN;;4.25;12.226105;84.5;14 / 20;36522;2022-10-12 12:44:25:880
0.2764;-6.0535;6.8877;-2.666;3.2893;8.8455;3.4477;-6.853;-1.3077;-0.9183;-0.0083;-1.2646;126778.0;-10.99;-9.36;-59.83;70.75;-19.6;16.77;5.0;986.54;49.875;35.955864;-83.92789;802.32;NaN;;4.25;12.226105;84.5;14 / 20;37022;2022-10-12 12:44:26:380
-8.2968;-0.9565;15.9123;0.0266;-3.5654;9.1355;-8.0744;4.2013;-0.9655;-0.3679;-1.0713;-0.3652;126449.0;-1.82;-12.92;-63.41;177.03;21.32;-0.17;5.0;986.57;51.309;35.955868;-83.92787;803.42;NaN;;4.43;12.226105;65.7;14 / 19;37522;2022-10-12 12:44:26:880
-0.8512;-2.8478;7.9986;-3.8668;1.6049;8.8681;3.1217;-4.4988;-0.808;-0.2659;-0.0057;-0.5127;137257.0;3.45;-18.36;-53.01;117.54;-9.42;23.56;5.0;986.56;51.492;35.955868;-83.92787;803.42;NaN;;4.43;12.226105;65.7;14 / 19;38023;2022-10-12 12:44:27:381
-8.1987;-5.959;12.2818;-0.8935;-3.393;9.1575;-8.1724;1.7457;-3.9543;-0.8285;-1.0392;0.4733;140145.0;1.73;-15.9;-45.32;175.55;20.24;5.57;5.0;986.61;51.089;35.95587;-83.92786;803.61;NaN;;4.36;12.226105;72.7;14 / 20;38522;2022-10-12 12:44:27:880
0.8883;-2.2205;7.1668;-5.4771;2.6497;7.691;4.9864;-4.7485;-1.9771;-0.0243;-0.0969;1.5543;157782.0;3.45;-11.64;-46.01;105.92;-6.89;37.54;5.0;986.57;50.272;35.95587;-83.92786;803.61;NaN;;4.36;12.226105;72.7;14 / 20;39022;2022-10-12 12:44:28:380
-7.7809;-1.7512;6.9882;-3.1538;-1.8059;9.1084;-2.4765;0.5615;-2.1499;-0.0589;-0.3553;-2.4022;156010.0;3.86;-13.61;-46.52;152.39;10.61;19.1;5.0;986.56;50.407;35.95588;-83.92784;803.23;NaN;;4.72;12.226105;57.4;14 / 20;39523;2022-10-12 12:44:28:881
-0.2465;-2.8537;8.9061;-5.2533;0.7958;8.2426;4.2436;-3.8982;0.8371;0.7242;0.2184;2.3451;155943.0;-1.22;-4.59;-49.59;93.32;-4.65;32.51;5.0;986.57;50.565;35.95588;-83.92784;803.23;NaN;;4.72;12.226105;57.4;14 / 20;40022;2022-10-12 12:44:29:380
-7.3522;-2.0949;7.0149;-0.5637;-3.6409;9.0882;-6.9071;2.0797;-1.5421;-0.8897;-1.4628;-0.8658;150928.0;-1.46;-3.68;-54.52;134.71;13.1;15.85;5.0;986.57;52.369;35.955887;-83.92783;801.58;NaN;;3.74;12.226105;56.2;14 / 20;40522;2022-10-12 12:44:29:880
0.9721;-3.1041;7.8574;-4.3489;0.9941;8.7332;3.7928;-4.8367;-0.1129;0.6648;-0.1528;2.9892;148793.0;-11.64;0.39;-57.36;102.52;10.42;27.27;5.0;986.55;50.415;35.955887;-83.92783;801.58;NaN;;3.74;12.226105;56.2;14 / 20;41022;2022-10-12 12:44:30:380
-4.0316;1.1659;11.554;-0.2189;-5.1412;8.3481;-4.6925;3.1005;-0.4042;-1.564;-1.1401;-0.3237;142114.0;-7.44;0.79;-60.28;137.09;19.75;9.99;5.0;986.57;51.026;35.955894;-83.92782;800.8;NaN;;4.32;12.226105;62.3;14 / 20;41522;2022-10-12 12:44:30:880
0.3078;-3.1113;7.0699;-3.9025;1.3298;8.8979;2.0803;-6.1942;0.4847;1.7828;0.2438;2.7093;128449.0;-11.17;6.47;-57.17;69.35;-7.79;23.68;5.0;986.56;52.771;35.955894;-83.92782;800.8;NaN;;4.32;12.226105;62.3;14 / 20;42022;2022-10-12 12:44:31:380
-5.7769;3.8761;6.9177;-2.3538;1.7337;9.3608;0.2898;1.8937;-2.9153;-0.1171;-0.7142;-1.8556;136819.0;-4.14;-15.69;-54.3;95.62;-15.5;16.04;5.0;986.55;50.633;35.955902;-83.9278;802.16;NaN;;4.32;12.226105;53.4;14 / 20;42522;2022-10-12 12:44:31:880
-0.6117;-0.6248;8.7099;-3.5765;0.8158;9.0947;-0.4438;0.2051;-0.6694;0.5618;-0.1036;0.232;132579.0;-6.39;-14.94;-58.86;111.24;-4.77;21.47;5.0;986.57;50.594;35.955902;-83.9278;802.16;NaN;;4.32;12.226105;53.4;14 / 20;43023;2022-10-12 12:44:32:381
-6.5276;0.0909;10.4204;-1.3776;-2.6304;9.3463;-1.4926;1.2843;-1.8749;-1.0048;-0.7694;-2.1135;135984.0;-2.94;-14.64;-66.04;158.43;15.56;8.38;5.0;986.58;50.242;35.955914;-83.927795;800.91;NaN;;4.25;12.226105;64.0;14 / 20;43521;2022-10-12 12:44:32:879
-0.449;-2.5917;8.0859;-3.7039;1.9623;8.8657;3.2296;-4.7269;-0.6303;1.161;0.2282;1.017;132013.0;-4.11;-8.64;-66.3;108.92;0.55;21.53;5.0;986.57;49.938;35.955914;-83.927795;800.91;NaN;;4.25;12.226105;64.0;14 / 20;44021;2022-10-12 12:44:33:379
-5.6919;-0.7768;9.8339;-1.4384;-3.3232;9.1136;0.3747;2.2297;0.3256;-1.0128;-0.2069;-3.3758;139215.0;-3.66;-10.76;-56.49;156.3;19.81;8.97;5.0;986.61;51.098;35.95592;-83.92777;800.17;NaN;;4.46;12.226105;43.2;14 / 20;44522;2022-10-12 12:44:33:880
0.4155;-3.323;7.5365;-3.4986;1.6957;9.0031;3.2214;-5.9063;-1.2289;1.0601;-0.244;2.1905;32171.002;-7.57;0.09;-56.85;99.27;5.56;22.71;5.0;986.55;50.196;35.95592;-83.92777;800.17;NaN;;4.46;12.226105;43.2;14 / 20;45022;2022-10-12 12:44:34:380
-5.6596;-3.1196;8.8128;-1.0811;-2.4889;9.4237;0.2809;1.1227;0.714;-1.3058;0.2068;-3.9248;21029.0;-6.43;-6.24;-51.19;147.51;14.7;6.54;5.0;986.58;50.351;35.95593;-83.927765;801.35;NaN;;4.25;12.226105;46.6;14 / 20;45522;2022-10-12 12:44:34:880
0.7863;-2.7736;7.5054;-2.7721;1.521;9.2829;2.0459;-6.3357;0.0593;1.3393;-0.263;3.8202;111011.99;-9.28;1.97;-50.42;68.55;-8.92;16.63;5.0;986.57;50.514;35.95593;-83.927765;801.35;NaN;;4.25;12.226105;46.6;14 / 20;46023;2022-10-12 12:44:35:381
-7.5628;0.0072;9.4986;-0.1558;-3.2648;9.2459;-6.2639;2.2544;-0.879;-1.1923;-1.1887;-1.4436;114828.01;-0.41;-6.0;-48.86;142.11;9.48;12.65;5.0;986.56;51.881;35.955936;-83.92775;801.11;NaN;;4.28;12.226105;53.5;14 / 20;46521;2022-10-12 12:44:35:879
-0.1029;-2.6503;8.6234;-3.1043;1.154;9.2305;2.5343;-4.4032;-0.3389;1.2318;0.0524;1.9976;112528.0;-3.51;1.37;-46.24;103.61;7.6;19.22;5.0;986.57;50.467;35.955936;-83.92775;801.11;NaN;;4.28;12.226105;53.5;14 / 20;47022;2022-10-12 12:44:36:380
-4.2173;-0.3963;9.7881;-0.548;-3.8187;9.016;-3.1246;3.1053;0.6225;-0.7833;-0.3745;-1.4686;114634.0;-4.14;-4.58;-36.45;144.65;15.28;9.58;5.0;986.57;49.859;35.955944;-83.92774;801.5;NaN;;4.28;12.226105;58.0;15 / 20;47521;2022-10-12 12:44:36:879
-0.2644;-3.3529;7.6074;-3.8583;0.0065;9.0158;-0.6491;-5.0369;1.3977;0.9422;0.2167;4.0618;113565.01;-7.95;0.6;-32.85;87.13;-0.04;23.17;5.0;986.6;51.202;35.955944;-83.92774;801.5;NaN;;4.28;12.226105;58.0;15 / 20;48022;2022-10-12 12:44:37:380
-3.0921;-0.291;10.6896;-1.0148;-3.87;8.9534;-1.5058;2.588;0.0179;-1.5587;-0.7275;-1.2968;134112.0;-6.34;3.17;-39.07;100.47;9.32;14.72;5.0;986.57;50.279;35.955956;-83.92773;803.59;NaN;;4.5;12.226105;43.9;15 / 20;48521;2022-10-12 12:44:37:879
-0.0586;-3.4762;7.1249;-3.864;-1.288;8.9208;-2.7371;-5.4038;2.231;0.6948;-0.1963;3.0994;123801.0;-17.44;11.64;-42.17;76.55;7.55;23.42;5.0;986.58;50.391;35.955956;-83.92773;803.59;NaN;;4.5;12.226105;43.9;15 / 20;49021;2022-10-12 12:44:38:379
-2.9578;-1.5179;9.4328;-2.014;-3.302;9.0117;-0.2895;0.9277;3.5162;-1.1698;-0.3026;-1.4401;141316.0;-2.1;1.13;-55.07;140.61;19.68;12.6;5.0;986.57;51.467;35.955963;-83.92772;804.53;NaN;;4.39;12.226105;47.1;15 / 20;49522;2022-10-12 12:44:38:880
-1.2018;-4.1812;7.174;-3.8827;0.3888;8.9969;0.9101;-5.567;-0.1313;1.3342;0.0864;3.1532;102239.0;-7.01;12.06;-48.82;93.18;16.63;18.08;5.0;986.58;50.654;35.955963;-83.92772;804.53;NaN;;4.39;12.226105;47.1;15 / 20;50021;2022-10-12 12:44:39:379
-3.3673;-1.6962;11.1063;-2.0573;-3.0275;9.0979;-0.9317;-1.3753;0.7283;-2.2903;-1.2545;-1.7872;142881.0;5.78;4.14;-40.43;161.05;17.98;12.74;5.0;986.61;49.981;35.95597;-83.927704;803.95;NaN;;4.54;12.226105;38.5;15 / 20;50522;2022-10-12 12:44:39:880
-0.8596;-5.0779;7.5882;-4.1733;-0.8336;8.8351;0.2763;-6.0403;1.6201;0.9443;0.2915;4.1515;106220.0;-2.89;17.21;-33.28;73.75;23.36;14.3;5.0;986.59;49.09;35.95597;-83.927704;803.95;NaN;;4.54;12.226105;38.5;15 / 20;51022;2022-10-12 12:44:40:380
-2.9088;-1.3549;9.6805;-2.021;-1.0916;9.5339;1.4699;-0.7872;-1.7919;-1.8077;-0.0457;-2.3921;137323.0;10.01;13.11;-35.62;345.2;6.39;11.97;5.0;986.62;50.607;35.955982;-83.9277;804.39;NaN;;3.92;12.226105;31.9;14 / 20;51523;2022-10-12 12:44:40:881
-2.9578;-5.9387;10.127;-3.4937;-0.7143;9.1353;-1.3325;-5.5498;3.9271;1.7819;1.0693;3.2241;79626.0;-6.73;26.23;-33.15;37.52;4.18;20.93;5.0;986.57;51.51;35.955982;-83.9277;804.39;NaN;;3.92;12.226105;31.9;14 / 20;52021;2022-10-12 12:44:41:379
-1.0582;-1.9259;11.9237;-1.1525;-3.6894;9.0128;-0.1691;2.0198;2.464;-1.1513;-0.0126;-2.4345;140193.0;8.74;12.41;-47.21;36.49;8.85;14.84;5.0;986.58;51.207;35.955994;-83.92769;803.82;NaN;;4.21;12.226105;37.8;14 / 20;52521;2022-10-12 12:44:41:879
-4.4889;-5.2729;9.8133;-2.9392;-2.6773;8.9646;-4.9878;-3.4083;2.7988;0.6358;1.1304;2.9715;87597.0;-7.48;22.13;-45.43;63.99;15.84;18.15;5.0;986.61;51.174;35.955994;-83.92769;803.82;NaN;;4.21;12.226105;37.8;14 / 20;53023;2022-10-12 12:44:42:381
-1.4234;-2.1069;6.9535;-2.0646;-2.0987;9.3543;0.5092;-0.8406;-1.1531;-1.4369;-0.8479;-1.3754;134887.0;7.29;6.49;-48.07;53.84;0.02;18.01;5.0;986.58;50.811;35.956;-83.92768;804.57;NaN;;4.0;12.226105;40.9;14 / 20;53523;2022-10-12 12:44:42:881
-2.886;-5.1293;10.643;-2.5042;-3.0925;8.963;-1.8918;-0.9693;3.7256;2.0261;1.0685;1.7796;74277.0;-2.57;19.11;-38.57;64.3;18.38;15.61;5.0;986.54;50.954;35.956;-83.92768;804.57;NaN;;4.0;12.226105;40.9;14 / 20;54022;2022-10-12 12:44:43:380
-2.3055;-2.0004;9.5333;-2.1388;-2.4278;9.2575;0.1475;-1.2822;2.3652;-1.6153;-0.6374;-1.7094;140754.0;8.33;8.16;-39.11;24.2;-2.68;17.97;5.0;986.6;49.308;35.95601;-83.92767;804.86;NaN;;4.18;12.226105;39.4;14 / 20;54521;2022-10-12 12:44:43:879
-1.7979;-3.9036;7.9723;-2.1668;-2.8317;9.1355;-4.2093;0.4682;4.5522;0.7877;0.1388;3.3833;87038.0;-2.91;20.98;-34.01;45.03;16.78;13.34;5.0;986.56;49.241;35.95601;-83.92767;804.86;NaN;;4.18;12.226105;39.4;14 / 20;55022;2022-10-12 12:44:44:380
-2.5499;-1.0415;9.5118;-2.3179;-1.5834;9.3963;0.403;-0.8162;0.1777;-1.3302;-0.4847;-1.5726;138258.0;7.74;5.55;-42.73;114.03;9.29;13.86;5.0;986.58;49.241;35.95602;-83.927666;805.6;NaN;;4.14;12.226105;36.2;14 / 20;55521;2022-10-12 12:44:44:879
-2.0841;-4.9893;8.5744;-3.7332;-0.648;9.0451;-1.4012;-4.9872;2.614;1.401;1.2411;2.9144;95731.0;-1.59;15.39;-40.71;89.77;20.34;7.6;5.0;986.54;50.829;35.95602;-83.927666;805.6;NaN;;4.14;12.226105;36.2;14 / 20;56021;2022-10-12 12:44:45:379
-3.7564;-1.9283;12.0314;-2.1612;-1.1626;9.4946;1.2905;-3.3618;-0.4049;-2.0033;-0.5385;-1.9542;142563.0;6.32;-0.21;-40.48;40.49;-10.26;17.18;5.0;986.56;51.037;35.956028;-83.92766;804.57;NaN;;4.21;12.226105;43.9;14 / 20;56521;2022-10-12 12:44:45:879
-3.9419;-4.538;11.0764;-2.0899;-2.3813;9.2807;-3.2121;0.3194;3.7798;1.4188;0.7698;1.8561;93725.0;-2.83;9.69;-38.78;151.68;25.42;1.66;5.0;986.58;50.11;35.956028;-83.92766;804.57;NaN;;4.21;12.226105;43.9;14 / 20;57021;2022-10-12 12:44:46:379
-2.703;-1.7764;7.8491;-2.9573;1.2648;9.2642;1.9224;-4.7394;-0.861;-0.2136;0.0256;-0.972;132580.0;-0.08;0.24;-34.89;68.0;-7.41;17.7;5.0;986.57;49.587;35.956036;-83.92765;805.77;NaN;;4.25;12.226105;39.2;14 / 20;57521;2022-10-12 12:44:46:879
-5.9172;-2.9004;11.8137;-1.0096;-3.9552;8.9167;-5.6979;0.3074;4.9674;0.1991;1.0246;-0.1513;99262.0;-9.58;5.61;-29.68;114.54;23.79;6.46;5.0;986.58;49.592;35.956036;-83.92765;805.77;NaN;;4.25;12.226105;39.2;14 / 20;58021;2022-10-12 12:44:47:379
-1.5754;-5.9028;9.6553;-3.1455;-0.9563;9.2391;2.1058;-3.8228;-0.5594;-1.2807;-0.344;-1.6362;136490.0;-7.2;7.8;-33.26;60.34;-5.23;21.28;5.0;986.57;50.249;35.956047;-83.92764;805.11;NaN;;3.96;12.226105;37.4;14 / 20;58521;2022-10-12 12:44:47:879
-8.7206;-5.6297;16.5383;0.1254;-5.1021;8.374;-5.8702;3.83;2.4712;-0.3362;0.3964;-0.7674;103929.0;-12.08;10.59;-34.12;126.13;31.35;-0.86;5.0;986.58;50.339;35.956047;-83.92764;805.11;NaN;;3.96;12.226105;37.4;14 / 20;59022;2022-10-12 12:44:48:380
-1.3693;-5.3255;8.493;-3.2598;0.5433;9.2331;2.5135;-4.2603;-2.1378;-0.2871;-0.2616;-1.0464;132165.0;-4.97;12.68;-36.99;47.65;-6.36;21.37;5.0;986.55;49.473;35.956055;-83.927635;805.23;NaN;;4.25;12.226105;27.4;14 / 20;59521;2022-10-12 12:44:48:879
-7.3331;-2.3174;10.1234;0.2152;-5.0585;8.3986;-4.7962;3.042;0.7643;-0.6357;-0.4652;-1.2567;104874.0;-5.85;18.86;-34.37;104.58;31.05;-1.47;5.0;986.58;49.246;35.956055;-83.927635;805.23;NaN;;4.25;12.226105;27.4;14 / 20;60022;2022-10-12 12:44:49:380
0.3329;-3.6823;7.9591;-1.6807;2.7591;9.2592;2.1333;-5.8041;-3.7453;0.2853;-1.2567;1.3272;119386.99;-1.01;16.24;-32.74;31.65;-9.13;20.92;5.0;986.56;49.789;35.956062;-83.927635;804.58;NaN;;4.07;12.226105;35.9;15 / 20;60522;2022-10-12 12:44:49:880
-5.2095;-0.1328;10.6813;0.5275;-3.9441;8.9631;-3.4878;1.125;0.0843;-0.8372;-0.2899;-0.5293;86311.0;3.15;5.18;-31.03;211.7;23.71;-3.37;5.0;986.58;50.759;35.956062;-83.927635;804.58;NaN;;4.07;12.226105;35.9;15 / 20;61021;2022-10-12 12:44:50:379
0.9039;-2.7305;8.1855;-1.3511;2.1475;9.4728;0.8774;-7.2946;-2.4471;1.4093;-1.394;2.7468;100830.0;-0.3;9.99;-27.77;14.03;-12.65;8.12;5.0;986.58;50.837;35.956078;-83.92763;803.44;NaN;;4.07;12.226105;18.0;15 / 20;61523;2022-10-12 12:44:50:881
-2.2875;0.2862;10.2383;1.1626;-1.3533;9.643;-1.1769;2.3801;0.8801;-0.7496;-0.1994;-3.7769;86689.0;-13.65;2.83;-32.23;81.48;2.05;-3.19;5.0;986.55;49.952;35.956078;-83.92763;803.44;NaN;;4.07;12.226105;18.0;15 / 20;62021;2022-10-12 12:44:51:379
2.3031;-1.7871;8.6569;-1.1352;1.4748;9.6284;1.3949;-4.011;-1.072;1.1176;-0.0863;3.5135;95476.0;-19.37;4.56;-33.54;84.05;4.7;7.41;5.0;986.59;49.83;35.95609;-83.92761;802.86;NaN;;4.32;12.226105;38.9;15 / 20;62521;2022-10-12 12:44:51:879
-4.1213;0.1412;9.7941;1.1665;-2.83;9.3167;-2.4377;2.5617;-0.3705;-1.3685;-0.8091;-1.0938;100269.0;-12.66;11.87;-44.23;62.4;6.6;0.18;5.0;986.52;52.276;35.95609;-83.92761;802.86;NaN;;4.32;12.226105;38.9;15 / 20;63022;2022-10-12 12:44:52:380
0.1795;-2.6013;7.6469;-1.9915;-0.0776;9.602;0.3976;-3.2231;0.1001;1.423;0.4518;2.2306;67559.0;-16.33;18.49;-41.06;53.57;0.45;11.72;5.0;986.52;52.9;35.956097;-83.927605;802.97;NaN;;3.71;12.226105;37.6;15 / 20;63521;2022-10-12 12:44:52:879
-2.7712;-1.6723;9.2195;0.0597;-2.6784;9.4336;-1.0564;1.2308;-2.0261;-1.5354;-0.8692;-1.455;115534.0;-5.79;9.21;-45.22;122.51;15.85;-0.36;5.0;986.56;58.494;35.956097;-83.927605;802.97;NaN;;3.71;12.226105;37.6;15 / 20;64023;2022-10-12 12:44:53:381
0.8644;-3.0296;9.9009;-1.6284;1.7073;9.5186;2.6171;-4.7765;0.0464;1.9232;0.1523;0.704;66929.0;-16.09;17.18;-38.53;58.46;5.7;8.71;5.0;986.55;64.782;35.956104;-83.927605;802.04;NaN;;3.92;12.226105;36.5;15 / 20;64522;2022-10-12 12:44:53:880
-3.8031;-0.8465;11.5612;0.1844;-3.6434;9.1029;-0.2403;1.644;0.6987;-2.1035;-0.1225;-2.4199;109994.99;-0.94;9.84;-42.62;178.9;21.81;-1.16;5.0;986.56;51.227;35.956104;-83.927605;802.04;NaN;;3.92;12.226105;36.5;15 / 20;65022;2022-10-12 12:44:54:380
0.449;-3.5276;6.5683;-2.2524;1.2226;9.4658;2.0638;-6.1174;-0.6199;1.8386;0.1513;1.7994;53903.0;-9.69;23.14;-35.1;45.57;10.44;12.15;5.0;986.49;51.276;35.956112;-83.9276;799.66;NaN;;4.1;12.226105;46.6;15 / 20;65522;2022-10-12 12:44:54:880
-3.9048;-2.4012;9.7786;-0.5973;-3.2455;9.2347;1.2548;-0.2053;3.8962;-1.4896;0.3088;-3.073;98146.0;2.19;6.96;-43.18;174.17;19.33;3.7;5.0;986.59;56.846;35.956112;-83.9276;799.66;NaN;;4.1;12.226105;46.6;15 / 20;66022;2022-10-12 12:44:55:380
0.6535;-4.3681;8.6186;-2.5411;-0.4344;9.4617;0.5614;-5.7006;0.4926;1.4095;-0.2984;4.0211;72163.0;-8.38;16.31;-40.69;81.86;19.4;9.54;5.0;986.5;57.786;35.95612;-83.92759;798.69;NaN;;4.03;12.226105;42.3;15 / 20;66521;2022-10-12 12:44:55:879
-3.5001;-4.4806;9.7582;-1.1331;-2.7993;9.3301;1.481;0.1203;0.8036;-0.9699;0.5066;-4.016;103501.0;1.01;3.53;-39.17;152.91;16.59;6.92;5.0;986.56;53.559;35.95612;-83.92759;798.69;NaN;;4.03;12.226105;42.3;15 / 20;67021;2022-10-12 12:44:56:379
-2.8537;-8.8582;10.3869;-2.6189;-2.5314;9.1051;-3.5604;-5.5828;3.1142;1.1366;-0.2605;5.6793;75927.0;-9.84;11.53;-32.49;76.68;14.96;16.05;5.0;986.56;52.448;35.956127;-83.92758;798.63;NaN;;4.07;12.226105;40.8;15 / 20;67521;2022-10-12 12:44:56:879
-0.9613;-6.172;7.922;-0.3395;-3.694;9.078;2.5176;-0.9945;-0.2628;-2.2321;0.046;-4.3447;119181.01;4.88;8.42;-30.04;348.92;2.06;6.92;5.0;986.54;53.181;35.956127;-83.92758;798.63;NaN;;4.07;12.226105;40.8;15 / 20;68021;2022-10-12 12:44:57:379
-0.9697;-9.3156;9.9356;-0.9673;-5.2119;8.2505;-5.9808;-0.6577;3.1033;0.8402;0.5362;4.1918;99023.0;-9.99;12.77;-21.97;150.2;34.29;-20.58;5.0;986.52;55.9;35.95614;-83.927574;797.42;NaN;;4.07;12.226105;29.9;15 / 20;68522;2022-10-12 12:44:57:880
3.6126;-3.9897;12.3978;-0.8718;-2.2044;9.5158;1.3091;-1.9946;0.8977;-1.4359;0.4917;-1.3236;109580.01;-0.79;12.3;-25.88;6.56;-5.02;1.4;5.0;986.56;56.486;35.95614;-83.927574;797.42;NaN;;4.07;12.226105;29.9;15 / 20;69022;2022-10-12 12:44:58:380
-8.0608;-6.6497;13.0549;-0.6797;-3.7335;9.0426;-8.6044;1.2283;5.3909;1.2346;1.4122;1.3003;84825.0;-10.07;15.23;-21.82;63.46;22.38;4.3;5.0;986.54;59.771;35.956146;-83.92757;798.88;NaN;;4.25;12.226105;47.9;15 / 20;69522;2022-10-12 12:44:58:880
-0.3209;-1.1683;11.2164;-1.436;2.1745;9.4541;2.8754;-2.7734;-3.633;-1.9387;-0.3357;-1.4227;135916.0;0.88;1.82;-39.26;24.8;-12.81;8.64;5.0;986.53;59.584;35.956146;-83.92757;798.88;NaN;;4.25;12.226105;47.9;15 / 20;70021;2022-10-12 12:44:59:379
-9.92;-2.1679;13.2227;-2.7528;-0.5666;9.3953;-6.1304;-2.2255;3.5488;1.0109;2.1173;4.6517;96147.0;-10.67;2.83;-39.13;146.56;16.9;-7.52;5.0;986.52;62.892;35.956158;-83.92755;797.41;NaN;;4.21;12.226105;40.9;16 / 20;70521;2022-10-12 12:44:59:879
-1.6484;-2.0578;9.69;-2.306;3.1028;9.0125;2.6108;-6.0299;-3.4256;-2.0723;-0.3789;-0.9477;143477.0;-1.99;-3.58;-39.58;54.97;-18.45;14.35;5.0;986.5;62.23;35.956158;-83.92755;797.41;NaN;;4.21;12.226105;40.9;16 / 20;71023;2022-10-12 12:45:00:381
-6.5276;-6.5037;13.2431;-2.9673;-1.0965;9.2824;-4.2587;-2.0916;3.346;1.6975;1.6496;3.9295;91036.0;-13.5;7.59;-33.07;117.51;23.65;-3.5;5.0;986.52;58.954;35.956165;-83.92755;798.46;NaN;;4.07;12.226105;33.7;16 / 20;71522;2022-10-12 12:45:00:880
-1.7345;-1.9379;11.9321;-2.1495;1.9162;9.3743;2.4374;-7.032;-1.9731;-2.0238;-0.4636;-1.6055;144333.0;0.49;4.48;-41.32;37.99;-11.27;12.91;5.0;986.54;53.77;35.956165;-83.92755;798.46;NaN;;4.07;12.226105;33.7;16 / 20;72022;2022-10-12 12:45:01:380
-4.6134;-4.7151;11.7203;-1.3877;-1.771;9.5451;-7.3975;0.8474;3.9616;1.7203;1.9534;3.1419;90072.0;-11.89;10.37;-38.57;154.84;23.07;-12.65;5.0;986.53;61.722;35.956177;-83.927536;797.84;NaN;;4.32;12.226105;45.2;16 / 20;72521;2022-10-12 12:45:01:879
5.9112;-1.7261;9.7965;2.7615;3.6073;8.6909;-3.0269;-9.138;-2.1479;-1.754;1.7496;-2.883;100732.0;-9.43;0.88;-38.18;349.13;-21.58;-17.63;5.0;986.54;55.471;35.956177;-83.927536;797.84;NaN;;4.32;12.226105;45.2;16 / 20;73021;2022-10-12 12:45:02:379
-4.2473;-3.0846;12.5916;-0.3157;-1.8915;9.6173;-6.7078;4.5077;4.1181;1.0584;1.8209;1.3077;75077.0;-12.19;5.01;-34.59;97.65;11.12;1.88;5.0;986.56;53.063;35.956184;-83.927536;800.32;NaN;;4.1;12.226105;38.9;16 / 20;73521;2022-10-12 12:45:02:879
-2.6659;-0.5255;12.8264;-1.7412;0.6293;9.6303;0.8247;-1.0439;1.7879;-1.5677;0.054;-2.9521;128026.99;0.86;1.29;-30.45;7.06;-24.04;5.01;5.0;986.58;50.059;35.956184;-83.927536;800.32;NaN;;4.1;12.226105;38.9;16 / 20;74021;2022-10-12 12:45:03:379
-5.5974;-4.1704;14.5202;-0.0823;-1.9464;9.6112;-9.0643;3.5983;5.1587;0.9294;2.1209;0.2075;94754.0;-5.61;7.48;-25.74;140.07;17.67;-10.44;5.0;986.58;50.104;35.956192;-83.92752;799.99;NaN;;4.1;12.226105;47.4;16 / 20;74523;2022-10-12 12:45:03:881
0.3353;0.0;9.3562;-1.3533;3.1148;9.1999;1.3864;-5.9832;-1.8955;-2.5037;-0.2056;-2.9387;133015.0;-1.14;3.41;-30.24;4.61;-35.47;1.15;5.0;986.53;50.014;35.956192;-83.92752;799.99;NaN;;4.1;12.226105;47.4;16 / 20;75022;2022-10-12 12:45:04:380
-7.8718;0.5853;13.4513;0.9594;-2.1845;9.512;-10.2486;4.182;0.7833;-0.0454;0.7171;0.3033;101763.0;-15.22;8.18;-28.71;85.07;12.87;-5.76;5.0;986.58;50.045;35.9562;-83.92752;801.03;NaN;;4.32;12.226105;27.5;16 / 20;75523;2022-10-12 12:45:04:881
0.1484;-1.7034;6.4726;-1.4623;4.3964;8.6431;1.6584;-6.6951;-1.0267;-0.6396;-0.5743;-1.3885;10061.0;2.85;5.25;-39.45;9.19;-26.64;9.6;5.0;986.55;49.745;35.9562;-83.92752;801.03;NaN;;4.32;12.226105;27.5;16 / 20;76022;2022-10-12 12:45:05:380
-5.2573;1.78;13.7192;-0.1692;-1.6426;9.6666;-4.4501;6.8139;4.4479;1.5348;1.2809;1.0935;7805.0;-1.46;11.38;-41.21;340.99;10.02;-3.18;5.0;986.59;49.442;35.956207;-83.92751;803.92;NaN;;4.32;12.226105;38.9;16 / 20;76522;2022-10-12 12:45:05:880
-1.2269;-4.2915;10.5592;-2.187;2.5914;9.2018;1.4401;-5.4224;0.7641;0.13;-0.1309;-0.7075;6977.0;5.1;8.36;-45.43;10.88;-26.12;12.92;5.0;986.57;49.594;35.956207;-83.92751;803.92;NaN;;4.32;12.226105;38.9;16 / 20;77021;2022-10-12 12:45:06:379
-7.7115;2.3294;15.9757;1.0895;-2.8148;9.3306;-7.2395;4.9333;0.9167;0.4939;1.2842;0.0854;7343.0;-1.54;8.74;-46.12;216.29;16.68;-6.66;5.0;986.56;50.443;35.956215;-83.9275;803.38;NaN;;4.25;12.226105;45.6;16 / 20;77522;2022-10-12 12:45:06:880
-0.1926;-2.5989;7.0184;-0.8979;4.9403;8.4236;0.0692;-7.285;-1.1939;0.8719;-0.3791;0.9469;103839.0;1.37;-3.28;-45.79;10.72;-30.25;6.08;5.0;986.56;51.276;35.956215;-83.9275;803.38;NaN;;4.25;12.226105;45.6;16 / 20;78022;2022-10-12 12:45:07:380
-7.5763;3.7493;15.7675;-0.0319;-2.6416;9.4441;-4.4238;4.373;-0.4617;-0.6702;-0.1983;-0.6996;125484.01;-0.22;-4.48;-46.01;179.45;15.63;0.19;5.0;986.57;49.273;35.956223;-83.92749;802.52;NaN;;4.18;12.226105;55.0;16 / 20;78523;2022-10-12 12:45:07:881
1.7895;-3.3996;7.7713;-1.7428;5.56;7.888;1.0884;-6.5308;0.7649;-1.0205;-1.3285;-0.5505;146501.0;-0.41;-1.52;-42.26;42.79;-24.61;18.94;5.0;986.58;51.002;35.956223;-83.92749;802.52;NaN;;4.18;12.226105;55.0;16 / 20;79022;2022-10-12 12:45:08:380
-7.9436;3.1316;14.9022;0.5549;-2.8154;9.3774;-8.6564;5.9029;3.5155;-1.6769;-1.3309;-0.2695;120233.0;-5.16;-5.87;-37.39;173.9;11.34;-5.53;5.0;986.57;51.605;35.95624;-83.92749;802.29;NaN;;7.13;12.226105;358.3;16 / 20;79522;2022-10-12 12:45:08:880
-1.3525;-4.5846;7.7557;-1.9993;5.841;7.6194;1.7516;-7.8839;0.2063;0.4165;-0.245;0.0076;143499.0;-3.58;-0.81;-37.97;33.41;-36.56;14.7;5.0;986.58;50.531;35.95624;-83.92749;802.29;NaN;;7.13;12.226105;358.3;16 / 20;80022;2022-10-12 12:45:09:380
-1.7345;3.8797;19.8374;-1.0996;-4.9843;8.3736;-5.8463;8.2588;3.2521;-1.8847;-0.1248;-0.6948;127917.01;-2.64;2.7;-35.7;154.08;21.52;3.23;5.0;986.59;52.541;35.956253;-83.92748;801.08;NaN;;4.25;12.226105;14.7;16 / 20;80522;2022-10-12 12:45:09:880
-1.0271;-2.5331;9.1143;-1.771;4.2645;8.6515;0.245;-6.4091;-0.164;1.3735;-0.0816;-0.1361;126573.01;-2.49;14.44;-31.89;17.82;-25.78;11.57;5.0;986.55;51.71;35.956253;-83.92748;801.08;NaN;;4.25;12.226105;14.7;16 / 20;81022;2022-10-12 12:45:10:380
-7.9926;4.0579;12.0147;-1.5334;-2.3186;9.4044;-6.8821;6.7615;0.5482;-0.8325;-0.2125;-1.1222;126285.01;-2.72;1.86;-42.17;136.1;13.63;6.21;5.0;986.56;51.562;35.95626;-83.927475;800.94;NaN;;4.64;12.226105;43.4;16 / 20;81522;2022-10-12 12:45:10:880
-1.6914;-1.9116;9.3706;-3.2343;3.9145;8.3896;2.1723;-5.5518;0.2075;0.6548;-0.0673;-0.3492;115230.0;0.56;-3.51;-44.25;49.18;-23.53;21.08;5.0;986.58;51.086;35.95626;-83.927475;800.94;NaN;;4.64;12.226105;43.4;16 / 20;82022;2022-10-12 12:45:11:380
-5.7194;1.427;10.1354;0.8007;-2.9676;9.3125;-4.8656;3.9672;0.9138;-0.4623;0.5352;-1.5356;124403.99;-4.74;-2.72;-42.17;138.95;9.66;4.98;5.0;986.57;51.083;35.95627;-83.92747;801.71;NaN;;4.14;12.226105;44.0;16 / 20;82522;2022-10-12 12:45:11:880
-0.4765;-2.4909;8.0297;-2.8067;3.2207;8.8272;2.5961;-5.5279;-0.9167;1.3301;-0.0815;0.6011;114995.99;-4.67;10.65;-38.04;40.68;-12.8;16.96;5.0;986.57;51.247;35.95627;-83.92747;801.71;NaN;;4.14;12.226105;44.0;16 / 20;83022;2022-10-12 12:45:12:380
-2.4933;1.9657;12.1226;0.8719;-3.8626;8.9717;-3.1382;3.8129;2.207;-0.9396;0.08;-1.8754;134544.0;1.63;12.08;-35.59;241.21;23.2;-5.55;5.0;986.56;52.348;35.956276;-83.927444;802.31;NaN;;4.18;12.226105;41.2;16 / 20;83522;2022-10-12 12:45:12:880
1.0702;-1.8314;7.2829;-0.9924;2.6125;9.4;1.918;-4.7372;-1.7666;1.087;-0.5085;2.6764;115054.0;-10.44;19.37;-41.55;26.21;-15.45;6.03;5.0;986.57;50.933;35.956276;-83.927444;802.31;NaN;;4.18;12.226105;41.2;16 / 20;84022;2022-10-12 12:45:13:380
-3.7457;-0.274;8.9073;-0.5183;-2.3566;9.5052;-0.0839;2.1173;0.1654;-0.851;-0.103;-2.1017;109157.01;3.54;25.91;-57.69;355.76;13.9;3.12;5.0;986.58;51.182;35.956287;-83.92744;802.29;NaN;;4.57;12.226105;40.2;16 / 20;84523;2022-10-12 12:45:13:881
-0.0203;-2.3258;6.8064;-2.1321;1.8108;9.3992;0.7478;-5.2704;-0.2093;1.2334;-0.0038;1.1492;11226.0;-8.81;37.65;-62.76;38.32;5.09;15.83;5.0;986.53;51.717;35.956287;-83.92744;802.29;NaN;;4.57;12.226105;40.2;16 / 20;85023;2022-10-12 12:45:14:381
-2.8669;2.5857;8.9097;-1.7428;-2.5387;9.3106;-2.6445;5.2862;-1.2498;0.5452;-0.1646;-1.7069;112562.99;27.88;-0.97;-83.17;207.46;14.24;11.03;5.0;986.55;51.251;35.956295;-83.92742;800.94;NaN;;4.61;12.226105;45.4;16 / 20;85522;2022-10-12 12:45:14:880
-0.0443;-1.3131;7.3032;-3.2586;1.4122;9.141;-0.3773;-5.8493;-0.6601;0.8963;-0.2763;1.974;34900.0;37.58;16.84;-72.6;338.45;-8.28;19.62;5.0;986.57;51.583;35.956295;-83.92742;800.94;NaN;;4.61;12.226105;45.4;16 / 20;86021;2022-10-12 12:45:15:379
-3.3517;-0.699;9.9236;-0.653;-2.9538;9.3284;-1.7546;2.5269;0.4753;-1.4174;-0.5588;-3.0487;136422.0;38.94;-16.26;-58.24;228.35;5.45;13.06;5.0;986.57;51.06;35.956303;-83.927414;801.95;NaN;;4.03;12.226105;34.9;16 / 20;86521;2022-10-12 12:45:15:879
-1.3944;-4.022;8.8056;-3.633;-0.3189;9.1033;-2.7387;-5.833;3.8616;1.0251;-0.1361;4.6979;103327.0;29.03;19.43;-61.86;346.73;1.86;21.76;5.0;986.56;50.64;35.956303;-83.927414;801.95;NaN;;4.03;12.226105;34.9;16 / 20;87022;2022-10-12 12:45:16:380
-1.8673;0.3102;7.4288;-1.0246;-0.8338;9.7173;-0.7078;0.9827;1.0758;-1.2442;0.0741;-2.9154;137480.0;12.51;-22.05;-41.94;203.98;-8.26;8.16;5.0;986.57;51.611;35.95631;-83.92741;802.3;NaN;;3.89;12.226105;37.7;16 / 20;87522;2022-10-12 12:45:16:880
-2.6827;-3.7828;11.3312;-2.1783;-0.8073;9.5275;-4.3426;-1.923;5.2726;2.1374;0.8703;3.7639;78128.0;9.13;-0.66;-44.02;167.59;4.72;12.88;5.0;986.59;50.415;35.95631;-83.92741;802.3;NaN;;3.89;12.226105;37.7;16 / 20;88022;2022-10-12 12:45:17:380
-1.3286;-1.7608;12.0422;-1.1023;-1.2964;9.6579;1.0771;0.1071;5.4693;-1.8925;-0.4624;-3.4502;135545.0;4.56;-14.94;-32.85;199.75;-14.23;4.7;5.0;986.57;52.953;35.95632;-83.9274;801.78;NaN;;4.32;12.226105;45.1;16 / 20;88522;2022-10-12 12:45:17:880
-4.3107;-6.7992;10.899;-2.8639;1.1546;9.3078;-2.085;-8.2519;2.4856;2.5478;1.7364;3.1753;63345.0;2.16;1.41;-29.36;160.28;16.09;8.95;5.0;986.59;51.097;35.95632;-83.9274;801.78;NaN;;4.32;12.226105;45.1;16 / 20;89022;2022-10-12 12:45:18:380
-3.0141;-2.7951;14.3719;-1.7016;-0.133;9.657;2.6889;-3.7304;-1.7015;-2.6457;-1.1466;-2.7217;135471.0;10.82;4.07;-23.81;298.71;0.78;9.99;5.0;986.6;50.241;35.95633;-83.92739;800.01;NaN;;3.96;12.226105;40.7;16 / 20;89521;2022-10-12 12:45:18:879
-6.8088;-6.8124;13.5733;-2.7421;-0.4796;9.4033;-3.8146;-4.0487;5.7359;2.3376;2.2079;0.6144;54545.0;-1.37;24.39;-15.11;12.5;2.8;16.26;5.0;986.6;49.78;35.95633;-83.92739;800.01;NaN;;3.96;12.226105;40.7;16 / 20;90021;2022-10-12 12:45:19:379
-1.8601;0.6547;9.7128;-0.6704;1.9236;9.5927;0.8217;-5.378;-2.0711;-1.3578;0.5384;-2.3537;130801.0;19.76;10.48;-28.61;311.3;-11.31;4.0;5.0;986.57;48.903;35.95634;-83.92738;798.4;NaN;;3.92;12.226105;40.6;16 / 20;90522;2022-10-12 12:45:19:880
-4.4614;-2.5271;12.5701;-1.0975;-1.531;9.624;-2.975;2.3534;6.4661;2.0248;1.2847;0.8731;83155.0;20.31;25.46;-29.32;308.02;17.3;1.33;5.0;986.58;51.023;35.95634;-83.92738;798.4;NaN;;3.92;12.226105;40.6;16 / 20;91021;2022-10-12 12:45:20:379
-2.9136;-2.3498;11.6952;-1.4206;-0.6265;9.683;-0.0094;-1.2756;0.8123;-1.8493;-0.2357;-2.7401;127733.01;24.62;12.84;-36.04;319.12;-14.05;8.8;5.0;986.58;50.959;35.95635;-83.927376;798.92;NaN;;3.82;12.226105;46.6;15 / 20;91522;2022-10-12 12:45:20:880
-5.3904;-3.9514;15.425;-0.2933;-3.7301;9.0648;-4.9155;5.1255;5.6593;2.0263;0.7018;1.7811;71087.0;12.04;30.11;-33.28;324.02;22.36;1.85;5.0;986.6;50.154;35.95635;-83.927376;798.92;NaN;;3.82;12.226105;46.6;15 / 20;92022;2022-10-12 12:45:21:380
-2.77;-2.2229;11.4796;-1.408;1.9834;9.5002;0.2956;-6.6181;-1.8862;-0.3518;-0.1145;-1.1272;124869.01;13.76;10.67;-32.29;334.11;-25.93;3.92;5.0;986.58;50.5;35.95636;-83.927376;799.91;NaN;;6.26;12.226105;355.7;15 / 20;92522;2022-10-12 12:45:21:880
-4.5416;0.7134;17.2268;-0.3945;-4.2385;8.8346;-4.0657;8.1488;2.9853;1.313;0.5049;0.8417;70395.0;5.33;12.94;-23.7;287.85;25.61;2.56;5.0;986.61;50.363;35.95636;-83.927376;799.91;NaN;;6.26;12.226105;355.7;15 / 20;93022;2022-10-12 12:45:22:380
-0.5207;-3.3709;7.5942;-0.6098;3.3467;9.1977;1.1265;-5.4726;-3.292;0.2462;-0.3619;-0.3313;57017.0;2.33;8.85;-35.19;355.78;-27.36;0.36;5.0;986.6;50.169;35.95637;-83.927376;799.92;NaN;;4.5;12.226105;21.7;15 / 20;93522;2022-10-12 12:45:22:880
-4.6708;-2.0399;16.7145;-1.5351;-1.7718;9.5223;-0.8309;5.2668;-0.1538;-0.345;0.1676;-0.1468;15260.0;-1.89;12.92;-41.74;58.28;10.41;9.16;5.0;986.61;50.404;35.95637;-83.927376;799.92;NaN;;4.5;12.226105;21.7;15 / 20;94022;2022-10-12 12:45:23:380
-1.4438;-1.5371;9.9188;-1.9612;1.5769;9.4783;1.2542;-2.6533;-1.3855;-0.6894;-0.513;-1.0669;4714.0;-1.12;12.86;-41.42;26.67;-10.07;12.61;5.0;986.61;51.443;35.95638;-83.92737;799.92;NaN;;3.85;12.226105;31.7;15 / 20;94521;2022-10-12 12:45:23:879
-3.5623;0.9721;11.505;-1.2947;-2.7817;9.3143;-2.0943;3.9032;1.3178;-0.7;-0.0216;-0.2433;4745.0;-13.27;17.74;-38.98;64.75;14.22;7.0;5.0;986.62;52.892;35.95638;-83.92737;799.92;NaN;;3.85;12.226105;31.7;15 / 20;95021;2022-10-12 12:45:24:379
-0.7624;-2.016;8.5469;-1.9786;1.5753;9.4749;2.4963;-2.7013;-2.5999;0.0245;-0.2313;-1.2134;4506.0;-0.69;26.87;-42.69;16.31;-9.24;11.8;5.0;986.6;51.519;35.95639;-83.927376;800.61;NaN;;6.77;12.226105;338.5;15 / 20;95522;2022-10-12 12:45:24:880
-4.8793;-0.376;11.5217;-0.6409;-3.3722;9.1863;-1.3951;5.4104;1.4742;-1.0588;-0.3385;-0.4162;4986.0;0.47;29.49;-54.3;23.35;20.11;3.99;5.0;986.57;52.489;35.95639;-83.927376;800.61;NaN;;6.77;12.226105;338.5;15 / 20;96021;2022-10-12 12:45:25:379
0.8895;-1.1109;7.7462;-2.1338;2.6349;9.2019;1.2079;-5.4499;-2.7875;-0.1595;-0.5175;0.7695;5052.0;6.71;21.3;-48.15;6.91;-15.59;13.06;5.0;986.58;50.942;35.956406;-83.927376;801.69;NaN;;4.79;12.226105;11.6;15 / 20;96521;2022-10-12 12:45:25:879
-3.9562;1.6041;9.6781;-0.481;-3.8465;9.0079;-2.8094;3.3941;-0.2473;-0.5363;-0.164;-0.5861;5304.0;0.98;5.29;-50.19;144.86;15.35;7.88;5.0;986.6;50.915;35.956406;-83.927376;801.69;NaN;;4.79;12.226105;11.6;15 / 20;97021;2022-10-12 12:45:26:379
0.8019;-1.5502;6.3562;-2.1848;2.3026;9.2787;2.6463;-4.3807;-2.8217;0.625;-0.2898;2.2994;4630.0;-8.04;12.96;-53.94;50.39;-8.1;17.55;5.0;986.61;50.492;35.956413;-83.92737;803.18;NaN;;4.21;12.226105;25.6;15 / 20;97522;2022-10-12 12:45:26:880
-2.9064;0.5495;9.0951;-0.3597;-3.0213;9.3227;-2.4268;3.0736;-0.4409;-1.0516;-0.1816;-0.8846;5532.0;-9.71;0.04;-54.97;144.23;17.94;2.21;5.0;986.61;51.809;35.956413;-83.92737;803.18;NaN;;4.21;12.226105;25.6;15 / 20;98021;2022-10-12 12:45:27:379
0.6188;-2.0207;7.2553;-1.6829;2.1455;9.4199;1.9589;-4.8426;-2.2461;1.2506;-0.3954;3.09;4377.0;-15.62;1.86;-53.44;82.9;-1.95;14.71;5.0;986.61;52.264;35.95642;-83.92736;802.42;NaN;;4.18;12.226105;47.9;15 / 20;98522;2022-10-12 12:45:27:880
-1.707;0.5459;9.7499;-1.3687;-2.7095;9.325;-1.1289;1.9536;2.0157;-1.3383;-0.1096;-0.834;4996.0;-18.53;-7.37;-45.3;125.79;16.04;8.35;5.0;986.63;52.027;35.95642;-83.92736;802.42;NaN;;4.18;12.226105;47.9;15 / 20;99021;2022-10-12 12:45:28:379
-0.5004;-3.469;6.5492;-2.9654;2.1895;9.0875;0.0188;-5.6635;-0.2665;2.005;0.9763;2.3089;4147.0;-18.3;-2.64;-41.59;103.18;5.71;14.71;5.0;986.6;51.747;35.95643;-83.92735;803.92;NaN;;3.78;12.226105;41.3;15 / 20;99523;2022-10-12 12:45:28:881
-1.7501;0.4298;9.0329;-1.7043;-1.418;9.5528;-2.1353;0.6717;3.6007;-1.3999;-0.6118;-0.6289;4597.0;-14.27;-8.96;-36.86;124.27;8.31;10.12;5.0;986.62;52.367;35.95643;-83.92735;803.92;NaN;;3.78;12.226105;41.3;15 / 20;100023;2022-10-12 12:45:29:381
-1.64;-3.7265;7.1608;-2.9094;1.6244;9.2232;-1.6204;-6.3132;0.047;0.7539;-0.3565;2.8924;3455.0;-12.6;-2.83;-33.92;108.79;7.83;13.76;5.0;986.59;53.531;35.956432;-83.927345;805.66;NaN;;4.03;12.226105;37.4;15 / 20;100522;2022-10-12 12:45:29:880
-3.2249;0.2417;9.7128;-0.6008;-3.207;9.2479;-1.8887;3.4438;0.4883;-1.5063;-0.7074;-1.1143;4313.0;-15.02;-2.57;-26.44;108.36;8.03;8.78;5.0;986.63;52.342;35.956432;-83.927345;805.66;NaN;;4.03;12.226105;37.4;15 / 20;101022;2022-10-12 12:45:30:380
-0.0084;-2.3653;7.29;-2.6453;0.9739;9.3928;-2.2331;-5.4989;3.3926;1.2779;-0.087;2.8864;3556.0;-21.47;2.48;-20.78;82.45;-5.7;15.73;5.0;986.62;54.01;35.95644;-83.92734;805.62;NaN;;4.1;12.226105;35.9;15 / 20;101523;2022-10-12 12:45:30:881
-2.6743;-0.1735;8.8798;-0.6418;-2.2793;9.5165;-1.2905;1.6147;3.1985;-1.9575;-0.2395;-1.2212;4337.0;-19.78;4.29;-33.02;98.84;13.44;3.86;5.0;986.61;53.257;35.95644;-83.92734;805.62;NaN;;4.1;12.226105;35.9;15 / 20;102022;2022-10-12 12:45:31:380
0.1101;-2.5666;7.8275;-2.3773;-0.1423;9.5131;-0.754;-1.3182;5.5059;1.4353;0.3374;3.1502;3315.0;-29.21;4.71;-33.81;82.76;0.83;14.03;5.0;986.61;54.327;35.956448;-83.92733;806.31;NaN;;4.21;12.226105;50.0;15 / 20;102522;2022-10-12 12:45:31:880
-1.1228;0.1436;8.1556;-1.273;-1.8589;9.5443;-1.7884;0.2568;3.3179;-1.494;0.1913;-1.7896;4530.0;-19.76;-3.19;-35.25;90.38;-5.18;9.44;5.0;986.64;55.0;35.956448;-83.92733;806.31;NaN;;4.21;12.226105;50.0;15 / 20;103022;2022-10-12 12:45:32:380
-1.6819;-4.3513;7.6732;-2.9033;1.0681;9.3059;-1.6127;-6.9293;-0.1294;1.6362;0.8309;3.7616;2885.0;-17.55;-2.77;-25.89;107.26;13.28;15.6;5.0;986.65;55.627;35.95645;-83.927315;806.96;NaN;;4.1;12.226105;39.8;15 / 20;103522;2022-10-12 12:45:32:880
-3.3302;-1.2425;11.281;-2.401;-0.7091;9.4817;-0.5451;-2.8195;-1.6102;-2.9561;-1.2076;-0.4991;4405.0;-24.9;-3.28;-32.21;98.49;4.15;14.21;5.0;986.62;54.89;35.95645;-83.927315;806.96;NaN;;4.1;12.226105;39.8;15 / 20;104022;2022-10-12 12:45:33:380
-5.2107;-4.465;10.8547;-3.5815;0.2379;9.1261;-2.9656;-4.811;2.5863;2.4174;2.033;-0.1707;2814.0;-29.1;8.79;-33.6;89.27;16.63;9.72;5.0;986.63;54.65;35.956455;-83.9273;804.67;NaN;;4.79;12.226105;69.8;15 / 20;104522;2022-10-12 12:45:33:880
-3.4463;-1.1001;13.1148;-2.2702;0.7375;9.5117;0.7149;-4.7388;0.1394;-2.0393;-0.2359;-2.014;3956.0;-5.14;15.21;-31.76;35.54;-4.31;13.42;5.0;986.64;53.701;35.956455;-83.9273;804.67;NaN;;4.79;12.226105;69.8;15 / 20;105022;2022-10-12 12:45:34:380
-7.3223;-5.7123;16.2021;-2.7378;-0.6471;9.3945;-3.9519;-2.0404;5.8427;1.7557;1.4314;0.5785;2291.0;-8.03;27.41;-11.02;23.64;22.98;3.65;5.0;986.64;55.334;35.956455;-83.92728;803.24;NaN;;4.39;12.226105;75.1;15 / 20;105522;2022-10-12 12:45:34:880
-3.5252;0.8883;14.0773;-0.9278;2.0543;9.5441;0.0453;-4.7746;-2.2296;-1.3661;0.628;-2.0451;4199.0;7.54;11.64;-41.21;348.94;-12.09;5.55;5.0;986.63;53.19;35.956455;-83.92728;803.24;NaN;;4.39;12.226105;75.1;15 / 20;106022;2022-10-12 12:45:35:380
-5.7924;-2.8298;14.8134;-2.0133;-1.2796;9.5121;-1.5699;3.3931;8.2383;1.754;0.9714;2.0475;2045.0;-4.95;16.76;-49.71;110.49;22.26;3.65;5.0;986.65;54.114;35.956463;-83.92726;800.91;NaN;;4.9;12.226105;45.7;15 / 20;106522;2022-10-12 12:45:35:880
-1.5933;1.7991;13.6726;-1.1529;0.0577;9.7385;-0.441;1.0816;3.9926;-2.0397;-0.8627;-1.8545;1881.0;-19.05;2.89;-60.26;58.74;-12.98;6.85;5.0;986.65;54.342;35.956463;-83.92726;800.91;NaN;;4.9;12.226105;45.7;15 / 20;107021;2022-10-12 12:45:36:379
-5.2202;-4.0807;14.956;-1.0828;-2.2389;9.4861;-2.8198;1.8726;8.3239;3.0054;1.6842;0.3122;2209.0;-21.41;9.68;-58.39;95.98;13.2;6.51;5.0;986.65;54.152;35.95647;-83.92725;799.0;NaN;;4.46;12.226105;54.3;15 / 20;107522;2022-10-12 12:45:36:880
-2.0207;-1.8111;10.6322;-1.4447;0.1091;9.699;-0.1518;-3.7805;-0.7282;-1.0541;-0.3449;-2.3725;2261.0;-8.57;-6.28;-47.51;108.96;-0.64;8.47;5.0;986.63;52.606;35.95647;-83.92725;799.0;NaN;;4.46;12.226105;54.3;15 / 20;108022;2022-10-12 12:45:37:380
-4.4698;-4.3585;16.7097;-0.2689;-4.1888;8.8629;-2.3044;7.0842;3.9179;1.8193;-0.3932;2.2686;3196.0;-11.33;2.1;-43.61;143.78;25.29;1.74;5.0;986.66;55.642;35.956474;-83.92724;793.17;NaN;;4.61;12.226105;44.8;15 / 20;108521;2022-10-12 12:45:37:879
0.516;-0.8103;15.7113;-1.0981;0.9422;9.6993;-1.5121;-7.2332;-2.0044;-3.1491;0.2314;-0.5463;3334.0;-11.34;-3.21;-40.56;47.16;-26.16;6.86;5.0;986.65;54.693;35.956474;-83.92724;793.17;NaN;;4.61;12.226105;44.8;15 / 20;109021;2022-10-12 12:45:38:379
-3.8091;-1.9884;14.0067;-1.2055;-2.1022;9.5025;-0.8988;2.9493;2.9405;0.1705;0.7358;0.4864;4578.0;-14.74;2.93;-39.54;124.19;17.3;-2.1;5.0;986.64;61.877;35.95648;-83.92722;791.74;NaN;;4.86;12.226105;65.6;15 / 20;109521;2022-10-12 12:45:38:879
0.638;-3.3529;8.4392;0.163;4.6922;8.6097;3.6239;-7.3272;-3.5301;-1.1679;-1.8177;-2.3438;2987.0;-11.81;-12.51;-39.36;56.86;-28.59;-1.08;5.0;986.64;64.833;35.95648;-83.92722;791.74;NaN;;4.86;12.226105;65.6;15 / 20;110021;2022-10-12 12:45:39:379
-6.245;2.697;11.19;1.5547;-0.0899;9.6822;-6.4471;3.936;2.3816;-0.3404;-0.7323;-2.0541;3572.0;-7.2;-21.81;-37.24;175.17;4.57;-7.51;5.0;986.64;51.253;35.95648;-83.9272;790.34;NaN;;5.72;12.226105;105.4;15 / 20;110521;2022-10-12 12:45:39:879
2.4132;-3.1089;4.599;2.3319;4.5997;8.3412;1.803;-7.2865;-2.4658;0.4361;0.0394;-2.4942;3299.0;-3.97;-21.9;-35.18;240.79;-27.97;-15.62;5.0;986.66;51.081;35.95648;-83.9272;790.34;NaN;;5.72;12.226105;105.4;15 / 20;111021;2022-10-12 12:45:40:379
-10.1713;0.2982;10.9472;0.6468;-2.5738;9.4407;-8.9084;3.7535;-0.7239;-0.0124;0.3699;-3.8873;3412.0;1.91;-19.99;-34.99;184.96;15.53;-0.79;5.0;986.64;53.242;35.956467;-83.927185;790.29;NaN;;5.47;12.226105;134.1;15 / 20;111521;2022-10-12 12:45:40:879
2.6767;-3.6425;4.2497;0.4722;4.6041;8.6458;0.7186;-9.1273;-0.3541;0.4255;-0.4768;0.5915;10296.0;6.36;-20.29;-32.59;253.27;-28.0;-3.13;5.0;986.65;53.187;35.956467;-83.927185;790.29;NaN;;5.47;12.226105;134.1;15 / 20;112021;2022-10-12 12:45:41:379
-9.5572;0.2273;9.1346;0.9968;-3.4021;9.1434;-7.7815;2.735;0.4618;-0.2776;0.9037;-0.0945;10444.0;1.61;-22.5;-32.19;183.26;15.96;0.53;5.0;986.65;54.432;35.956455;-83.92717;789.67;NaN;;4.61;12.226105;146.7;15 / 20;112521;2022-10-12 12:45:41:879
1.3836;-3.5539;5.5196;-1.4874;4.9004;8.3633;2.6479;-8.2234;-2.3863;0.6434;-1.1406;3.7257;16545.0;18.36;-10.39;-34.11;304.01;-20.89;18.6;5.0;986.7;54.49;35.956455;-83.92717;789.67;NaN;;4.61;12.226105;146.7;15 / 20;113021;2022-10-12 12:45:42:379
-9.3311;2.4849;8.4356;-1.459;-3.0002;9.2217;-5.5599;3.8403;0.6595;-0.9433;-0.8618;-0.7474;39224.0;7.01;-23.78;-31.24;183.64;17.81;8.99;5.0;986.66;55.038;35.956448;-83.92716;789.37;NaN;;4.82;12.226105;149.6;15 / 20;113521;2022-10-12 12:45:42:879
0.3138;-3.7588;2.522;-3.6808;5.7123;7.0705;8.0169;-6.8471;2.77;1.5522;-0.6063;2.8757;34010.0;14.74;-19.28;-31.01;12.36;-35.63;27.5;5.0;986.68;55.765;35.956448;-83.92716;789.37;NaN;;4.82;12.226105;149.6;15 / 20;114021;2022-10-12 12:45:43:379
-6.8913;3.3589;8.5708;-0.9943;-0.9591;9.7089;-3.9772;3.5594;-0.6738;-1.2075;-1.0785;-0.5882;14291.0;11.46;-31.78;-23.91;193.92;5.61;5.85;5.0;986.69;58.454;35.956436;-83.927155;790.8;NaN;;4.68;12.226105;149.1;15 / 20;114522;2022-10-12 12:45:43:880
2.685;-1.2772;6.8638;0.8366;3.6485;9.0642;0.8432;-6.1928;-2.408;0.2782;-0.1988;-0.2244;40972.0;11.21;-18.92;-33.98;192.92;-14.2;14.37;5.0;986.69;59.285;35.956436;-83.927155;790.8;NaN;;4.68;12.226105;149.1;15 / 20;115022;2022-10-12 12:45:44:380
-7.1931;-0.9458;7.6134;1.6027;-2.4646;9.3556;-7.6335;0.8119;-1.7476;-0.6238;-0.5217;-4.0846;40718.0;-2.79;-24.79;-31.95;174.4;8.66;-0.19;5.0;986.69;60.549;35.956425;-83.92714;789.19;NaN;;4.61;12.226105;148.6;15 / 20;115521;2022-10-12 12:45:44:879
3.0117;-2.7592;8.1182;-1.6103;2.0566;9.4524;1.4019;-8.6279;-1.1356;0.668;-0.878;2.0426;63319.0;12.17;-13.31;-35.98;230.04;-12.11;9.67;5.0;986.69;60.559;35.956425;-83.92714;789.19;NaN;;4.61;12.226105;148.6;15 / 20;116022;2022-10-12 12:45:45:380
-6.3514;0.4705;9.3335;0.7331;-2.3831;9.4844;-5.7475;2.2856;-0.537;-1.2497;-0.4993;-3.7942;34154.0;-0.37;-27.26;-32.03;174.01;2.73;5.36;5.0;986.72;60.678;35.956417;-83.92714;788.42;NaN;;5.0;12.226105;166.1;16 / 20;116521;2022-10-12 12:45:45:879
1.6842;-2.1942;5.6333;-2.869;3.4492;8.7202;0.0134;-7.4432;0.945;0.8484;-0.4152;3.6427;59448.0;14.29;-15.86;-35.79;235.43;-20.59;18.21;5.0;986.71;60.216;35.956417;-83.92714;788.42;NaN;;5.0;12.226105;166.1;16 / 20;117022;2022-10-12 12:45:46:380
-6.0751;0.5662;9.2856;-0.5228;-1.2157;9.717;-3.9862;1.739;-0.663;-1.1427;-1.6573;-2.3596;12853.0;11.51;-31.35;-25.09;188.87;-5.74;16.54;5.0;986.71;60.898;35.9564;-83.92713;788.11;NaN;;5.08;12.226105;164.2;16 / 20;117522;2022-10-12 12:45:46:880
2.569;-2.3976;6.1457;-3.8351;1.8113;8.842;-2.0681;-8.0689;2.5688;0.4528;-0.2846;6.1137;45906.0;21.49;-13.35;-33.98;226.35;-10.64;23.45;5.0;986.69;62.714;35.9564;-83.92713;788.11;NaN;;5.08;12.226105;164.2;16 / 20;118022;2022-10-12 12:45:47:380
-6.0392;1.6244;10.0648;-0.7777;-3.094;9.2732;-2.5508;3.4079;0.1439;-1.6055;-1.1146;-2.1598;18677.0;7.11;-30.53;-28.71;180.2;-0.23;13.37;5.0;986.72;60.344;35.95639;-83.92713;789.47;NaN;;4.64;12.226105;163.5;16 / 20;118522;2022-10-12 12:45:47:880
0.0766;-4.0041;7.6828;-0.8679;4.3944;8.7239;0.2981;-8.8144;-0.4695;1.204;-0.5905;4.9892;73271.0;16.39;-10.78;-37.71;196.78;-10.43;21.43;5.0;986.72;60.6;35.95639;-83.92713;789.47;NaN;;4.64;12.226105;163.5;16 / 20;119021;2022-10-12 12:45:48:379
-4.835;0.7098;9.5477;-1.0859;-1.5566;9.6212;-2.1469;1.2815;1.3447;-1.7999;-0.9099;-1.6761;9207.0;0.28;-30.77;-29.46;174.72;9.13;6.44;5.0;986.72;60.901;35.956375;-83.92713;790.66;NaN;;5.18;12.226105;190.5;16 / 20;119522;2022-10-12 12:45:48:880
-1.951;-4.04;8.4835;-2.8156;2.9139;8.9304;-0.6514;-7.3331;-0.1059;1.2464;0.9995;3.8638;10719.0;12.13;-15.0;-38.64;172.68;-17.29;17.5;5.0;986.7;61.262;35.956375;-83.92713;790.66;NaN;;5.18;12.226105;190.5;16 / 20;120022;2022-10-12 12:45:49:380
-1.8422;0.4047;9.0604;-1.4902;0.0135;9.6928;-0.2;0.7131;3.8366;-1.2555;-0.6897;-1.9762;6559.0;0.45;-30.66;-30.58;171.35;-0.08;8.74;5.0;986.73;61.109;35.956367;-83.92713;786.66;NaN;;4.86;12.226105;157.1;16 / 20;120522;2022-10-12 12:45:49:880
-2.0961;-2.8837;7.8945;-2.6479;1.3911;9.3394;-1.6393;-3.566;3.0724;1.2813;0.4754;3.1217;19004.0;6.23;-16.89;-39.62;181.53;8.4;7.67;5.0;986.71;61.467;35.956367;-83.92713;786.66;NaN;;4.86;12.226105;157.1;16 / 20;121021;2022-10-12 12:45:50:379
-4.1213;-1.7345;9.3311;-0.8281;-2.2088;9.5187;-0.7808;2.3194;1.5749;-1.7236;-0.8472;-2.1106;16376.0;-1.8;-29.46;-31.74;158.42;-21.16;8.71;5.0;986.73;61.61;35.956356;-83.92712;785.36;NaN;;4.61;12.226105;150.1;16 / 20;121521;2022-10-12 12:45:50:879
-4.2664;-6.3455;10.649;-3.1969;-1.2733;9.1831;-4.8992;-2.6086;5.6167;1.1475;0.4939;5.5295;14435.0;11.57;-11.29;-40.26;173.64;7.46;19.19;5.0;986.74;61.693;35.956356;-83.92712;785.36;NaN;;4.61;12.226105;150.1;16 / 20;122022;2022-10-12 12:45:51:380
-2.211;-1.6017;11.5923;-1.6665;-0.9762;9.6146;-0.4741;-0.4268;3.3207;-2.3057;0.3571;-2.9431;5638.0;2.98;-27.99;-31.05;173.4;-16.1;9.42;5.0;986.76;61.284;35.95635;-83.9271;783.86;NaN;;4.93;12.226105;124.8;16 / 20;122522;2022-10-12 12:45:51:880
-4.902;-5.9183;12.2746;-2.3118;-1.5777;9.3988;-5.671;-1.3632;6.1456;1.2945;1.031;4.2325;49413.0;8.68;-14.83;-39.45;178.45;9.26;13.82;5.0;986.73;61.142;35.95635;-83.9271;783.86;NaN;;4.93;12.226105;124.8;16 / 20;123023;2022-10-12 12:45:52:381
-0.7493;-1.494;11.9489;-1.4287;-0.3417;9.696;0.9338;-3.0111;0.3442;-1.6717;-0.7104;-1.2544;39103.0;-2.4;-27.3;-33.04;161.32;-17.69;9.54;5.0;986.79;61.665;35.95634;-83.92709;784.04;NaN;;4.57;12.226105;129.0;15 / 20;123522;2022-10-12 12:45:52:880
-5.6237;-1.6304;14.3551;0.0564;-3.495;9.1625;-6.3903;5.2827;4.8774;1.7437;1.3239;1.6846;119542.0;0.51;-13.26;-40.63;182.68;20.88;-0.35;5.0;986.73;61.866;35.95634;-83.92709;784.04;NaN;;4.57;12.226105;129.0;15 / 20;124022;2022-10-12 12:45:53:380
-1.0869;-0.9242;13.9122;-1.2514;1.6532;9.585;0.6498;-5.7419;-1.1344;-2.3131;0.2643;-1.9786;71757.0;-1.99;-23.29;-35.1;136.6;-21.05;11.21;5.0;986.79;62.671;35.956333;-83.92708;781.16;NaN;;4.39;12.226105;131.2;15 / 20;124522;2022-10-12 12:45:53:880
-4.4076;0.3676;15.5761;-1.6542;-1.2004;9.5913;-3.693;1.332;7.0483;1.0939;1.1157;0.4411;119030.0;-4.8;-15.96;-38.94;174.82;23.49;-3.3;5.0;986.73;62.036;35.956333;-83.92708;781.16;NaN;;4.39;12.226105;131.2;15 / 20;125023;2022-10-12 12:45:54:381
-1.3382;-1.427;13.8954;-1.0344;2.7147;9.3665;1.3405;-5.1634;-2.0764;-2.365;-0.1149;-2.0066;61877.0;-6.99;-23.34;-34.52;139.59;-16.07;6.3;5.0;986.78;62.099;35.95632;-83.92707;779.7;NaN;;4.72;12.226105;145.4;15 / 20;125522;2022-10-12 12:45:54:880
-6.7513;-4.8649;14.0928;-0.9355;-2.2953;9.4882;-4.968;1.9176;7.0123;-0.0909;0.3036;0.0858;116534.0;-3.09;-15.06;-39.47;163.9;13.54;5.63;5.0;986.73;61.895;35.95632;-83.92707;779.7;NaN;;4.72;12.226105;145.4;15 / 20;126021;2022-10-12 12:45:55:379
-0.7947;-2.059;10.4085;-1.5696;3.1481;9.154;2.3199;-5.1594;-1.9464;-1.2339;-0.4824;-1.3155;73248.0;-3.3;-19.72;-35.46;132.15;-18.72;9.73;5.0;986.78;62.217;35.95631;-83.92706;777.75;NaN;;4.79;12.226105;125.8;15 / 20;126522;2022-10-12 12:45:55:880
-5.7111;-0.8174;15.5175;0.0215;-3.8369;9.0249;-7.3541;5.3204;3.4778;1.7759;1.2025;2.1657;129985.0;-4.27;-14.53;-37.44;180.52;26.07;-6.58;5.0;986.79;62.373;35.95631;-83.92706;777.75;NaN;;4.79;12.226105;125.8;15 / 20;127022;2022-10-12 12:45:56:380
-0.0299;-5.1341;9.0963;-0.9328;2.3749;9.4689;1.8791;-5.1743;-2.7062;-0.2085;-0.2356;-0.3558;93147.0;-5.7;-19.48;-33.53;110.05;-24.6;5.9;5.0;986.76;62.603;35.956306;-83.92705;776.3;NaN;;4.68;12.226105;115.5;14 / 20;127522;2022-10-12 12:45:56:880
-9.3897;0.699;11.0142;1.5036;-3.8093;8.9106;-9.5079;6.4213;3.4919;0.6331;1.5215;2.1731;119522.99;-4.69;-13.88;-36.75;182.56;22.86;-9.58;5.0;986.77;62.964;35.956306;-83.92705;776.3;NaN;;4.68;12.226105;115.5;14 / 20;128021;2022-10-12 12:45:57:379
1.2233;-2.4227;6.4606;-1.0761;3.7962;8.9778;2.3534;-6.0674;-2.7209;0.5685;-0.4736;0.7051;107839.0;-2.74;-15.99;-35.61;98.24;-22.64;9.61;5.0;986.77;62.648;35.9563;-83.92703;774.27;NaN;;4.57;12.226105;132.6;13 / 20;128522;2022-10-12 12:45:57:880
-4.4818;3.1842;12.5151;0.284;-3.6956;9.0792;-3.2917;5.5068;0.6684;-0.4894;-0.1544;-0.3231;95494.0;-9.94;-20.96;-32.49;164.12;22.14;-1.79;5.0;986.77;63.004;35.9563;-83.92703;774.27;NaN;;4.57;12.226105;132.6;13 / 20;129022;2022-10-12 12:45:58:380
-0.0311;-2.1141;6.2318;-1.6774;3.6489;8.9466;2.4252;-5.2796;-2.226;1.098;0.063;0.2789;96633.0;-10.35;-16.87;-34.43;114.14;-17.07;9.25;5.0;986.74;63.729;35.956295;-83.927025;772.2;NaN;;4.39;12.226105;131.5;14 / 20;129523;2022-10-12 12:45:58:881
-3.3027;2.1476;9.4914;-0.0729;-3.294;9.2366;-3.0001;3.3761;-0.1752;-1.2698;-0.4113;-0.4153;95907.0;-13.59;-15.3;-33.45;150.47;19.63;0.45;5.0;986.75;63.176;35.956295;-83.927025;772.2;NaN;;4.39;12.226105;131.5;14 / 20;130021;2022-10-12 12:45:59:379
0.4693;-2.1428;6.5504;-1.5372;3.3817;9.0759;2.2446;-5.4246;-1.5496;0.5825;-0.262;-0.3522;93459.0;-12.11;-9.67;-35.59;103.77;-8.97;12.74;5.0;986.75;62.534;35.95629;-83.92701;771.2;NaN;;4.32;12.226105;111.0;14 / 20;130521;2022-10-12 12:45:59:879
-5.892;0.5542;10.1282;0.8421;-4.9473;8.4253;-6.2032;5.1457;1.5421;-1.6652;-1.1236;-1.7201;103354.0;-7.18;-15.21;-31.72;159.5;20.74;4.34;5.0;986.78;64.072;35.95629;-83.92701;771.2;NaN;;4.32;12.226105;111.0;14 / 20;131022;2022-10-12 12:46:00:380
0.8115;-2.2181;5.6728;-2.1264;3.6239;8.8609;1.4854;-7.2966;-0.4543;1.5086;-0.108;0.4802;115226.99;-7.05;-12.43;-33.92;88.2;-21.69;13.49;5.0;986.78;63.659;35.956287;-83.927;770.06;NaN;;3.89;12.226105;103.3;14 / 20;131522;2022-10-12 12:46:00:880
-4.2473;-3.2991;10.911;0.7538;-4.3862;8.7386;-2.3217;3.0033;0.9351;-2.2129;1.2861;-5.4339;86018.0;-12.3;-24.77;-33.77;166.62;26.57;-4.93;5.0;986.81;63.296;35.956287;-83.927;770.06;NaN;;3.89;12.226105;103.3;14 / 20;132022;2022-10-12 12:46:01:380
2.0937;-1.8685;6.2773;-2.5068;2.805;9.0564;0.9223;-10.0187;-1.4346;0.7475;-1.1566;3.3683;149084.0;0.75;-17.61;-43.46;116.84;-16.62;15.47;5.0;986.75;64.01;35.956287;-83.92699;770.81;NaN;;4.43;12.226105;96.8;14 / 20;132522;2022-10-12 12:46:01:880
-6.8985;-0.4274;9.6601;0.4051;-3.5871;9.1181;-5.6888;2.2719;0.8703;-1.547;-1.4045;-0.1248;107836.01;-13.03;-14.25;-32.51;134.67;10.3;11.5;5.0;986.79;64.359;35.956287;-83.92699;770.81;NaN;;4.43;12.226105;96.8;14 / 20;133022;2022-10-12 12:46:02:380
1.4581;-1.1671;7.9866;-1.1347;4.6428;8.5631;3.3493;-6.6667;-0.9761;1.6055;-0.4493;3.4339;139737.0;-4.09;-9.53;-28.72;103.78;-14.74;15.34;5.0;986.77;64.874;35.956287;-83.92697;771.84;NaN;;4.75;12.226105;115.1;14 / 20;133521;2022-10-12 12:46:02:879
-7.1237;-0.1771;10.2897;-0.0704;-2.9268;9.3594;-1.7714;1.8443;1.4159;-2.0828;-1.7653;-0.6317;69693.0;-4.05;-13.41;-22.5;167.61;17.36;0.43;5.0;986.78;62.282;35.956287;-83.92697;771.84;NaN;;4.75;12.226105;115.1;14 / 20;134022;2022-10-12 12:46:03:380
0.2922;-3.1005;8.3495;-1.3752;4.7081;8.492;0.599;-8.3415;0.4953;2.4551;0.7363;3.4845;95967.0;-6.64;-3.41;-25.71;88.95;-7.88;14.43;5.0;986.8;60.544;35.956284;-83.92695;771.42;NaN;;4.68;12.226105;102.0;16 / 20;134521;2022-10-12 12:46:03:879
-8.8845;2.5738;10.4121;0.0284;-0.9288;9.7625;-1.2355;1.2233;2.2461;-1.1429;-1.8079;-2.4014;73048.0;-5.44;-14.31;-37.2;164.33;5.43;-0.17;5.0;986.82;60.778;35.956284;-83.92695;771.42;NaN;;4.68;12.226105;102.0;16 / 20;135021;2022-10-12 12:46:04:379
0.3329;-3.5719;8.9515;-2.0555;4.9703;8.2001;0.9499;-9.3244;0.9646;1.6865;1.4027;4.1499;93930.0;-10.14;-13.33;-45.75;97.28;-9.81;20.53;5.0;986.79;59.771;35.956284;-83.92693;774.98;NaN;;4.64;12.226105;99.7;16 / 20;135521;2022-10-12 12:46:04:879
-6.306;3.6425;8.7984;-1.6853;-0.1171;9.6601;-2.1269;2.2949;-0.3981;-1.6058;-0.1568;-0.8449;69250.0;-11.53;-27.11;-45.02;144.59;0.68;9.9;5.0;986.83;59.939;35.956284;-83.92693;774.98;NaN;;4.64;12.226105;99.7;16 / 20;136021;2022-10-12 12:46:05:379
0.4047;-1.9645;8.2633;-2.534;2.4582;9.1491;2.2244;-4.5785;-2.2842;0.4156;-0.1674;0.8062;104450.0;-10.69;-14.74;-53.01;115.97;-1.93;18.89;5.0;986.8;58.606;35.95628;-83.92692;776.23;NaN;;4.79;12.226105;101.6;16 / 20;136522;2022-10-12 12:46:05:880
-4.2257;-1.3705;8.3973;0.4213;-3.9853;8.9505;-4.7142;2.6635;-0.4305;-1.0278;-0.1839;-2.8801;11671.0;-14.46;-15.19;-42.97;143.15;14.83;6.48;5.0;986.85;58.218;35.95628;-83.92692;776.23;NaN;;4.79;12.226105;101.6;16 / 20;137021;2022-10-12 12:46:06:379
1.4043;-2.7832;8.8702;-2.5443;1.3526;9.3738;-0.0822;-8.3136;-0.2474;1.5195;-0.7307;3.1979;64545.996;-6.0;-9.79;-43.41;104.46;-7.93;15.19;5.0;986.8;58.68;35.95628;-83.9269;776.44;NaN;;4.54;12.226105;96.6;16 / 20;137521;2022-10-12 12:46:06:879
-2.8717;2.8573;9.1992;-2.6862;-1.7936;9.2595;0.2227;4.6857;-0.1997;-2.1693;-0.1245;-1.3223;98726.0;-13.63;-16.43;-39.02;131.97;10.54;16.18;5.0;986.85;57.206;35.95628;-83.9269;776.44;NaN;;4.54;12.226105;96.6;16 / 20;138021;2022-10-12 12:46:07:379
-1.6615;-1.386;5.9136;-4.6266;2.5988;8.2469;-1.0998;-5.0844;0.6813;1.2225;-0.4642;1.8971;124659.99;-6.47;-4.03;-42.69;78.59;-15.37;29.29;5.0;986.81;60.17;35.956287;-83.92689;775.83;NaN;;5.62;12.226105;60.7;16 / 20;138522;2022-10-12 12:46:07:880
-5.6022;1.8182;6.9906;-2.6649;-1.1016;9.3731;1.0033;3.1418;-1.2765;-1.591;-0.9893;-1.1254;132503.0;-6.77;-13.26;-40.07;110.39;-8.73;19.87;5.0;986.83;60.201;35.956287;-83.92689;775.83;NaN;;5.62;12.226105;60.7;16 / 20;139022;2022-10-12 12:46:08:380
-0.0742;-1.4498;8.2573;-3.0556;2.2061;9.0536;2.8134;-3.878;-0.9397;0.3466;-0.8346;3.1644;130814.0;-7.99;-2.59;-41.29;93.55;-2.48;25.45;5.0;986.8;57.521;35.956295;-83.92687;775.33;NaN;;4.43;12.226105;72.1;16 / 20;139522;2022-10-12 12:46:08:880
-3.0176;1.1575;8.371;2.2388;-0.2093;9.5454;-1.0179;1.2748;-1.8029;-2.8719;-0.6528;-0.6128;63689.996;-17.83;-12.58;-34.82;145.39;1.22;-13.2;5.0;986.82;55.862;35.956295;-83.92687;775.33;NaN;;4.43;12.226105;72.1;16 / 20;140022;2022-10-12 12:46:09:380
2.0889;-1.4952;8.5433;0.2562;4.9321;8.4723;1.782;-6.6198;0.4704;2.5449;0.1956;2.569;58567.0;-23.42;-8.91;-32.76;93.19;-13.44;3.01;5.0;986.82;55.219;35.9563;-83.92686;772.76;NaN;;4.86;12.226105;53.6;16 / 20;140521;2022-10-12 12:46:09:879
-4.0615;-0.1256;11.1147;0.0108;-1.7506;9.6491;-1.3254;1.1955;2.2598;-1.9992;-0.4003;-2.4947;60881.996;-17.89;-16.67;-32.98;141.55;10.28;-0.06;5.0;986.84;56.562;35.9563;-83.92686;772.76;NaN;;4.86;12.226105;53.6;16 / 20;141021;2022-10-12 12:46:10:379
-1.8864;-5.3112;10.9448;-1.2547;4.5888;8.5755;-1.8979;-10.1904;3.9414;3.3102;1.8273;3.4033;90762.0;-16.16;-7.78;-36.94;109.65;-0.63;8.59;5.0;986.81;55.537;35.956303;-83.926834;766.4;NaN;;5.33;12.226105;87.8;16 / 20;141521;2022-10-12 12:46:10:879
-0.8644;1.8649;12.4457;0.0263;-0.7686;9.7764;-3.5753;-0.6991;3.6464;-2.8265;0.2867;-2.9647;42622.0;-23.03;-15.71;-32.38;128.86;4.5;-0.15;5.0;986.86;54.147;35.956303;-83.926834;766.4;NaN;;5.33;12.226105;87.8;16 / 20;142021;2022-10-12 12:46:11:379
0.7373;-3.8234;7.4216;-1.1068;4.296;8.7459;-2.524;-9.581;3.4351;2.1778;-0.4809;3.3322;89711.0;-18.84;-2.31;-37.12;95.65;0.46;6.43;5.0;986.8;54.63;35.956303;-83.92683;770.75;NaN;;4.07;12.226105;84.8;16 / 20;142521;2022-10-12 12:46:11:879
-3.4534;-0.9254;12.4445;1.1032;-3.5846;9.0611;-4.269;2.8277;3.9234;-2.6621;0.1252;-4.0146;50411.0;-21.82;-21.54;-32.38;136.74;4.52;1.73;5.0;986.85;53.948;35.956303;-83.92683;770.75;NaN;;4.07;12.226105;84.8;16 / 20;143021;2022-10-12 12:46:12:379
-0.7828;-4.6265;8.566;-2.7321;2.3272;9.1263;-2.6007;-8.7623;5.0375;1.7278;0.0119;4.3043;113660.01;-9.88;-8.49;-41.49;87.67;-13.73;16.67;5.0;986.8;53.898;35.956303;-83.92681;771.67;NaN;;4.75;12.226105;97.0;15 / 20;143521;2022-10-12 12:46:12:879
-5.7685;0.9242;10.8978;-0.8204;-2.3428;9.4873;-2.4174;2.8261;1.6424;-2.2561;-0.1827;-3.4395;56275.0;-14.55;-22.16;-36.56;148.73;13.82;4.94;5.0;986.87;57.104;35.956303;-83.92681;771.67;NaN;;4.75;12.226105;97.0;15 / 20;144021;2022-10-12 12:46:13:379
-1.4186;-3.7265;8.2693;-2.1451;1.3002;9.4804;-2.3199;-4.6748;1.2424;2.2096;0.6573;1.9865;113554.99;-6.84;-8.78;-44.21;101.74;-7.62;12.75;5.0;986.83;55.155;35.9563;-83.92679;774.39;NaN;;4.93;12.226105;110.6;15 / 20;144522;2022-10-12 12:46:13:880
-5.1018;1.5263;13.3998;0.7604;-1.5288;9.6569;-1.9756;2.0325;-0.5743;-1.7211;-2.0321;-1.6019;75003.0;-9.26;-24.77;-36.02;146.29;-4.6;9.47;5.0;986.83;53.908;35.9563;-83.92679;774.39;NaN;;4.93;12.226105;110.6;15 / 20;145021;2022-10-12 12:46:14:379
-0.1125;-1.2341;6.5779;-2.4817;4.917;8.1138;2.0101;-7.1994;-0.6821;1.5046;0.9315;2.7447;94815.0;-4.86;-19.59;-38.91;115.59;-17.72;18.91;5.0;986.85;53.313;35.956295;-83.92677;776.65;NaN;;4.64;12.226105;112.9;14 / 20;145522;2022-10-12 12:46:14:880
-3.2632;2.2409;10.9182;0.7816;-1.1265;9.7103;-1.2889;2.6522;1.0924;-1.7173;-2.0653;-1.8188;53163.0;-8.57;-27.47;-33.64;168.54;6.6;-4.6;5.0;986.83;54.163;35.956295;-83.92677;776.65;NaN;;4.64;12.226105;112.9;14 / 20;146021;2022-10-12 12:46:15:379
2.4957;-1.7154;7.0424;-1.6539;4.011;8.7947;1.6379;-6.6671;0.2936;1.5587;1.2888;4.2885;94233.0;-5.17;-17.91;-40.52;132.32;-5.23;15.64;5.0;986.86;52.136;35.95629;-83.92676;776.88;NaN;;4.57;12.226105;113.4;14 / 20;146521;2022-10-12 12:46:15:879
-5.7422;-3.469;7.4169;-0.6651;-0.9376;9.739;-1.4941;0.6323;0.1611;-1.8103;-1.4917;-2.6155;78023.0;-3.39;-26.34;-35.27;169.56;5.49;3.91;5.0;986.83;52.388;35.95629;-83.92676;776.88;NaN;;4.57;12.226105;113.4;14 / 20;147021;2022-10-12 12:46:16:379
0.7337;-1.8254;8.0106;-1.359;4.1143;8.7975;0.8154;-8.0259;0.6914;2.646;0.4545;4.0082;117174.0;-3.96;-10.11;-41.44;126.06;-2.82;13.78;5.0;986.81;52.111;35.956284;-83.92675;775.86;NaN;;4.97;12.226105;135.4;13 / 20;147523;2022-10-12 12:46:16:881
-8.5768;-0.5686;11.2223;-0.5368;-0.969;9.7439;1.6608;0.1772;1.608;-1.2459;-0.9463;-5.4514;57563.0;-9.23;-25.33;-33.54;158.93;5.67;3.15;5.0;986.89;52.408;35.956284;-83.92675;775.86;NaN;;4.97;12.226105;135.4;13 / 20;148022;2022-10-12 12:46:17:380
3.6488;-1.0439;10.1486;-2.3986;3.0688;9.0;-0.4888;-8.7043;3.0924;1.8924;1.0302;1.4128;110749.01;-0.66;-15.17;-40.41;150.57;5.22;13.65;5.0;986.86;52.22;35.95628;-83.926735;774.64;NaN;;4.46;12.226105;132.1;13 / 20;148521;2022-10-12 12:46:17:879
-5.2705;1.6316;11.9285;-0.1676;-3.9005;8.996;-3.7003;2.6236;2.2762;-2.1225;-0.6382;-2.8523;68263.0;-3.04;-26.72;-33.51;160.37;3.39;12.52;5.0;986.84;51.836;35.95628;-83.926735;774.64;NaN;;4.46;12.226105;132.1;13 / 20;149022;2022-10-12 12:46:18:380
-1.5837;-3.5013;7.5413;-2.3242;1.4607;9.4146;1.3209;-5.5997;0.9836;2.362;0.2134;0.7742;118256.0;-5.77;-7.91;-41.81;97.36;-8.57;13.87;5.0;986.81;52.228;35.956272;-83.92673;775.46;NaN;;5.11;12.226105;105.1;13 / 20;149521;2022-10-12 12:46:18:879
-3.4762;-1.7285;11.8352;-0.035;-4.0861;8.9148;-2.7752;2.7222;2.3182;-2.2442;-0.4723;-3.0972;85970.0;-7.31;-19.12;-37.01;167.67;24.62;0.23;5.0;986.83;52.074;35.956272;-83.92673;775.46;NaN;;5.11;12.226105;105.1;13 / 20;150022;2022-10-12 12:46:19:380
0.1819;-2.7269;8.4284;-3.4253;0.0214;9.189;-2.3263;-5.7146;2.9649;1.0538;-0.4003;4.6666;124914.99;-2.68;-7.63;-41.87;114.36;-0.13;20.44;5.0;986.82;51.92;35.956272;-83.92671;777.15;NaN;;5.11;12.226105;98.6;14 / 20;150521;2022-10-12 12:46:19:879
-3.6763;-2.2684;8.5564;-1.2456;-3.3679;9.1256;-0.3253;2.3353;0.5681;-1.7317;-0.4943;-2.0475;104432.0;-7.41;-18.04;-38.18;142.3;3.43;13.25;5.0;986.84;53.557;35.956272;-83.92671;777.15;NaN;;5.11;12.226105;98.6;14 / 20;151021;2022-10-12 12:46:20:379
-3.6523;-6.0033;9.1262;-2.6828;2.679;9.0441;-0.5919;-8.2835;0.1975;1.5487;0.5831;4.7436;140183.0;-4.84;-5.1;-41.77;116.98;6.44;18.66;5.0;986.82;52.503;35.95627;-83.9267;778.52;NaN;;4.86;12.226105;109.9;14 / 20;151521;2022-10-12 12:46:20:879
-2.6874;-1.8218;11.4377;-1.3607;-2.3558;9.4217;0.2157;-0.5262;2.2785;-2.4307;-0.3964;-3.3429;69428.0;-10.41;-18.58;-37.43;150.55;13.9;8.22;5.0;986.84;53.122;35.95627;-83.9267;778.52;NaN;;4.86;12.226105;109.9;14 / 20;152022;2022-10-12 12:46:21:380
-2.3115;-6.0488;9.6601;-2.5826;2.0126;9.2439;-0.4037;-8.2839;0.644;1.1;0.5966;5.5008;115504.0;-7.88;-5.51;-42.02;119.94;9.23;18.17;5.0;986.83;52.571;35.956264;-83.92668;779.91;NaN;;4.79;12.226105;105.7;14 / 20;152522;2022-10-12 12:46:21:880
-2.9626;-0.4454;10.1378;-1.9298;-0.8393;9.5782;-1.958;-1.3237;1.6248;-2.5425;-1.059;-1.8698;75576.0;-6.09;-21.56;-40.91;151.04;4.91;11.39;5.0;986.83;54.963;35.956264;-83.92668;779.91;NaN;;4.79;12.226105;105.7;14 / 20;153023;2022-10-12 12:46:22:381
-2.6695;-5.5543;10.6274;-2.8982;1.5125;9.2457;-0.8068;-7.2614;1.9354;1.1359;0.9435;4.9981;114757.01;-5.19;-7.95;-46.44;138.54;12.04;14.82;5.0;986.79;52.483;35.956264;-83.92667;781.99;NaN;;4.86;12.226105;88.3;14 / 20;153521;2022-10-12 12:46:22:879
-1.9944;0.9422;8.9515;-1.6864;2.1578;9.4165;-0.4089;-2.1783;1.1943;-1.6095;-1.1519;-1.4962;41401.0;-13.71;-27.36;-35.96;133.48;-12.71;10.15;5.0;986.82;52.65;35.956264;-83.92667;781.99;NaN;;4.86;12.226105;88.3;14 / 20;154021;2022-10-12 12:46:23:379
-0.3712;-1.3286;9.2566;-2.0402;2.5399;9.2497;-0.0829;-3.1148;1.9488;2.0657;0.4504;1.8983;89310.0;-10.65;-22.46;-41.83;147.15;3.24;6.46;5.0;986.79;53.009;35.956264;-83.92665;784.56;NaN;;4.93;12.226105;93.9;14 / 20;154522;2022-10-12 12:46:23:880
-0.1615;1.2676;8.5528;0.0691;-1.3922;9.7071;-1.1497;2.1842;-0.2314;-1.8913;-0.7032;-3.254;55024.0;-15.02;-27.51;-35.61;137.16;-9.96;8.61;5.0;986.82;54.716;35.956264;-83.92665;784.56;NaN;;4.93;12.226105;93.9;14 / 20;155022;2022-10-12 12:46:24:380
-0.4633;-1.2138;9.7678;-2.5354;1.8537;9.2901;-1.5103;-4.1458;2.77;1.6846;0.6908;2.3266;95850.0;-8.48;-19.05;-41.4;122.03;-10.9;15.26;5.0;986.8;53.295;35.956264;-83.926636;786.83;NaN;;4.64;12.226105;95.2;15 / 20;155522;2022-10-12 12:46:24:880
-2.333;1.433;11.2666;-0.9096;-1.9432;9.5691;-1.173;2.5279;3.982;-2.1405;-0.5978;-1.3819;71082.0;-10.46;-24.96;-35.83;156.96;11.43;5.43;5.0;986.85;56.466;35.956264;-83.926636;786.83;NaN;;4.64;12.226105;95.2;15 / 20;156022;2022-10-12 12:46:25:380
-5.1269;-5.4945;11.1841;-1.9017;-2.4677;9.2986;-2.3085;1.1575;3.6105;2.3277;1.9136;0.641;108986.99;-8.36;-11.01;-43.05;141.71;14.57;11.56;5.0;986.8;53.001;35.956264;-83.92662;790.0;NaN;;4.75;12.226105;96.8;15 / 20;156522;2022-10-12 12:46:25:880
-2.4742;-1.2102;9.1442;-2.0361;-0.2367;9.59;0.6544;-1.922;1.7061;-0.7633;0.1283;-4.3545;70547.0;-8.57;-21.9;-37.56;127.46;-16.46;7.78;5.0;986.83;53.627;35.956264;-83.92662;790.0;NaN;;4.75;12.226105;96.8;15 / 20;157022;2022-10-12 12:46:26:380
-2.6408;-1.6998;14.4162;-1.7913;0.48;9.6297;-2.2962;-1.6222;5.2468;1.4201;0.1234;2.7455;111069.01;-3.38;-14.87;-41.29;170.67;16.95;1.84;5.0;986.81;52.029;35.95626;-83.926605;791.33;NaN;;4.75;12.226105;109.8;15 / 20;157521;2022-10-12 12:46:26:879
-2.8023;-1.0056;10.5078;-1.5208;0.4283;9.6785;3.5723;-4.7017;-2.411;-2.737;-1.0297;-1.865;33589.0;-9.77;-29.23;-31.01;152.06;-2.5;8.93;5.0;986.81;55.776;35.95626;-83.926605;791.33;NaN;;4.75;12.226105;109.8;15 / 20;158021;2022-10-12 12:46:27:379
-0.7935;-2.3581;12.0664;-2.5721;0.4479;9.4527;-0.5281;-4.3;1.8984;1.9939;1.7385;1.8924;115929.0;-6.19;-13.74;-40.54;156.45;15.2;6.31;5.0;986.84;53.532;35.956257;-83.92659;792.09;NaN;;4.79;12.226105;113.4;15 / 20;158521;2022-10-12 12:46:27:879
-4.8745;-1.9944;11.2606;-2.156;0.553;9.5507;1.8274;-5.1011;0.3525;-1.6681;-1.4112;-3.4736;33623.0;0.75;-29.83;-30.81;168.29;-3.23;12.72;5.0;986.79;52.063;35.956257;-83.92659;792.09;NaN;;4.79;12.226105;113.4;15 / 20;159021;2022-10-12 12:46:28:379
-9.9356;-13.0514;14.7356;-2.1631;-1.9942;9.3549;-9.7208;-0.412;4.6202;0.7597;1.0396;0.8161;95653.0;19.56;-5.7;-38.91;228.05;23.5;-4.11;5.0;986.79;51.461;35.95625;-83.926575;792.71;NaN;;4.64;12.226105;115.8;15 / 20;159521;2022-10-12 12:46:28:879
0.8812;-2.6049;15.5139;-0.235;3.0593;9.3143;1.5774;-10.6175;-5.8391;-4.029;-0.4872;-0.0894;7579.0;3.41;-30.82;-26.08;186.27;-18.18;1.45;5.0;986.8;58.798;35.95625;-83.926575;792.71;NaN;;4.64;12.226105;115.8;15 / 20;160022;2022-10-12 12:46:29:380
-5.231;-3.5372;13.6774;0.1653;-4.2646;8.8293;-6.3532;0.7862;3.0819;1.0826;0.5877;2.0437;7384.0;0.64;-15.32;-37.52;191.45;32.68;-8.57;5.0;986.78;54.781;35.956238;-83.926575;797.95;NaN;;6.73;12.226105;165.4;15 / 20;160521;2022-10-12 12:46:29:879
1.2054;-1.8123;4.5248;-0.5859;4.0505;8.9118;1.7736;-6.7198;-5.5479;-0.1753;-0.4734;1.5641;6554.0;-4.29;-21.75;-32.74;101.2;-31.79;12.4;5.0;986.78;52.81;35.956238;-83.926575;797.95;NaN;;6.73;12.226105;165.4;15 / 20;161022;2022-10-12 12:46:30:380
-8.4416;-6.1373;6.0045;-0.5533;-2.2989;9.5173;-1.5638;0.765;1.731;0.9536;-0.4038;-4.567;6117.0;-6.19;-20.1;-32.87;163.73;13.56;3.33;5.0;986.82;52.666;35.956223;-83.92657;800.8;NaN;;4.61;12.226105;155.1;15 / 20;161521;2022-10-12 12:46:30:879
-1.5598;-4.4554;10.1928;-2.3053;4.0359;8.6352;-0.1407;-8.7634;2.1069;1.8039;0.6328;4.3239;6919.0;8.78;-18.49;-33.96;177.79;-24.3;14.95;5.0;986.78;52.327;35.956223;-83.92657;800.8;NaN;;4.61;12.226105;155.1;15 / 20;162021;2022-10-12 12:46:31:379
-1.7704;0.3114;11.5086;0.4859;-2.695;9.4165;-1.0478;0.6657;-0.1565;-1.7773;9.0E-4;-2.8646;5370.0;-13.61;-25.78;-27.04;158.89;15.95;-2.95;5.0;986.79;52.079;35.95621;-83.92656;799.69;NaN;;4.86;12.226105;123.9;15 / 20;162522;2022-10-12 12:46:31:880
-0.1208;-3.6631;9.1238;-1.7082;1.2391;9.5769;1.0806;-4.2606;0.1455;1.4937;0.1028;1.2861;5486.0;-3.51;-16.99;-34.61;158.05;8.25;7.87;5.0;986.78;54.27;35.95621;-83.92656;799.69;NaN;;4.86;12.226105;123.9;15 / 20;163021;2022-10-12 12:46:32:379
-7.6313;-1.0702;8.2298;0.5903;-4.2038;8.8402;-2.3603;3.9214;1.3933;-1.7682;-0.2588;-1.2986;4989.0;-11.21;-21.81;-28.89;155.09;10.18;2.77;5.0;986.76;52.481;35.956207;-83.926544;802.31;NaN;;4.43;12.226105;121.2;14 / 20;163522;2022-10-12 12:46:32:880
0.0251;-2.3677;8.5959;-1.7365;0.8405;9.615;-1.25;-5.0971;-1.1748;1.6972;0.2763;0.625;4420.0;-12.75;-8.61;-33.49;108.88;-4.92;10.24;5.0;986.72;52.526;35.956207;-83.926544;802.31;NaN;;4.43;12.226105;121.2;14 / 20;164022;2022-10-12 12:46:33:380
-2.5331;0.3975;11.2953;-0.4084;-3.9943;8.947;-0.8538;5.0226;2.2003;-1.9317;-0.743;-0.4953;4469.0;-10.82;-18.56;-31.8;150.32;11.42;5.63;5.0;986.75;52.611;35.956203;-83.92654;802.68;NaN;;4.39;12.226105;118.7;14 / 20;164521;2022-10-12 12:46:33:879
-0.8991;-3.2261;8.5923;-2.5011;-0.7027;9.4563;-2.0656;-3.1297;2.586;1.7099;0.0921;2.5855;3691.0;-8.46;-7.05;-36.64;118.66;4.11;14.82;5.0;986.74;52.253;35.956203;-83.92654;802.68;NaN;;4.39;12.226105;118.7;14 / 20;165021;2022-10-12 12:46:34:379
-5.1389;-2.3294;9.434;-2.2348;-2.8953;9.0991;-0.1062;0.1547;1.9723;-1.2741;-0.5065;-2.7364;3634.0;-7.14;-17.47;-35.44;134.28;2.13;20.06;5.0;986.76;53.684;35.9562;-83.92652;805.81;NaN;;4.39;12.226105;105.7;14 / 20;165521;2022-10-12 12:46:34:879
-3.4403;-4.5057;7.5269;-3.3636;-3.569;8.4923;-2.2005;2.8395;4.093;2.6792;0.795;1.999;2259.0;2.64;-4.29;-39.37;146.26;21.34;21.61;5.0;986.7;54.427;35.9562;-83.92652;805.81;NaN;;4.39;12.226105;105.7;14 / 20;166021;2022-10-12 12:46:35:379
-2.2947;2.6527;9.2701;-0.3147;1.5556;9.6774;2.215;-1.2159;0.167;-0.4994;-1.7101;-1.5762;2332.0;-9.39;-19.07;-33.77;124.34;-19.85;0.5;5.0;986.79;57.962;35.9562;-83.92651;809.89;NaN;;3.67;12.226105;98.5;14 / 20;166521;2022-10-12 12:46:35:879
-1.6639;-0.3365;9.6601;-1.4677;1.9857;9.4907;-1.6156;-2.4548;1.4781;1.547;1.2961;1.0781;2602.0;-20.46;-22.37;-28.57;137.24;1.26;1.83;5.0;986.73;57.702;35.9562;-83.92651;809.89;NaN;;3.67;12.226105;98.5;14 / 20;167022;2022-10-12 12:46:36:380
-1.197;2.4203;11.0943;-1.3139;0.0727;9.718;-0.8188;0.3487;-1.0162;-0.6577;0.161;-1.4056;2104.0;-18.24;-22.74;-30.77;136.02;-0.42;7.7;5.0;986.76;54.965;35.956196;-83.926506;814.24;NaN;;3.92;12.226105;143.0;12 / 20;167522;2022-10-12 12:46:36:880
-6.0188;-0.6739;14.6877;-2.6194;-0.604;9.431;-3.3429;0.2187;4.9743;0.6599;0.533;-0.0781;2237.0;-12.04;-15.54;-36.49;130.19;3.53;15.52;5.0;986.75;54.076;35.956196;-83.926506;814.24;NaN;;3.92;12.226105;143.0;12 / 20;168021;2022-10-12 12:46:37:379
-1.9884;-0.3162;15.868;-1.8015;1.5943;9.507;1.0236;-3.7471;0.0205;-2.6612;-0.7242;-1.5927;2016.0;-11.89;-20.62;-33.66;130.82;-9.36;10.73;5.0;986.74;54.399;35.956196;-83.9265;815.53;NaN;;4.36;12.226105;95.0;12 / 20;168521;2022-10-12 12:46:37:879
-5.3833;-1.1001;15.0781;-0.6095;-2.7832;9.3836;-3.5367;3.3359;5.9116;1.8051;1.5516;0.6799;2335.0;-11.89;-16.22;-36.34;159.19;20.48;-2.3;5.0;986.74;54.054;35.956196;-83.9265;815.53;NaN;;4.36;12.226105;95.0;12 / 20;169021;2022-10-12 12:46:38:379
-0.3532;-2.0602;7.2063;-2.1432;1.2091;9.4929;1.3815;-4.5047;-0.229;-0.6335;-0.162;-0.8584;1986.0;-10.01;-20.23;-33.75;111.83;-22.1;12.51;5.0;986.76;53.655;35.956192;-83.92648;818.84;NaN;;3.38;12.226105;116.6;13 / 20;169522;2022-10-12 12:46:38:880
-8.2872;-0.5028;12.8982;0.4268;-4.027;8.9315;-4.9274;4.589;0.0071;0.5982;0.8728;0.2188;2421.0;-12.64;-12.13;-34.84;156.12;24.24;-2.74;5.0;986.76;56.403;35.956192;-83.92648;818.84;NaN;;3.38;12.226105;116.6;13 / 20;170023;2022-10-12 12:46:39:381
-0.0299;-3.2632;6.8327;-1.9831;3.4901;8.9475;1.7983;-6.4897;-2.2005;0.6599;-0.2421;-0.0298;2319.0;-13.03;-12.96;-33.96;89.91;-23.62;14.11;5.0;986.77;54.663;35.956192;-83.926476;821.1;NaN;;3.56;12.226105;127.0;13 / 20;170523;2022-10-12 12:46:39:881
-5.9495;0.5004;16.7815;2.1759;-3.427;8.927;-6.8015;4.7333;2.9613;-0.1398;0.5005;-0.7671;2596.0;-17.14;-16.14;-31.91;161.85;20.45;-13.7;5.0;986.74;54.111;35.956192;-83.926476;821.1;NaN;;3.56;12.226105;127.0;13 / 20;171021;2022-10-12 12:46:40:379
1.3549;-2.8741;5.8546;-0.4431;4.8389;8.5181;1.631;-7.348;-1.8942;1.1646;-0.2191;2.6462;2428.0;-14.44;-21.24;-30.92;111.93;-23.79;12.97;5.0;986.77;53.555;35.956184;-83.92646;820.87;NaN;;3.64;12.226105;129.7;13 / 20;171521;2022-10-12 12:46:40:879
-3.4259;3.955;11.415;1.2998;-4.3709;8.682;-4.9399;4.1225;1.7428;-0.7566;-0.366;-0.3583;2766.0;-20.36;-14.4;-31.71;151.72;26.47;-8.51;5.0;986.74;54.583;35.956184;-83.92646;820.87;NaN;;3.64;12.226105;129.7;13 / 20;172022;2022-10-12 12:46:41:380
0.1795;-2.0722;7.0878;-2.3673;4.9613;8.1211;2.8703;-6.8211;0.3469;0.3774;0.0486;0.7801;2510.0;-17.03;-14.96;-34.11;101.6;-18.56;15.23;5.0;986.74;53.445;35.956184;-83.926445;818.11;NaN;;5.29;12.226105;87.0;13 / 20;172521;2022-10-12 12:46:41:879
-4.2114;3.0667;11.6426;0.8226;-3.8142;8.997;-4.8635;7.3688;3.9159;-0.8899;0.267;-1.4575;2992.0;-20.51;-15.71;-31.82;151.34;25.78;-8.36;5.0;986.73;54.18;35.956184;-83.926445;818.11;NaN;;5.29;12.226105;87.0;13 / 20;173022;2022-10-12 12:46:42:380
1.1276;-2.3378;6.9954;-2.2995;2.4453;9.2143;2.8707;-5.1388;-1.624;0.5275;-0.4377;0.3538;2230.0;-14.19;-16.16;-35.61;108.89;-14.44;14.01;5.0;986.73;53.757;35.95619;-83.92644;815.79;NaN;;4.18;12.226105;93.9;12 / 20;173522;2022-10-12 12:46:42:880
-4.0436;0.6559;9.9703;0.9776;-3.3226;9.1747;-4.8399;2.8747;0.5712;-1.3181;-0.7675;-1.6335;2304.0;-14.64;-20.61;-32.87;160.02;19.8;-6.08;5.0;986.72;55.444;35.95619;-83.92644;815.79;NaN;;4.18;12.226105;93.9;12 / 20;174022;2022-10-12 12:46:43:380
-0.1077;-2.691;8.3578;-1.969;3.2198;9.0513;1.4972;-5.6073;0.9272;0.9628;-0.3234;1.4017;2351.0;-9.41;-22.54;-33.37;126.66;-19.17;12.27;5.0;986.72;54.012;35.956184;-83.92642;815.13;NaN;;4.46;12.226105;116.2;12 / 20;174522;2022-10-12 12:46:43:880
-2.5208;3.2261;10.2156;0.3225;-3.4346;9.1799;-2.0216;4.515;1.1177;-0.4636;-0.2888;-0.6125;2577.0;-20.91;-17.94;-29.85;136.68;11.96;2.49;5.0;986.73;53.361;35.956184;-83.92642;815.13;NaN;;4.46;12.226105;116.2;12 / 20;175022;2022-10-12 12:46:44:380
-0.3173;-2.254;7.654;-1.9623;4.1439;8.6688;1.4116;-6.4026;-0.3987;1.6013;0.4752;1.4069;2418.0;-18.45;-13.58;-33.07;104.0;-15.05;12.48;5.0;986.72;54.588;35.956184;-83.92641;815.2;NaN;;4.28;12.226105;101.6;12 / 20;175522;2022-10-12 12:46:44:880
-3.888;3.0583;11.9201;0.043;-2.4172;9.504;-2.3355;2.5094;0.5444;-1.4687;-0.5872;-1.2874;2518.0;-20.14;-15.08;-30.49;137.86;14.27;-0.26;5.0;986.74;53.748;35.956184;-83.92641;815.2;NaN;;4.28;12.226105;101.6;12 / 20;176022;2022-10-12 12:46:45:380
0.4789;-2.1966;8.5899;-1.5498;4.3873;8.6325;1.2269;-6.8012;0.1605;1.7104;0.3137;2.8214;2508.0;-18.09;-12.86;-32.74;104.37;-12.8;15.32;5.0;986.75;53.942;35.95618;-83.9264;813.57;NaN;;4.28;12.226105;101.9;12 / 20;176522;2022-10-12 12:46:45:880
-7.9053;0.1639;6.9021;-1.4873;-0.5191;9.6793;1.0171;4.2598;3.7189;0.2648;-0.7084;-3.992;2249.0;-17.06;-20.01;-30.82;134.93;3.03;8.74;5.0;986.74;53.97;35.95618;-83.9264;813.57;NaN;;4.28;12.226105;101.9;12 / 20;177022;2022-10-12 12:46:46:380
0.382;-1.64;8.5899;-2.5727;3.366;8.8443;2.5323;-5.3626;0.0195;0.6278;0.0939;4.1493;2511.0;-6.94;-24.32;-32.1;139.64;-7.5;19.18;5.0;986.72;53.915;35.95618;-83.926384;813.0;NaN;;4.36;12.226105;101.2;12 / 20;177522;2022-10-12 12:46:46:880
-3.3302;-0.4789;9.8192;-0.7596;-1.7872;9.6125;-0.0644;2.1337;0.9913;-0.8732;-0.2113;-3.2363;2370.0;-17.49;-18.15;-32.66;140.19;10.5;4.52;5.0;986.72;54.907;35.95618;-83.926384;813.0;NaN;;4.36;12.226105;101.2;12 / 20;178021;2022-10-12 12:46:47:379
-0.2982;-1.197;8.8391;-2.6156;2.2943;9.1687;0.3552;-4.3591;0.9012;1.4114;0.2325;1.3988;2311.0;-11.91;-19.46;-34.28;134.26;2.31;15.6;5.0;986.73;54.217;35.95618;-83.92637;814.59;NaN;;4.39;12.226105;97.9;12 / 20;178521;2022-10-12 12:46:47:879
-2.7173;-1.1503;9.3407;-0.3051;-2.6721;9.4307;-2.1104;1.6986;0.1653;-1.4421;-0.0135;-3.5233;2079.0;-16.8;-20.34;-30.77;132.84;0.72;9.63;5.0;986.71;56.213;35.95618;-83.92637;814.59;NaN;;4.39;12.226105;97.9;12 / 20;179022;2022-10-12 12:46:48:380
0.3054;-2.7377;9.5871;-3.2919;2.2186;8.9673;-0.0183;-5.5493;2.9307;1.735;0.1307;3.1672;2273.0;-11.51;-18.06;-33.79;116.08;-13.08;20.16;5.0;986.71;54.883;35.956177;-83.92636;815.68;NaN;;4.93;12.226105;123.2;13 / 20;179522;2022-10-12 12:46:48:880
-4.0077;0.6583;10.5162;-0.7287;-2.2453;9.5183;-2.0417;3.225;1.3549;-1.9014;-0.4773;-2.7839;1951.0;-13.89;-20.51;-30.73;149.1;13.24;4.38;5.0;986.72;54.36;35.956177;-83.92636;815.68;NaN;;4.93;12.226105;123.2;13 / 20;180021;2022-10-12 12:46:49:379
0.1938;-1.7381;7.8132;-2.9553;2.3994;9.0377;0.0598;-5.6338;1.2793;1.6494;0.0749;2.3323;2243.0;-11.27;-15.19;-33.81;109.57;-14.16;18.11;5.0;986.73;54.513;35.956177;-83.926346;812.44;NaN;;5.22;12.226105;90.4;13 / 20;180521;2022-10-12 12:46:49:879
-8.9827;3.8916;6.7837;-1.3656;-0.2245;9.7085;-0.204;5.1495;1.5509;-0.4689;-1.1686;0.9237;2079.0;-12.84;-21.51;-30.58;135.77;-4.33;12.36;5.0;986.72;56.089;35.956177;-83.926346;812.44;NaN;;5.22;12.226105;90.4;13 / 20;181021;2022-10-12 12:46:50:379
0.6105;-0.3281;7.3869;-2.8774;4.2793;8.3414;2.907;-4.8186;-1.2494;0.5873;0.4782;2.1175;2276.0;-9.84;-21.47;-31.65;117.94;-19.32;21.72;5.0;986.72;53.784;35.956173;-83.92633;814.54;NaN;;4.54;12.226105;101.7;13 / 20;181522;2022-10-12 12:46:50:880
-5.0001;0.9685;7.3558;-1.6287;-0.485;9.6583;-1.7872;1.9519;-1.8067;-0.8395;-1.092;-1.5108;2077.0;-10.07;-21.28;-31.86;145.93;2.83;9.57;5.0;986.74;54.742;35.956173;-83.92633;814.54;NaN;;4.54;12.226105;101.7;13 / 20;182022;2022-10-12 12:46:51:380
0.6715;-0.6559;8.4248;-3.2767;3.1452;8.6914;3.6184;-4.1566;-0.117;0.8873;0.2504;2.8688;2307.0;-5.08;-19.46;-33.69;131.1;-7.48;21.58;5.0;986.72;54.647;35.956173;-83.92632;816.1;NaN;;4.54;12.226105;110.6;13 / 20;182521;2022-10-12 12:46:51:879
-5.5077;1.2114;7.8383;-1.6141;-0.5696;9.6561;-0.5042;2.0464;-0.5528;-0.8162;-1.1845;-1.702;2050.0;-8.83;-22.95;-31.59;150.2;3.33;9.49;5.0;986.73;55.835;35.956173;-83.92632;816.1;NaN;;4.54;12.226105;110.6;13 / 20;183022;2022-10-12 12:46:52:380
0.2704;-1.2197;8.1338;-3.1018;3.0913;8.7746;2.8849;-4.4352;-0.5163;0.8149;0.5316;3.4241;2353.0;-5.01;-21.94;-32.59;139.45;-5.11;21.09;5.0;986.73;55.327;35.95617;-83.92631;815.52;NaN;;4.61;12.226105;103.9;13 / 20;183522;2022-10-12 12:46:52:880
-5.0073;-0.3341;9.5895;-1.472;-1.0705;9.6363;0.1789;1.9589;-0.8788;-1.4579;-1.3052;-1.7406;2031.0;-10.72;-22.16;-30.79;148.14;6.27;8.69;5.0;986.71;54.501;35.95617;-83.92631;815.52;NaN;;4.61;12.226105;103.9;13 / 20;184023;2022-10-12 12:46:53:381
0.6176;-1.5718;7.0062;-2.8503;3.2041;8.8193;1.4791;-6.5675;0.1832;0.7206;-0.2634;1.6013;2115.0;-7.99;-17.78;-33.68;132.19;-1.39;19.85;5.0;986.72;55.054;35.95617;-83.926285;816.31;NaN;;4.79;12.226105;92.0;13 / 20;184522;2022-10-12 12:46:53:880
-1.7512;2.4562;10.3244;-0.5344;-2.8532;9.3672;-0.8485;5.4016;0.8719;-1.2718;-0.1793;-0.3051;2270.0;-15.09;-14.91;-31.57;141.47;10.5;2.34;5.0;986.75;55.265;35.95617;-83.926285;816.31;NaN;;4.79;12.226105;92.0;13 / 20;185023;2022-10-12 12:46:54:381
-0.5375;-0.9817;7.4647;-3.0124;1.4271;9.2227;-0.557;-3.7154;0.2435;0.9381;0.3098;1.8716;2168.0;-14.61;-9.17;-33.82;101.12;-8.37;18.09;5.0;986.73;55.467;35.956165;-83.92627;814.17;NaN;;4.93;12.226105;116.2;12 / 20;185521;2022-10-12 12:46:54:879
-2.9028;0.4119;7.7856;-1.4098;-1.6043;9.5713;-0.9739;2.4372;-0.1126;-0.8085;-0.6693;-1.4321;1961.0;-12.75;-16.69;-32.78;140.98;9.42;8.38;5.0;986.74;57.246;35.956165;-83.92627;814.17;NaN;;4.93;12.226105;116.2;12 / 20;186022;2022-10-12 12:46:55:380
-0.9135;-3.1208;7.9388;-3.237;0.1247;9.2562;-3.1706;-1.901;5.0737;2.0108;1.1301;3.0253;2075.0;-13.67;-11.51;-34.22;115.49;-0.73;19.28;5.0;986.73;55.689;35.956165;-83.926254;813.32;NaN;;5.08;12.226105;92.3;11 / 20;186521;2022-10-12 12:46:55:879
-2.8238;2.5582;7.9807;-0.9275;1.8914;9.5777;-2.71;0.6189;2.9342;-0.4216;-0.4404;-1.3041;2027.0;-16.11;-18.53;-29.36;119.21;-15.74;7.93;5.0;986.74;56.311;35.956165;-83.926254;813.32;NaN;;5.08;12.226105;92.3;11 / 20;187022;2022-10-12 12:46:56:380
-2.7736;0.8378;9.9153;-2.4143;1.9424;9.3042;-0.8087;-1.2604;0.4249;0.6198;1.311;1.5042;2250.0;-16.39;-22.18;-26.87;137.19;-2.57;7.38;5.0;986.7;55.883;35.95617;-83.92625;815.17;NaN;;5.62;12.226105;56.2;11 / 20;187522;2022-10-12 12:46:56:880
-0.7457;0.7313;12.9975;-1.4437;0.6333;9.6791;0.8567;1.0664;-0.6786;-0.0771;0.03;-3.1971;1905.0;-15.83;-18.19;-28.93;128.97;-3.7;8.48;5.0;986.7;56.902;35.95617;-83.92625;815.17;NaN;;5.62;12.226105;56.2;11 / 20;188021;2022-10-12 12:46:57:379
-4.9702;-0.5267;10.7949;-3.0189;0.8042;9.2957;-3.5998;-1.2899;2.5406;-0.2384;0.268;1.9585;2214.0;-9.37;-20.85;-28.8;142.72;-0.41;14.22;5.0;986.71;56.543;35.956177;-83.92623;814.88;NaN;;4.61;12.226105;63.9;11 / 20;188521;2022-10-12 12:46:57:879
0.1448;4.6516;8.0333;-3.2266;3.8233;8.4346;0.6085;-2.8843;-0.1521;-0.3596;0.1095;1.7761;1636.0;-9.53;-16.65;-31.22;105.75;-22.95;20.93;5.0;986.69;57.37;35.956177;-83.92623;814.88;NaN;;4.61;12.226105;63.9;11 / 20;189021;2022-10-12 12:46:58:379
-1.707;5.0587;11.013;-3.127;3.8319;8.4681;-1.9108;2.0908;2.4006;-0.1229;0.239;0.4209;1738.0;-10.01;-12.19;-33.82;94.68;-19.68;20.36;5.0;986.73;59.37;35.956177;-83.926216;816.11;NaN;;5.29;12.226105;95.0;11 / 20;189521;2022-10-12 12:46:58:879
-2.4168;6.5958;11.4784;-2.3436;4.5125;8.3854;0.801;-1.2545;-0.1277;-0.5286;-0.6207;-0.7193;1711.0;-11.62;-12.3;-34.76;80.87;-27.4;15.62;5.0;986.73;59.509;35.956177;-83.926216;816.11;NaN;;5.29;12.226105;95.0;11 / 20;190021;2022-10-12 12:46:59:379
-3.4798;2.3318;8.0369;-2.4263;2.8059;9.078;-2.4864;2.8552;4.1516;0.5745;0.7429;0.7814;1845.0;-12.62;-14.04;-33.84;102.24;-17.24;14.97;5.0;986.67;60.483;35.956173;-83.9262;812.41;NaN;;4.64;12.226105;123.4;11 / 20;190522;2022-10-12 12:46:59:880
-1.7728;1.4234;9.1645;-2.3355;1.2388;9.4436;-0.1088;0.095;0.0568;-1.1851;-0.5665;-2.2803;1998.0;-11.76;-15.3;-34.16;101.42;-19.63;12.81;5.0;986.7;60.083;35.956173;-83.9262;812.41;NaN;;4.64;12.226105;123.4;11 / 20;191022;2022-10-12 12:47:00:380
-3.7756;3.8079;12.6144;-1.9921;-0.6902;9.5773;-1.4257;4.3311;1.6033;0.8238;0.4161;0.0128;2321.0;-13.11;-11.83;-35.72;125.42;4.04;11.75;5.0;986.69;62.295;35.956177;-83.926186;809.87;NaN;;6.19;12.226105;74.2;12 / 20;191522;2022-10-12 12:47:00:880
-2.4993;-2.6767;12.4672;-2.9008;1.4926;9.2481;1.4002;-2.6608;1.4227;-0.2969;-0.2389;-0.4921;2417.0;-11.34;-14.49;-36.11;113.19;-8.75;17.41;5.0;986.72;63.661;35.956177;-83.926186;809.87;NaN;;6.19;12.226105;74.2;12 / 20;192022;2022-10-12 12:47:01:380
-5.2047;0.4071;13.4513;-2.548;-1.7268;9.3111;-1.6735;2.2883;-1.0112;-0.4486;-0.1679;-0.4499;3412.0;-7.31;-13.35;-37.95;138.44;10.14;15.3;5.0;986.7;58.646;35.956177;-83.92616;809.89;NaN;;4.28;12.226105;94.9;12 / 20;192523;2022-10-12 12:47:01:881
-2.3127;-4.8817;12.5581;-3.1692;1.5337;9.1528;1.1005;-3.5018;-0.9343;-0.2411;-0.5588;-0.3821;3775.0;-4.29;-12.92;-39.62;118.49;-5.2;20.63;5.0;986.68;60.852;35.956177;-83.92616;809.89;NaN;;4.28;12.226105;94.9;12 / 20;193022;2022-10-12 12:47:02:380
-8.3112;0.1795;16.0825;-1.9262;-1.1089;9.5515;-4.9017;3.372;1.944;-0.6977;-0.4008;0.564;4366.0;-5.55;-16.46;-36.79;147.85;5.71;9.81;5.0;986.7;60.616;35.95618;-83.92615;808.31;NaN;;4.54;12.226105;85.4;13 / 20;193522;2022-10-12 12:47:02:880
-0.7205;-2.1571;8.1676;-3.31;4.3671;8.1328;1.6959;-5.8766;-0.0802;-0.2194;-0.745;-0.2611;4004.0;-5.12;-18.02;-35.08;98.05;-26.44;22.15;5.0;986.68;61.795;35.95618;-83.92615;808.31;NaN;;4.54;12.226105;85.4;13 / 20;194023;2022-10-12 12:47:03:381
-8.8355;3.3338;12.3847;-1.9899;-1.088;9.5408;-6.4585;3.6873;1.422;-0.3494;-0.7491;-1.6481;4052.0;-4.44;-19.91;-34.69;151.09;2.34;13.02;5.0;986.7;62.445;35.956177;-83.926125;805.3;NaN;;5.22;12.226105;111.7;14 / 20;194522;2022-10-12 12:47:03:880
-1.7668;-1.4533;7.0424;-3.1019;2.8727;8.8485;2.9023;-3.9585;-0.8366;-0.0832;-0.0589;-1.3174;5050.0;-3.28;-17.19;-37.12;112.74;-17.03;19.32;5.0;986.7;66.466;35.956177;-83.926125;805.3;NaN;;5.22;12.226105;111.7;14 / 20;195021;2022-10-12 12:47:04:379
-6.7346;0.1699;13.2634;-1.1073;-2.9197;9.2962;-3.3791;4.5609;1.899;-1.0195;-0.493;-1.3223;5973.0;-7.88;-16.41;-34.57;148.27;11.97;9.94;5.0;986.7;64.584;35.956177;-83.92611;807.11;NaN;;4.28;12.226105;107.0;14 / 20;195522;2022-10-12 12:47:04:880
-0.5877;-3.9419;9.3814;-3.3298;2.8753;8.7644;1.9471;-5.2104;-0.2815;0.445;-0.161;0.495;5624.0;-7.16;-16.56;-32.4;114.63;-17.05;20.8;5.0;986.71;64.24;35.956177;-83.92611;807.11;NaN;;4.28;12.226105;107.0;14 / 20;196021;2022-10-12 12:47:05:379
-9.3802;-1.9908;12.6912;1.1987;-2.4556;9.4183;-5.4111;4.5199;2.1321;0.5753;1.8226;-2.5955;5924.0;-7.56;-17.53;-31.59;154.01;10.77;6.26;5.0;986.71;64.343;35.956177;-83.926094;810.25;NaN;;4.39;12.226105;114.9;14 / 20;196523;2022-10-12 12:47:05:881
-0.929;-2.6874;7.9496;-2.7393;3.1526;8.8729;2.039;-5.6004;-0.9888;0.8554;0.304;0.3058;6039.0;-5.98;-17.12;-31.07;117.62;-17.69;16.87;5.0;986.69;60.976;35.956177;-83.926094;810.25;NaN;;4.39;12.226105;114.9;14 / 20;197021;2022-10-12 12:47:06:379
-4.3825;1.8182;12.2483;-0.3849;-3.0685;9.3063;-3.3681;2.7444;-0.025;-0.7845;-0.5416;-0.8947;6751.0;-11.25;-13.24;-32.83;151.25;18.23;2.37;5.0;986.71;59.525;35.956177;-83.92609;809.25;NaN;;4.68;12.226105;99.7;14 / 20;197521;2022-10-12 12:47:06:879
-1.3657;-2.697;8.0189;-3.224;2.6996;8.8594;2.1997;-5.083;-1.1659;1.2402;0.2892;0.5569;27096.0;-9.98;-11.04;-34.5;97.37;-15.98;20.0;5.0;986.72;59.37;35.956177;-83.92609;809.25;NaN;;4.68;12.226105;99.7;14 / 20;198021;2022-10-12 12:47:07:379
-5.2454;1.1838;12.6096;-0.7635;-3.0679;9.2831;-2.1186;2.3056;-0.4078;-0.9444;-0.6512;-1.1221;94849.0;-9.47;-13.13;-33.92;152.64;18.23;4.7;5.0;986.67;60.764;35.95618;-83.92607;807.04;NaN;;4.57;12.226105;91.5;14 / 20;198521;2022-10-12 12:47:07:879
-1.3513;-2.9925;7.5835;-3.5436;2.7167;8.7312;2.1829;-4.7985;-1.1593;-0.0576;-0.0547;0.1759;106277.0;-9.99;-7.59;-35.42;105.69;-4.14;18.75;5.0;986.68;59.007;35.95618;-83.92607;807.04;NaN;;4.57;12.226105;91.5;14 / 20;199022;2022-10-12 12:47:08:380
-5.1784;2.6264;7.8909;-3.7409;1.1185;8.9958;-0.2227;-0.8545;-4.5362;0.721;-0.2976;-0.7475;67795.0;-6.36;-12.83;-35.51;113.9;-7.12;25.09;5.0;986.69;58.209;35.956184;-83.92605;803.73;NaN;;4.57;12.226105;85.0;13 / 20;199523;2022-10-12 12:47:08:881
-2.4873;-3.1531;5.5184;-2.1379;1.2794;9.4849;2.0563;-1.2916;-2.0588;-0.3939;-1.1544;-0.2117;101781.0;-8.51;-10.59;-35.36;112.16;-7.5;12.7;5.0;986.68;59.255;35.956184;-83.92605;803.73;NaN;;4.57;12.226105;85.0;13 / 20;200022;2022-10-12 12:47:09:380
-0.6966;-1.3035;8.5971;-0.3972;-3.7804;9.04;0.0048;2.4919;-2.1913;-0.2949;0.9373;-1.5916;68234.0;-20.21;-0.64;-31.05;116.86;17.86;0.87;5.0;986.66;58.068;35.956184;-83.92603;800.98;NaN;;4.57;12.226105;95.3;13 / 20;200522;2022-10-12 12:47:09:880
-0.4358;-2.0794;7.3642;-1.926;0.8177;9.5808;0.117;-3.6231;0.4751;1.311;-0.073;1.1263;95859.0;-16.26;-2.42;-33.98;88.66;-4.78;11.37;5.0;986.65;59.717;35.956184;-83.92603;800.98;NaN;;4.57;12.226105;95.3;13 / 20;201023;2022-10-12 12:47:10:381
-1.5909;-0.3162;8.3674;-1.0774;-1.756;9.5878;0.2641;1.7638;-2.1943;-0.3554;0.3533;-0.9906;82084.0;-19.07;-10.8;-30.84;121.29;4.6;5.49;5.0;986.69;59.123;35.95619;-83.92602;802.68;NaN;;4.68;12.226105;86.3;13 / 20;201523;2022-10-12 12:47:10:881
0.0849;-1.4079;8.7422;-2.4891;-0.8401;9.4482;-2.0918;-1.8241;2.4195;0.9824;-0.1146;2.0093;99192.0;-24.81;-9.54;-31.86;110.47;4.91;14.76;5.0;986.63;57.085;35.95619;-83.92602;802.68;NaN;;4.68;12.226105;86.3;13 / 20;202021;2022-10-12 12:47:11:379
-2.6539;-0.1579;6.9799;-1.9608;-0.7608;9.5785;-0.2353;0.4808;1.472;-0.0151;0.0283;-2.3119;97104.0;-21.67;-4.58;-36.86;97.72;-1.73;13.45;5.0;986.62;56.633;35.956192;-83.926;801.82;NaN;;4.54;12.226105;89.8;14 / 20;202521;2022-10-12 12:47:11:879
-3.4534;-2.2851;10.0684;-2.5103;0.442;9.4696;0.0374;-2.3357;0.5188;0.3907;-0.0137;3.6074;107395.99;-11.42;-9.49;-38.91;125.64;8.69;13.59;5.0;986.65;58.266;35.956192;-83.926;801.82;NaN;;4.54;12.226105;89.8;14 / 20;203021;2022-10-12 12:47:12:379
2.5415;4.7764;8.1338;-0.5988;3.988;8.9391;-1.3991;-0.5955;1.1152;0.447;1.0381;0.08;82323.0;-11.96;-12.49;-38.23;74.12;-24.0;3.83;5.0;986.65;58.446;35.956192;-83.92599;800.06;NaN;;4.68;12.226105;100.8;14 / 20;203521;2022-10-12 12:47:12:879
-4.7234;6.7119;11.5995;-4.8349;4.946;6.952;-2.36;0.677;4.7684;-0.7511;-0.4345;0.856;103212.0;3.06;-17.34;-33.62;89.11;-30.29;34.82;5.0;986.72;57.637;35.956192;-83.92599;800.06;NaN;;4.68;12.226105;100.8;14 / 20;204021;2022-10-12 12:47:13:379
-4.9068;4.6636;12.3188;-2.8455;3.642;8.6492;-1.1408;-1.8996;0.6739;-0.333;-0.6846;-0.8839;100031.0;3.51;-23.47;-27.06;157.8;-21.8;18.21;5.0;986.67;57.513;35.956192;-83.925964;799.54;NaN;;4.46;12.226105;88.5;14 / 20;204521;2022-10-12 12:47:13:879
-3.7026;3.2692;9.8121;-2.9688;2.9586;8.8658;-2.0193;1.9331;5.7861;1.2234;0.5953;0.9192;61046.004;-11.81;-17.96;-20.42;131.54;-9.27;16.5;5.0;986.66;56.688;35.956192;-83.925964;799.54;NaN;;4.46;12.226105;88.5;14 / 20;205021;2022-10-12 12:47:14:379
-1.8338;5.68;14.1227;-1.8917;2.9224;9.1679;-0.1512;1.6383;4.264;-1.9732;-0.5499;0.4752;71943.0;-2.61;-14.68;-18.58;124.97;-27.61;12.96;5.0;986.68;55.408;35.956192;-83.92595;799.41;NaN;;4.75;12.226105;107.7;14 / 20;205521;2022-10-12 12:47:14:879
-5.0731;5.1437;10.1474;-2.4468;2.9697;9.0202;-0.9519;2.709;0.3636;0.6483;-0.2915;1.0267;29239.002;-2.55;-6.62;-20.21;97.45;-17.63;15.18;5.0;986.66;55.107;35.956192;-83.92595;799.41;NaN;;4.75;12.226105;107.7;14 / 20;206021;2022-10-12 12:47:15:379
-1.8709;3.1663;10.6872;-1.5327;2.2909;9.4113;-1.4533;-0.9266;4.0631;-1.3829;-0.2434;-0.6719;57225.0;-0.6;-20.25;-13.44;168.1;-22.06;8.45;5.0;986.64;56.293;35.956192;-83.925934;799.09;NaN;;4.82;12.226105;90.0;14 / 20;206522;2022-10-12 12:47:15:880
-5.0013;3.1807;15.3042;-2.9263;-0.2458;9.3566;-1.2022;4.61;2.426;0.2695;0.1363;0.1704;90692.0;-14.23;-11.34;-32.03;116.96;1.44;17.37;5.0;986.65;55.255;35.956192;-83.925934;799.09;NaN;;4.82;12.226105;90.0;14 / 20;207022;2022-10-12 12:47:16:380
-2.2816;0.5985;9.7164;-2.6742;1.0522;9.3762;0.8051;-3.1062;1.5803;-0.4878;-0.4439;-0.6987;98553.0;-7.8;-6.41;-27.47;89.72;-14.16;14.72;5.0;986.63;56.764;35.956196;-83.92592;796.17;NaN;;4.64;12.226105;93.1;14 / 20;207522;2022-10-12 12:47:16:880
-6.0344;0.0742;8.9324;-4.2795;-1.0181;8.7647;-0.8234;3.1436;1.0994;-0.6084;0.5072;-0.6364;103524.0;11.46;-2.31;-22.56;177.45;5.96;26.02;5.0;986.65;55.224;35.956196;-83.92592;796.17;NaN;;4.64;12.226105;93.1;14 / 20;208022;2022-10-12 12:47:17:380
-8.7506;-5.2178;5.6285;-4.0572;-4.7944;7.5315;-0.8221;-2.3352;2.149;-0.1272;-0.1048;-1.0632;133434.0;12.15;-4.91;-27.32;152.05;26.2;41.65;5.0;986.64;55.19;35.9562;-83.9259;794.03;NaN;;4.61;12.226105;85.6;14 / 20;208523;2022-10-12 12:47:17:881
-5.2226;-5.7637;7.9675;-3.9856;-5.061;7.394;-2.091;0.8411;0.0542;1.1778;0.4048;-0.7652;143433.0;-0.96;-6.09;-34.37;140.84;37.78;30.66;5.0;986.65;54.977;35.9562;-83.9259;794.03;NaN;;4.61;12.226105;85.6;14 / 20;209022;2022-10-12 12:47:18:380
-6.3012;-4.6851;8.723;-4.3912;-3.5245;8.0291;-0.0963;-1.3442;1.9517;0.1452;0.2844;-0.6919;123309.01;-1.71;-3.45;-20.23;127.66;21.06;28.67;5.0;986.64;55.097;35.9562;-83.92589;790.4;NaN;;3.92;12.226105;102.2;15 / 20;209522;2022-10-12 12:47:18:880
-7.1453;-2.91;10.442;-4.634;-3.9692;7.6774;-2.5483;-0.2873;3.3775;0.477;0.7604;-0.6318;37015.0;-22.65;-12.97;-32.74;116.74;23.88;31.11;5.0;986.62;57.39;35.9562;-83.92589;790.4;NaN;;3.92;12.226105;102.2;15 / 20;210021;2022-10-12 12:47:19:379
-2.9674;-5.9064;11.1553;-3.6356;-1.5896;8.9681;0.4994;-3.3474;-1.2812;-0.8862;-0.057;-1.3158;54832.0;-3.71;9.54;-34.93;73.94;9.33;22.07;5.0;986.64;55.514;35.9562;-83.92587;791.68;NaN;;5.0;12.226105;92.2;15 / 20;210523;2022-10-12 12:47:19:881
-7.1082;-0.9649;10.5317;-3.4013;-5.7141;7.2077;-4.8756;0.7807;5.4059;1.4367;0.1704;0.8199;8457.0;5.79;9.47;-34.43;136.02;34.04;27.82;5.0;986.67;52.564;35.9562;-83.92587;791.68;NaN;;5.0;12.226105;92.2;15 / 20;211021;2022-10-12 12:47:20:379
-3.1412;-6.3826;9.489;-3.0915;-0.521;9.292;0.7443;-4.4997;-0.9828;0.3727;-1.033;-0.088;7791.0;12.21;-12.26;-23.61;169.49;-2.63;30.83;5.0;986.65;53.676;35.9562;-83.92586;792.27;NaN;;4.82;12.226105;107.9;15 / 20;211521;2022-10-12 12:47:20:879
-4.4578;1.2808;10.7507;-1.7074;-4.9782;8.2748;-4.5793;3.8561;2.9485;0.4006;0.3411;1.0194;8295.0;3.66;-20.25;-34.29;175.11;30.51;11.66;5.0;986.64;54.14;35.9562;-83.92586;792.27;NaN;;4.82;12.226105;107.9;15 / 20;212021;2022-10-12 12:47:21:379
-2.5149;-4.1094;10.2754;-4.0066;1.3678;8.8457;0.7724;-5.9702;-1.7688;0.5909;-0.0419;0.6645;8196.0;-4.99;-13.65;-30.3;118.41;-10.36;24.75;5.0;986.63;54.177;35.956196;-83.92584;791.25;NaN;;4.57;12.226105;101.7;15 / 20;212521;2022-10-12 12:47:21:879
-6.2629;0.8524;12.5426;-3.446;-3.2348;8.5925;-0.8331;3.4125;-2.6982;-1.0696;-0.7571;0.9793;117078.0;-4.33;-3.82;-16.97;130.22;19.26;21.85;5.0;986.65;53.225;35.956196;-83.92584;791.25;NaN;;4.57;12.226105;101.7;15 / 20;213021;2022-10-12 12:47:22:379
-1.992;-2.9279;5.0037;-3.6756;3.0763;8.5555;1.5254;-5.7382;-3.5487;1.0297;-0.1122;1.8154;124284.01;0.08;-8.7;-20.34;121.92;-9.76;28.17;5.0;986.62;54.73;35.956196;-83.92583;793.95;NaN;;4.75;12.226105;85.1;15 / 20;213521;2022-10-12 12:47:22:879
-5.298;0.0203;9.7857;-1.5033;-3.5002;9.0365;-1.6173;2.4958;1.4019;-0.8107;-0.223;-2.1017;73359.0;-9.49;-10.37;-26.12;143.81;20.91;9.45;5.0;986.61;53.138;35.956196;-83.92583;793.95;NaN;;4.75;12.226105;85.1;15 / 20;214021;2022-10-12 12:47:23:379
0.2644;-3.8701;7.8275;-2.2858;2.5387;9.1924;0.7381;-7.7623;-0.7647;0.911;-0.4216;1.1308;83451.0;-6.66;-9.86;-28.2;123.05;3.66;23.49;5.0;986.58;53.052;35.9562;-83.92581;793.44;NaN;;4.46;12.226105;85.9;15 / 20;214521;2022-10-12 12:47:23:879
-5.0839;-0.352;10.0385;-0.9808;-4.0932;8.8574;-3.8907;3.3964;1.2928;-1.1775;-0.2355;-2.3628;85335.0;-13.61;-12.79;-26.85;133.32;14.13;12.29;5.0;986.65;53.578;35.9562;-83.92581;793.44;NaN;;4.46;12.226105;85.9;15 / 20;215022;2022-10-12 12:47:24:380
-3.1472;-2.8872;8.7996;-3.4856;0.8786;9.1241;-0.8571;-4.4157;1.2252;1.4634;0.2115;1.8393;88315.0;-6.98;-10.59;-29.55;116.69;-5.14;20.91;5.0;986.59;52.395;35.9562;-83.92579;791.9;NaN;;4.54;12.226105;95.0;15 / 20;215521;2022-10-12 12:47:24:879
-3.2656;-0.3341;9.2315;-2.1917;-2.5741;9.2055;-0.6873;2.3715;0.5487;-1.0364;0.1634;-2.3983;86345.0;-9.66;-11.21;-27.26;136.6;15.22;13.39;5.0;986.58;52.805;35.9562;-83.92579;791.9;NaN;;4.54;12.226105;95.0;15 / 20;216022;2022-10-12 12:47:25:380
-4.4626;-1.998;11.2104;-3.6034;-0.5008;9.1069;-2.6726;-1.7285;2.8117;1.4656;0.4518;2.4988;112090.99;-8.51;-7.89;-30.67;115.17;2.93;21.59;5.0;986.56;55.055;35.9562;-83.92578;792.24;NaN;;4.46;12.226105;92.4;15 / 20;216522;2022-10-12 12:47:25:880
-2.819;-0.3485;9.2315;-2.5644;-1.6607;9.3186;-0.2433;0.4894;0.656;-0.9296;-0.1298;-1.2725;79178.0;-10.33;-15.36;-31.72;126.67;-1.38;17.69;5.0;986.6;51.333;35.9562;-83.92578;792.24;NaN;;4.46;12.226105;92.4;15 / 20;217021;2022-10-12 12:47:26:379
-2.6061;-1.7764;7.2888;-3.1564;1.1547;9.2127;-0.9885;-3.1328;-0.0987;1.6271;0.5046;1.5932;86927.0;-10.33;-10.22;-35.1;125.77;7.91;16.65;5.0;986.58;53.827;35.9562;-83.925766;791.85;NaN;;4.72;12.226105;95.0;15 / 20;217522;2022-10-12 12:47:26:880
-1.7524;0.6284;9.6302;-2.5011;0.0796;9.482;0.4671;0.2196;-1.818;-1.1269;-0.1465;-0.8536;63310.004;-18.26;-17.38;-33.04;123.01;-0.47;14.78;5.0;986.61;52.078;35.9562;-83.925766;791.85;NaN;;4.72;12.226105;95.0;15 / 20;218022;2022-10-12 12:47:27:380
-3.6377;-2.4766;9.21;-3.4537;0.0663;9.1781;-1.8545;-1.3029;2.8294;1.9969;1.1327;0.1607;84062.0;-20.74;-8.83;-38.12;122.66;16.99;11.92;5.0;986.54;50.883;35.9562;-83.92575;793.31;NaN;;4.68;12.226105;95.1;14 / 20;218522;2022-10-12 12:47:27:880
-1.6579;0.2596;8.8726;-2.465;0.9224;9.4469;1.3217;-3.2444;0.3644;-1.2106;-0.1645;-1.479;83959.0;-15.47;-12.58;-39.77;111.43;-5.4;14.62;5.0;986.58;52.639;35.9562;-83.92575;793.31;NaN;;4.68;12.226105;95.1;14 / 20;219022;2022-10-12 12:47:28:380
-5.2322;-3.5635;11.9596;-1.0398;-2.7824;9.346;-2.8751;1.8711;1.0198;1.4376;1.2113;-0.5759;58336.0;-21.36;-0.83;-36.62;139.29;30.03;-0.43;5.0;986.55;51.034;35.9562;-83.925735;794.14;NaN;;4.57;12.226105;85.0;14 / 20;219522;2022-10-12 12:47:28:880
-0.6906;-2.0495;7.3068;-1.5192;1.6087;9.5538;1.0664;-5.9869;-1.2094;-1.3979;0.2572;-1.6994;70439.0;-20.01;-7.73;-37.57;95.0;-9.44;9.04;5.0;986.58;50.408;35.9562;-83.925735;794.14;NaN;;4.57;12.226105;85.0;14 / 20;220022;2022-10-12 12:47:29:380
-3.9491;2.0423;13.5278;-1.4853;-3.1541;9.166;-6.7211;2.6957;5.0447;2.6904;0.6396;2.3323;37740.0;-17.36;-7.33;-39.9;142.51;26.79;2.03;5.0;986.55;50.691;35.9562;-83.92572;793.65;NaN;;4.68;12.226105;91.0;14 / 20;220521;2022-10-12 12:47:29:879
-0.6643;-2.6384;7.2541;-2.5538;-0.0978;9.4678;1.6813;-0.2715;0.5983;-2.555;0.4991;-1.2572;9907.0;-18.37;-14.04;-39.28;95.82;-18.24;13.19;5.0;986.59;49.459;35.9562;-83.92572;793.65;NaN;;4.68;12.226105;91.0;14 / 20;221021;2022-10-12 12:47:30:379
-5.2131;-3.5037;11.8699;-1.9221;-4.3658;8.5683;-4.0668;3.2514;5.1829;1.2157;0.3373;1.1518;9834.0;-15.47;-6.66;-42.28;134.05;26.44;12.64;5.0;986.54;50.68;35.9562;-83.925705;795.13;NaN;;4.54;12.226105;84.2;15 / 20;221522;2022-10-12 12:47:30:880
-1.2975;-3.4845;6.9416;-2.5446;0.2693;9.4669;0.3601;-4.7104;-0.8338;-0.1312;-0.0775;-0.7899;9199.0;-16.24;-11.16;-42.21;110.77;-1.57;15.05;5.0;986.56;50.13;35.9562;-83.925705;795.13;NaN;;4.54;12.226105;84.2;15 / 20;222022;2022-10-12 12:47:31:380
-4.8111;0.4442;12.9425;-1.3674;-4.6305;8.5358;-2.5628;4.9832;1.4326;0.9179;0.98;-0.5414;9128.0;-18.68;-6.84;-42.36;133.77;28.18;9.1;5.0;986.56;49.999;35.9562;-83.92569;796.26;NaN;;4.54;12.226105;84.2;15 / 19;222522;2022-10-12 12:47:31:880
-2.9925;-3.1819;9.2291;-2.7955;1.6033;9.262;0.5279;-4.3913;-1.0781;-0.8275;-0.0359;-1.5893;9068.0;-15.67;-9.17;-44.59;94.15;-10.07;14.48;5.0;986.52;47.634;35.9562;-83.92569;796.26;NaN;;4.54;12.226105;84.2;15 / 19;223021;2022-10-12 12:47:32:379
-5.5807;0.6739;17.3393;-2.0364;-3.226;9.0342;-3.1915;4.3546;7.2301;-0.2186;0.2228;-0.6929;8949.0;-16.59;-8.17;-45.66;137.51;26.7;9.18;5.0;986.58;49.243;35.9562;-83.92568;797.38;NaN;;4.68;12.226105;89.9;15 / 20;223522;2022-10-12 12:47:32:880
-2.1344;-2.9925;7.8443;-2.6391;2.3822;9.1395;1.3281;-4.7884;-1.3498;-0.231;-0.0653;-1.1804;8702.0;-14.7;-13.13;-45.41;96.62;-14.06;16.11;5.0;986.56;48.725;35.9562;-83.92568;797.38;NaN;;4.68;12.226105;89.9;15 / 20;224022;2022-10-12 12:47:33:380
-4.884;1.1348;14.7165;-1.7328;-4.1798;8.7004;-1.6904;4.9436;2.7158;-1.0626;-0.3225;0.2065;8558.0;-16.63;-11.16;-45.24;133.48;20.93;12.11;5.0;986.58;49.863;35.9562;-83.92567;795.57;NaN;;4.1;12.226105;93.6;15 / 20;224522;2022-10-12 12:47:33:880
-1.9283;-4.0771;9.0975;-2.8333;3.0033;8.8951;0.8253;-5.79;-1.0535;-0.267;0.1676;0.4316;8302.0;-15.34;-6.92;-45.9;79.25;-17.83;17.67;5.0;986.56;48.824;35.9562;-83.92567;795.57;NaN;;4.1;12.226105;93.6;15 / 20;225022;2022-10-12 12:47:34:380
-2.4072;2.15;11.3874;-1.0857;-4.0634;8.8589;-1.5249;6.1728;2.5878;-1.13;-0.7363;-0.4692;8240.0;-16.24;-6.07;-44.59;136.6;22.46;11.01;5.0;986.55;48.29;35.9562;-83.92565;795.86;NaN;;4.64;12.226105;82.6;15 / 20;225521;2022-10-12 12:47:34:879
0.268;-1.4103;7.7498;-2.4422;2.6517;9.12;1.0161;-5.659;-2.1216;0.304;-0.2485;0.4904;8121.0;-12.36;-9.47;-44.81;84.47;-15.69;14.99;5.0;986.57;47.77;35.9562;-83.92565;795.86;NaN;;4.64;12.226105;82.6;15 / 20;226022;2022-10-12 12:47:35:380
-4.4483;0.626;11.1673;-1.2664;-4.9631;8.3627;-2.3411;4.3056;1.6652;-0.1341;0.2753;-1.5525;7982.0;-13.03;-7.46;-44.85;125.63;15.59;15.27;5.0;986.57;46.954;35.9562;-83.92563;795.04;NaN;;4.57;12.226105;85.8;15 / 20;226521;2022-10-12 12:47:35:879
-2.7401;-3.1878;7.739;-3.0845;2.6092;8.9358;0.99;-5.0301;-0.898;1.2323;-0.1288;1.0802;7705.0;-9.53;-2.23;-46.2;83.98;-6.6;19.51;5.0;986.53;47.447;35.9562;-83.92563;795.04;NaN;;4.57;12.226105;85.8;15 / 20;227023;2022-10-12 12:47:36:381
-4.7007;0.1137;9.9739;-2.0237;-3.3319;8.9985;-0.9082;2.728;0.5376;-0.8363;-0.2826;-1.6053;7562.0;-8.59;-9.9;-45.68;141.8;19.86;12.67;5.0;986.57;47.816;35.9562;-83.92561;797.07;NaN;;4.43;12.226105;85.7;15 / 20;227523;2022-10-12 12:47:36:881
-0.5734;-1.9367;7.9926;-3.0989;2.7454;8.8899;1.9629;-5.1635;-0.8673;0.8913;-0.1914;3.2542;7421.0;-5.7;-5.77;-46.31;74.3;-16.26;19.22;5.0;986.56;47.516;35.9562;-83.92561;797.07;NaN;;4.43;12.226105;85.7;15 / 20;228022;2022-10-12 12:47:37:380
-3.3721;1.7536;11.0716;-2.156;-2.15;9.322;0.2555;2.0971;-0.5827;-1.4239;-0.3401;-1.8228;7395.0;-7.52;-14.87;-44.66;143.06;12.66;13.02;5.0;986.58;48.672;35.9562;-83.9256;793.7;NaN;;4.36;12.226105;89.8;15 / 20;228521;2022-10-12 12:47:37:879
0.6009;-1.3406;7.8335;-2.08;3.066;9.0798;1.5606;-5.242;-0.7018;0.9775;-0.0969;0.7261;7270.0;-7.35;-10.46;-45.3;109.19;-3.46;19.67;5.0;986.55;49.159;35.9562;-83.9256;793.7;NaN;;4.36;12.226105;89.8;15 / 20;229021;2022-10-12 12:47:38:379
-2.9327;0.2898;9.6876;-0.811;-3.6822;9.0528;-2.046;3.8421;0.6292;-1.7395;-0.4368;-1.2867;6995.0;-10.39;-20.14;-41.7;144.04;8.0;11.71;5.0;986.55;49.353;35.9562;-83.92558;792.77;NaN;;4.61;12.226105;85.4;15 / 20;229521;2022-10-12 12:47:38:879
-2.2672;-3.6066;7.0161;-2.8042;1.9404;9.1946;-0.3103;-4.9851;1.1802;0.4148;-0.0545;2.8268;6884.0;-9.06;-8.96;-46.14;91.65;-11.41;16.96;5.0;986.51;49.071;35.9562;-83.92558;792.77;NaN;;4.61;12.226105;85.4;15 / 20;230021;2022-10-12 12:47:39:379
-2.0483;0.3018;11.5744;-1.8753;-2.4563;9.307;1.3653;1.9926;-0.4996;-1.8354;0.2672;-1.2212;7090.0;-14.57;-16.24;-42.66;120.25;-3.55;11.42;5.0;986.56;48.291;35.9562;-83.925575;794.61;NaN;;4.68;12.226105;75.6;15 / 20;230521;2022-10-12 12:47:39:879
-2.5857;-2.4742;7.7773;-3.0722;0.1407;9.3119;-1.3844;-2.0404;1.1856;1.2435;0.2982;2.1456;6657.0;-11.64;-3.92;-45.81;97.56;-0.82;18.26;5.0;986.55;48.782;35.9562;-83.925575;794.61;NaN;;4.68;12.226105;75.6;15 / 20;231023;2022-10-12 12:47:40:381
-2.0518;-0.5889;7.4085;-2.2167;-1.6045;9.4171;0.8545;1.7214;-0.5379;-0.7825;-0.1773;-0.9984;6876.0;-11.57;-12.3;-45.37;123.32;0.95;14.31;5.0;986.54;48.214;35.9562;-83.92556;793.2;NaN;;4.43;12.226105;81.1;15 / 20;231522;2022-10-12 12:47:40:880
-1.3872;-1.561;7.3295;-3.3538;-0.8239;9.1784;-3.0803;-2.3198;1.3206;0.2344;-0.3044;3.3423;6457.0;-11.21;-5.29;-47.68;107.5;4.82;20.07;5.0;986.54;48.227;35.9562;-83.92556;793.2;NaN;;4.43;12.226105;81.1;15 / 20;232021;2022-10-12 12:47:41:379
-1.7584;-0.0491;7.1166;-2.752;-0.9361;9.3659;0.0104;-0.4961;0.683;-0.9599;-0.1736;-0.5805;6749.0;-10.35;-9.79;-48.49;109.81;-1.74;17.72;5.0;986.54;48.238;35.9562;-83.925545;792.59;NaN;;4.43;12.226105;96.3;15 / 20;232523;2022-10-12 12:47:41:881
-5.9949;-1.823;11.712;-2.4452;0.6554;9.4743;-2.9101;-2.8091;0.5325;1.4669;0.7293;0.7585;6405.0;-10.87;-4.03;-48.6;117.16;9.07;12.86;5.0;986.55;48.006;35.9562;-83.925545;792.59;NaN;;4.43;12.226105;96.3;15 / 20;233023;2022-10-12 12:47:42:381
-0.3879;0.3736;10.2335;-1.8919;0.9113;9.5792;-0.1883;-1.8389;-2.5586;-1.402;-0.5838;0.1168;6465.0;-15.09;-16.78;-44.76;119.19;-5.33;11.17;5.0;986.52;48.85;35.9562;-83.92554;793.97;NaN;;4.28;12.226105;68.9;15 / 20;233523;2022-10-12 12:47:42:881
-5.5388;-2.6013;11.0285;-2.6695;-1.0141;9.3817;-2.1012;0.2514;2.082;1.5151;0.7509;0.3728;6300.0;-15.47;-5.55;-47.34;110.53;5.94;15.88;5.0;986.51;47.092;35.9562;-83.92554;793.97;NaN;;4.28;12.226105;68.9;15 / 20;234021;2022-10-12 12:47:43:379
-0.0347;-1.1707;6.6114;-3.2575;1.425;9.1394;1.0374;-6.0206;-0.3248;-1.5576;-0.1573;-0.8769;6428.0;-12.56;-11.66;-46.59;102.23;-8.36;19.62;5.0;986.51;46.795;35.956203;-83.92552;794.01;NaN;;4.64;12.226105;83.7;15 / 20;234522;2022-10-12 12:47:43:880
-4.0292;-1.5945;13.9564;-1.71;-1.8447;9.4786;-3.765;3.4495;3.2248;1.8484;1.0171;2.0084;6143.0;-15.71;-5.04;-44.96;141.81;22.36;1.27;5.0;986.54;47.986;35.956203;-83.92552;794.01;NaN;;4.64;12.226105;83.7;15 / 20;235021;2022-10-12 12:47:44:379
-1.9992;-1.0869;12.9174;-2.2091;0.0327;9.5545;1.3352;-1.7922;-0.6558;-1.8335;-0.5909;-1.2852;6079.0;-14.7;-15.97;-42.77;94.76;-20.01;14.85;5.0;986.55;46.569;35.9562;-83.92551;793.64;NaN;;4.61;12.226105;96.0;15 / 20;235521;2022-10-12 12:47:44:879
-5.4838;-0.3317;13.8009;-0.1523;-2.5876;9.4579;-6.4718;4.7498;4.7645;1.7513;1.6791;1.4931;5723.0;-18.64;-10.44;-43.29;136.72;15.3;0.92;5.0;986.54;48.013;35.9562;-83.92551;793.64;NaN;;4.61;12.226105;96.0;15 / 20;236021;2022-10-12 12:47:45:379
-0.4669;-1.5957;7.4898;-2.1603;1.9391;9.3671;1.1321;-4.7343;-0.1887;-0.4519;-0.0631;-0.7254;5820.0;-15.79;-15.49;-42.58;85.81;-23.73;12.24;5.0;986.51;48.753;35.9562;-83.92549;792.75;NaN;;4.5;12.226105;96.9;15 / 20;236521;2022-10-12 12:47:45:879
-7.4862;0.9541;12.3679;-0.871;-3.1798;9.2358;-6.5528;6.2104;1.4447;1.1986;1.7237;0.3441;5609.0;-14.96;-9.39;-44.12;139.42;18.92;5.39;5.0;986.55;50.004;35.9562;-83.92549;792.75;NaN;;4.5;12.226105;96.9;15 / 20;237023;2022-10-12 12:47:46:381
-1.4725;-4.7557;9.2231;-2.5185;2.9097;9.02;1.8911;-5.8162;-0.8083;0.2148;-0.5203;0.1559;5526.0;-9.0;-12.34;-44.1;71.43;-24.0;16.96;5.0;986.52;47.598;35.9562;-83.92547;792.22;NaN;;4.03;12.226105;94.5;15 / 20;237522;2022-10-12 12:47:46:880
-8.2418;0.3401;15.6407;-0.3251;-3.6601;9.0922;-6.4367;4.8321;-0.7171;-0.247;0.599;0.1372;5483.0;-13.82;-7.97;-43.99;146.65;21.91;2.05;5.0;986.53;48.263;35.9562;-83.92547;792.22;NaN;;4.03;12.226105;94.5;15 / 20;238021;2022-10-12 12:47:47:379
-2.2528;2.01;9.9392;-2.4294;4.2052;8.5196;1.3915;-6.8893;-0.9059;-1.6667;-0.9144;-0.7187;5374.0;-12.45;-9.71;-44.38;77.06;-22.07;15.83;5.0;986.53;50.728;35.9562;-83.92546;792.39;NaN;;4.36;12.226105;79.4;15 / 20;238522;2022-10-12 12:47:47:880
-8.6498;2.144;13.1722;-1.5176;-1.1516;9.6198;-8.0633;2.0311;3.6119;0.4598;0.7073;-2.934;5124.0;-16.82;-13.54;-42.0;141.67;11.55;0.63;5.0;986.52;48.543;35.9562;-83.92546;792.39;NaN;;4.36;12.226105;79.4;15 / 20;239022;2022-10-12 12:47:48:380
-0.2094;-5.1832;10.6681;-2.8047;3.5596;8.6967;2.5965;-4.5013;-0.3347;-0.7621;-0.43;-1.5984;5065.0;-11.14;-16.03;-42.9;93.09;-21.28;17.87;5.0;986.53;47.614;35.9562;-83.925446;793.09;NaN;;4.32;12.226105;79.9;15 / 20;239522;2022-10-12 12:47:48:880
-7.1453;-2.4;18.4549;0.1677;-4.2082;8.8563;-7.1042;4.0886;3.5531;-2.5277;-2.1514;-0.4416;5135.0;-13.03;-9.51;-43.78;156.53;25.41;-1.08;5.0;986.48;46.182;35.9562;-83.925446;793.09;NaN;;4.32;12.226105;79.9;15 / 20;240022;2022-10-12 12:47:49:380
0.8441;-0.99;7.5509;-0.8368;4.1842;8.8296;2.091;-5.2366;-1.1518;-0.4611;-0.5229;-1.0694;5018.0;-17.18;-10.07;-41.42;69.71;-25.26;5.41;5.0;986.53;48.48;35.956203;-83.92543;792.94;NaN;;4.43;12.226105;94.1;15 / 20;240523;2022-10-12 12:47:49:881
-6.475;0.6105;16.5036;0.2158;-2.4311;9.4981;-3.4049;5.4438;1.2511;0.7314;1.675;-1.332;5049.0;-18.75;-15.88;-38.98;136.49;9.14;2.59;5.0;986.52;49.455;35.956203;-83.92543;792.94;NaN;;4.43;12.226105;94.1;15 / 20;241023;2022-10-12 12:47:50:381
-1.3131;-2.3605;6.8064;-2.459;2.1088;9.2562;1.4019;-5.6549;-1.948;0.7585;-0.3321;-0.1125;4905.0;-10.72;-15.9;-42.39;104.69;-14.62;19.93;5.0;986.52;49.09;35.956203;-83.925415;792.15;NaN;;4.43;12.226105;95.8;15 / 20;241522;2022-10-12 12:47:50:880
-6.5145;0.7026;14.6949;-0.0297;-4.0594;8.927;-3.8433;3.4741;-0.1761;-1.339;-0.7281;-0.0661;4781.0;-12.49;-10.86;-42.62;156.4;24.45;0.19;5.0;986.49;49.413;35.956203;-83.925415;792.15;NaN;;4.43;12.226105;95.8;15 / 20;242023;2022-10-12 12:47:51:381
-2.5439;-5.1221;7.5568;-4.0918;2.8759;8.4355;2.3071;-6.3806;0.8236;1.3003;0.3722;1.3517;4413.0;-9.79;-7.46;-43.57;94.41;-7.65;19.42;5.0;986.53;49.716;35.956203;-83.92541;793.25;NaN;;3.13;12.226105;101.2;15 / 20;242522;2022-10-12 12:47:51:880
-9.8192;-2.3737;10.5425;1.289;-4.4316;8.6527;-4.2314;0.4701;4.2089;-0.1578;-0.3922;-2.9277;4395.0;-7.5;-12.45;-43.27;177.04;26.87;-8.47;5.0;986.51;50.545;35.956203;-83.92541;793.25;NaN;;3.13;12.226105;101.2;15 / 20;243021;2022-10-12 12:47:52:379
1.3262;-3.9503;7.727;-2.5729;4.4903;8.33;3.8377;-8.3692;-0.8833;1.421;-0.2668;4.4564;4370.0;-6.75;-14.23;-43.48;95.81;-11.31;24.41;5.0;986.5;49.512;35.9562;-83.92539;791.81;NaN;;4.39;12.226105;101.6;15 / 20;243521;2022-10-12 12:47:52:879
-6.2019;0.4777;10.2574;0.1207;-2.9264;9.3591;-5.3016;1.2881;1.0728;-1.4793;-1.6375;-0.1654;4532.0;-10.99;-18.77;-40.67;161.0;17.36;-0.74;5.0;986.52;48.998;35.9562;-83.92539;791.81;NaN;;4.39;12.226105;101.6;15 / 20;244021;2022-10-12 12:47:53:379
0.055;-2.0937;7.9232;-1.4117;4.2923;8.7036;0.8853;-7.4667;0.9523;1.1461;-0.553;0.6049;4233.0;-10.86;-13.74;-43.2;108.88;-8.32;19.91;5.0;986.51;48.898;35.9562;-83.925385;791.17;NaN;;4.46;12.226105;91.9;15 / 20;244521;2022-10-12 12:47:53:879
