sep=;
ACCELEROMETER X (m/s²);ACCELEROMETER Y (m/s²);ACCELEROMETER Z (m/s²);GRAVITY X (m/s²);GRAVITY Y (m/s²);GRAVITY Z (m/s²);LINEAR ACCELERATION X (m/s²);LINEAR ACCELERATION Y (m/s²);LINEAR ACCELERATION Z (m/s²);GYROSCOPE X (rad/s);GYROSCOPE Y (rad/s);GYROSCOPE Z (rad/s);LIGHT (lux);MAGNETIC FIELD X (μT);MAGNETIC FIELD Y (μT);MAGNETIC FIELD Z (μT);ORIENTATION Z (azimuth °);ORIENTATION X (pitch °);ORIENTATION Y (roll °);PROXIMITY (i);ATMOSPHERIC PRESSURE (hPa);SOUND LEVEL (dB);LOCATION Latitude : ;LOCATION Longitude : ;LOCATION Altitude ( m);LOCATION Altitude-google ( m);LOCATION Altitude-atmospheric pressure ( m);LOCATION Speed ( Kmh);LOCATION Accuracy ( m);LOCATION ORIENTATION (°);Satellites in range;Time since start in ms ;YYYY-MO-DD HH-MI-SS_SSS
-0.4825;2.1392;9.5919;-0.488;2.2481;9.533;-1.8241;-0.0474;1.2907;-0.5773;-0.9837;0.1367;4894.0;11.33;-32.18;-23.59;197.7;-19.83;9.6;5.0;984.04;60.891;35.958504;-83.92501;779.72;NaN;;3.24;16.689823;160.6;0 / 19;19;2022-10-26 12:35:08:236
0.2776;2.1727;8.2238;-0.8862;2.7372;9.3751;-1.2363;-0.9671;-0.0794;-0.2046;-0.0189;0.8547;6115.0;4.52;-27.64;-30.28;185.32;-15.96;6.2;5.0;984.08;61.775;35.958496;-83.92497;761.6;NaN;;3.78;12.882117;153.2;7 / 19;519;2022-10-26 12:35:08:736
1.5048;1.2162;11.0022;0.5396;1.8018;9.6246;-0.7773;-0.0064;2.1392;-0.261;-0.1972;0.4109;6593.0;-3.21;-27.13;-30.94;176.54;-10.59;-3.21;5.0;984.03;62.632;35.958496;-83.92497;761.6;NaN;;3.78;12.882117;153.2;7 / 19;1018;2022-10-26 12:35:09:235
-2.5989;2.9937;8.9492;-0.9081;3.5084;9.1125;-0.252;0.0269;0.3585;-0.1205;0.7686;0.1104;6326.0;-4.76;-28.95;-29.19;155.13;-20.96;5.69;5.0;984.07;61.773;35.95849;-83.924965;746.92;NaN;;4.28;12.226105;152.6;11 / 19;1518;2022-10-26 12:35:09:735
-2.2026;0.2548;16.2129;-2.955;1.7042;9.1943;1.4915;1.5131;1.047;-0.5291;0.2088;0.1385;8238.0;0.69;-28.26;-30.24;158.56;-14.9;16.77;5.0;984.05;60.561;35.95849;-83.924965;746.92;NaN;;4.28;12.226105;152.6;11 / 19;2018;2022-10-26 12:35:10:235
-5.7386;1.0857;9.95;-4.4392;2.4786;8.3857;-0.6751;-0.2528;-0.8089;-1.3685;0.5853;-0.2668;8646.0;6.39;-26.87;-30.92;154.73;-21.89;22.62;5.0;984.02;60.34;35.958473;-83.924965;775.08;NaN;;4.64;12.226105;151.9;11 / 19;2518;2022-10-26 12:35:10:735
-5.9674;1.4713;13.049;-4.8477;1.7119;8.351;0.9827;1.0264;0.4825;0.7331;0.0807;-0.6555;9127.0;12.96;-24.34;-31.16;166.37;-10.05;30.14;5.0;984.05;61.055;35.958473;-83.924965;775.08;NaN;;4.64;12.226105;151.9;11 / 19;3017;2022-10-26 12:35:11:234
-7.2386;1.433;8.8714;-5.4711;2.65;7.6951;-0.3178;-0.251;-0.0394;-0.4424;0.5179;-0.0215;8322.0;14.4;-26.06;-29.21;161.85;-15.68;35.41;5.0;984.05;60.487;35.958454;-83.92494;773.88;NaN;;4.79;12.226105;149.1;11 / 19;3519;2022-10-26 12:35:11:736
-7.7761;2.132;12.769;-5.6716;2.2105;7.6888;-1.2904;0.5718;3.7;0.4365;0.4142;-0.255;7524.0;15.28;-25.33;-29.12;166.46;-12.05;34.85;5.0;984.0;61.53;35.958454;-83.92494;773.88;NaN;;4.79;12.226105;149.1;11 / 19;4018;2022-10-26 12:35:12:235
-7.7713;1.5;9.4687;-5.5262;3.3043;7.3968;0.5554;-0.4184;-1.0347;0.0157;0.409;-0.1035;6554.0;15.19;-26.61;-27.0;164.66;-19.69;36.76;5.0;984.03;60.212;35.958447;-83.924934;798.77;NaN;;5.08;12.875274;148.3;12 / 19;4518;2022-10-26 12:35:12:735
-5.6716;1.8912;9.3598;-6.0014;2.006;7.4919;-0.0198;1.8768;1.2118;-0.4107;0.6002;-0.0368;5397.0;16.07;-25.33;-28.09;164.39;-11.8;38.7;5.0;984.02;59.648;35.958447;-83.924934;798.77;NaN;;5.08;12.875274;148.3;12 / 19;5018;2022-10-26 12:35:13:235
-7.1273;2.3593;7.3092;-6.0759;3.0659;7.0607;0.9222;-0.1283;-0.0815;-0.2949;0.0706;-0.1615;4891.0;15.75;-25.14;-28.5;164.38;-17.57;35.63;5.0;984.04;61.397;35.958435;-83.92493;770.6;NaN;;4.72;12.723524;152.8;13 / 19;5518;2022-10-26 12:35:13:735
-0.1591;3.2991;8.2968;-0.6183;3.6227;9.092;-0.7457;-1.1194;-0.7977;0.7281;-0.9037;0.2278;5926.0;10.86;-26.01;-28.48;195.01;-16.49;13.0;5.0;984.0;57.482;35.958435;-83.92493;770.6;NaN;;4.72;12.723524;152.8;13 / 19;6018;2022-10-26 12:35:14:235
-3.4068;4.3298;9.2088;-2.0648;3.7514;8.8223;1.2766;0.5936;-1.2115;-0.8127;1.3967;0.0525;5881.0;-5.96;-30.11;-28.14;145.54;-22.49;13.17;5.0;984.01;59.052;35.958427;-83.92493;768.91;NaN;;4.43;13.035703;155.5;13 / 19;6518;2022-10-26 12:35:14:735
-4.8876;2.0136;10.8894;-4.0849;2.7805;8.4707;1.6158;1.2394;0.4598;0.2443;0.0189;-0.2837;7533.0;3.13;-26.78;-31.61;147.16;-16.47;25.75;5.0;984.01;61.389;35.958427;-83.92493;768.91;NaN;;4.43;13.035703;155.5;13 / 19;7018;2022-10-26 12:35:15:235
-6.1433;2.3701;10.7686;-4.5676;3.604;7.8942;-0.1328;0.5368;0.138;-0.5956;0.8317;9.0E-4;7756.0;4.56;-28.95;-30.0;147.06;-21.56;30.05;5.0;984.02;61.479;35.95842;-83.92492;755.64;NaN;;3.46;13.237013;160.8;13 / 19;7518;2022-10-26 12:35:15:735
-4.5523;2.9746;11.6904;-4.1561;3.9686;7.9465;0.0998;1.4958;-0.0589;0.2313;-0.0402;0.1671;7263.0;5.16;-31.61;-27.75;154.95;-23.87;27.61;5.0;984.02;60.647;35.95842;-83.92492;755.64;NaN;;3.46;13.237013;160.8;13 / 19;8018;2022-10-26 12:35:16:235
-6.7358;1.957;12.824;-4.6738;3.1361;8.0306;0.3944;1.3147;-0.6774;-1.1437;0.6331;-0.1083;8354.0;4.18;-33.34;-27.02;156.35;-24.76;26.26;5.0;984.0;61.418;35.958412;-83.92492;754.64;NaN;;3.46;13.286151;160.2;13 / 19;8518;2022-10-26 12:35:16:735
-5.3438;2.0195;11.5229;-4.105;3.1216;8.3411;1.0721;1.0303;-0.4161;0.4728;0.4502;-0.2794;10247.0;4.31;-29.76;-30.64;152.04;-18.56;26.2;5.0;984.0;61.556;35.958412;-83.92492;754.64;NaN;;3.46;13.286151;160.2;13 / 19;9018;2022-10-26 12:35:17:235
-6.2916;1.89;9.938;-4.6164;3.7459;7.7992;-0.1538;0.0977;0.6958;0.0801;0.653;0.1467;9740.0;4.54;-32.25;-27.88;152.82;-22.46;30.62;5.0;983.98;59.301;35.958405;-83.92491;759.18;NaN;;3.74;14.067451;166.1;13 / 19;9518;2022-10-26 12:35:17:735
-1.8003;3.5324;10.7339;-2.1641;2.726;9.1682;0.6075;0.5859;2.0266;0.0625;0.3408;-0.3127;13432.0;1.43;-31.16;-29.03;169.33;-14.46;10.51;5.0;983.97;57.86;35.958405;-83.92491;759.18;NaN;;3.74;14.067451;166.1;13 / 19;10018;2022-10-26 12:35:18:235
-2.7556;1.2951;13.2299;-2.6418;3.1006;8.9206;0.2765;0.4855;0.3374;0.2323;0.5504;-0.0054;13454.0;-4.24;-30.17;-29.79;147.94;-18.43;16.5;5.0;983.98;59.194;35.958397;-83.92491;767.43;NaN;;3.78;14.7389;165.1;13 / 19;10518;2022-10-26 12:35:18:735
-0.7828;2.9004;12.2243;-1.5006;3.0557;9.1968;-0.7764;1.1727;0.3158;-0.4029;-0.4338;0.499;13448.0;-4.65;-29.91;-29.87;153.43;-18.16;9.27;5.0;984.0;60.764;35.958397;-83.92491;767.43;NaN;;3.78;14.7389;165.1;13 / 19;11017;2022-10-26 12:35:19:234
-5.5173;2.4108;8.9408;-4.7312;2.2651;8.2859;1.1452;1.15;-2.1176;0.2805;-0.4109;-0.4916;14297.0;-3.86;-29.23;-30.36;145.78;-10.89;24.49;5.0;983.94;59.88;35.95839;-83.924904;776.5;NaN;;3.82;15.294516;166.4;13 / 19;11518;2022-10-26 12:35:19:735
-9.2291;-1.264;10.6179;-6.4771;1.3641;7.2358;0.5686;1.4738;0.255;-0.2117;-0.2775;-0.8663;9985.0;12.68;-30.21;-27.79;159.18;-14.44;40.36;5.0;984.01;57.642;35.95839;-83.924904;776.5;NaN;;3.82;15.294516;166.4;13 / 19;12018;2022-10-26 12:35:20:235
-7.229;3.1017;9.9667;-5.8151;1.3745;7.776;-1.2173;0.9492;0.9844;-0.5999;-0.9798;0.3388;8458.0;19.76;-27.56;-25.74;168.86;-9.7;45.2;5.0;983.96;61.023;35.958378;-83.9249;776.33;NaN;;3.85;15.503651;164.7;12 / 19;12518;2022-10-26 12:35:20:735
-6.7837;3.2381;9.2375;-5.8633;2.5857;7.4233;0.1245;0.2458;-0.9729;-0.1627;0.5498;0.7059;11604.0;10.93;-26.66;-29.14;152.89;-15.29;38.3;5.0;983.98;60.17;35.958378;-83.9249;776.33;NaN;;3.85;15.503651;164.7;12 / 19;13018;2022-10-26 12:35:21:235
-6.6461;0.079;8.8415;-1.0832;1.8494;9.5696;-5.2185;-1.6985;0.1781;-0.1591;-2.6022;0.8653;11021.0;10.74;-26.94;-28.61;169.9;-11.45;27.49;5.0;983.97;59.745;35.958366;-83.9249;780.56;NaN;;4.0;16.19879;154.4;13 / 19;13519;2022-10-26 12:35:21:736
1.7991;3.4032;10.2682;0.5786;2.882;9.3557;0.2685;0.557;-2.228;-0.7065;0.7162;0.232;15436.0;-9.43;-29.14;-27.38;159.57;-17.09;-3.54;5.0;983.99;60.43;35.958366;-83.9249;780.56;NaN;;4.0;16.19879;154.4;13 / 19;14018;2022-10-26 12:35:22:235
-5.2394;3.4726;8.9815;-4.3928;0.8989;8.7215;-0.4054;1.1349;0.4341;0.0647;0.9788;0.057;17509.0;-3.71;-24.77;-31.44;148.36;-4.83;19.04;5.0;983.95;57.508;35.95836;-83.92489;786.25;NaN;;3.96;15.442525;160.7;13 / 19;14518;2022-10-26 12:35:22:735
-3.6281;3.0727;12.1693;-3.53;3.155;8.5881;-0.8731;-2.0753;-0.6438;-0.3282;-1.328;-0.2957;11717.0;8.91;-27.92;-28.42;172.26;-18.77;22.34;5.0;983.96;59.333;35.95836;-83.92489;786.25;NaN;;3.96;15.442525;160.7;13 / 19;15019;2022-10-26 12:35:23:236
-3.5444;2.6444;12.1023;-1.3086;2.017;9.5073;-1.1648;0.3919;0.7558;-0.5146;-0.1954;-0.2367;14846.0;2.12;-30.92;-27.45;176.07;-11.87;7.84;5.0;983.96;59.952;35.95835;-83.92488;787.72;NaN;;4.07;14.778883;165.1;13 / 19;15518;2022-10-26 12:35:23:735
0.3054;1.7824;12.1047;0.0987;2.3541;9.5194;0.3411;0.5979;-1.4454;-1.3256;-0.4094;-0.4412;14620.0;-1.14;-31.2;-27.9;174.22;-22.67;1.64;5.0;983.96;56.827;35.95835;-83.92488;787.72;NaN;;4.07;14.778883;165.1;13 / 19;16019;2022-10-26 12:35:24:236
-1.7883;1.7883;14.0581;-0.952;1.3;9.6734;-0.3688;1.3089;-0.7688;-0.9627;1.1479;-0.3874;14584.0;-3.36;-31.05;-28.65;167.8;-7.62;5.62;5.0;983.97;58.569;35.958344;-83.92487;785.31;NaN;;4.07;14.456946;159.3;13 / 19;16519;2022-10-26 12:35:24:736
2.4443;2.4718;12.2195;-0.436;2.5154;9.4685;1.2102;0.8198;-1.8604;-0.7889;-0.7782;-0.2538;12483.0;-1.61;-31.78;-28.29;172.13;-14.86;2.64;5.0;983.95;59.041;35.958344;-83.92487;785.31;NaN;;4.07;14.456946;159.3;13 / 19;17018;2022-10-26 12:35:25:235
-0.7325;1.1647;13.8045;-0.6012;1.4208;9.6845;-1.3743;1.4286;-0.7597;-0.2189;0.3391;0.0956;12871.0;-1.11;-31.52;-28.91;173.76;-11.11;3.61;5.0;983.94;56.79;35.958336;-83.92487;785.49;NaN;;4.18;13.932162;173.4;12 / 19;17519;2022-10-26 12:35:25:736
-0.3054;2.1224;12.253;-0.3098;0.7979;9.7692;0.3056;1.7263;-0.3105;-0.882;-0.6344;-0.2919;13881.0;2.85;-29.49;-30.73;178.56;-10.52;6.59;5.0;983.97;57.248;35.958336;-83.92487;785.49;NaN;;4.18;13.932162;173.4;12 / 19;18019;2022-10-26 12:35:26:236
0.3556;2.0171;15.8632;2.0676;1.3296;9.4935;-1.4715;0.7279;6.1108;-0.0131;-0.8643;0.525;14450.0;-3.45;-29.57;-30.13;180.73;-10.64;-6.29;5.0;983.92;58.262;35.958324;-83.924866;784.19;NaN;;4.54;13.909331;153.5;12 / 19;18518;2022-10-26 12:35:26:735
3.536;3.0009;11.2427;1.4462;3.7414;8.9488;-0.088;0.3767;-1.9234;0.2136;-0.193;0.4394;12741.0;-9.15;-33.09;-25.03;166.59;-22.43;-9.18;5.0;983.93;55.569;35.958324;-83.924866;784.19;NaN;;4.54;13.909331;153.5;12 / 19;19018;2022-10-26 12:35:27:235
1.5921;3.5384;13.1904;2.163;2.1016;9.3314;0.4359;1.8805;2.3202;-0.0418;-0.3822;-0.8112;15765.0;-10.07;-32.79;-25.99;170.53;-12.03;-11.89;5.0;983.93;55.296;35.958317;-83.92486;787.27;NaN;;4.43;13.122619;153.2;12 / 19;19518;2022-10-26 12:35:27:735
0.3927;2.9877;7.0328;-0.9389;4.0086;8.9006;0.1668;-2.2183;-3.3639;0.1176;0.8025;-0.0726;15592.0;-3.82;-35.25;-25.26;163.26;-24.13;6.02;5.0;983.92;56.013;35.958317;-83.92486;787.27;NaN;;4.43;13.122619;153.2;12 / 19;20019;2022-10-26 12:35:28:236
-0.425;-0.3485;19.6185;0.7731;2.0505;9.5587;-3.2548;0.7393;1.1487;-0.5069;0.242;0.114;17519.0;1.14;-35.31;-26.96;188.87;-17.07;-6.39;5.0;983.91;57.716;35.958305;-83.92485;787.01;NaN;;4.25;12.226105;156.8;12 / 19;20518;2022-10-26 12:35:28:735
3.8306;1.4809;15.3293;1.8779;4.3864;8.5676;0.5917;-0.9036;-3.1014;-2.1365;-0.213;-0.8501;14024.0;-6.26;-35.64;-24.9;178.59;-26.57;-12.36;5.0;983.92;56.931;35.958305;-83.92485;787.01;NaN;;4.25;12.226105;156.8;12 / 19;21018;2022-10-26 12:35:29:235
3.9706;2.4658;15.8656;3.3152;2.1217;8.9821;-2.202;1.1194;3.8298;-0.6063;-0.5115;0.8244;14249.0;-8.25;-34.89;-25.91;183.03;-12.49;-20.26;5.0;983.9;60.333;35.958298;-83.92484;792.87;NaN;;4.39;12.226105;155.9;12 / 19;21517;2022-10-26 12:35:29:734
5.4203;4.8147;9.7128;2.8854;3.7641;8.5835;1.9587;0.92;0.2164;-0.727;-0.7353;0.2479;10321.0;-12.21;-35.94;-23.29;162.68;-28.52;-13.93;5.0;983.92;58.55;35.958298;-83.92484;792.87;NaN;;4.39;12.226105;155.9;12 / 19;22019;2022-10-26 12:35:30:236
2.8729;5.3195;10.765;2.7339;3.7011;8.6601;-0.5497;0.7178;1.9461;-0.1776;-0.0165;-0.5358;8907.0;-11.64;-36.94;-21.58;169.08;-22.17;-17.52;5.0;983.92;58.143;35.958282;-83.924835;789.6;NaN;;4.18;12.226105;156.6;12 / 19;22519;2022-10-26 12:35:30:736
3.7935;4.8649;9.4113;1.9021;4.5441;8.4796;0.9249;1.0295;-0.3818;-1.1004;-0.3277;-0.1316;7699.0;-5.36;-38.76;-19.12;178.38;-27.6;-12.64;5.0;983.88;58.385;35.958282;-83.924835;789.6;NaN;;4.18;12.226105;156.6;12 / 19;23019;2022-10-26 12:35:31:236
2.77;2.2624;15.3018;2.5323;3.4516;8.8229;0.2971;1.5762;-0.3237;-0.15;0.3257;0.5834;8216.0;-5.53;-35.78;-23.87;181.96;-20.61;-16.01;5.0;983.9;59.935;35.958275;-83.924835;791.71;NaN;;4.25;12.226105;155.2;12 / 19;23518;2022-10-26 12:35:31:735
4.9427;4.3585;11.0489;2.0303;3.7468;8.8323;-0.3623;0.5188;-0.4622;-1.1498;-0.4075;0.5058;8722.0;-5.53;-35.08;-24.71;175.88;-29.01;-10.58;5.0;983.92;58.046;35.958275;-83.924835;791.71;NaN;;4.25;12.226105;155.2;12 / 19;24018;2022-10-26 12:35:32:235
-2.4287;1.1492;14.0569;-0.7985;1.049;9.7176;-1.5229;0.5939;4.1911;-0.2221;0.2462;0.4717;11997.0;-1.5;-30.34;-29.36;175.41;-5.57;2.32;5.0;983.93;57.754;35.958263;-83.92483;791.24;NaN;;4.39;12.226105;155.3;11 / 19;24518;2022-10-26 12:35:32:735
1.2628;1.4067;12.3416;0.1189;2.5058;9.4804;0.7912;0.4822;-1.4976;-1.2535;-0.6467;-0.3648;13198.0;2.61;-28.72;-31.82;189.71;-14.8;-0.72;5.0;983.89;57.453;35.958263;-83.92483;791.24;NaN;;4.39;12.226105;155.3;11 / 19;25018;2022-10-26 12:35:33:235
0.7971;-1.0415;17.8995;0.4855;1.137;9.7284;-1.1504;0.5809;2.6937;-0.5333;-0.3181;0.368;14297.0;-1.28;-28.16;-33.86;180.44;-7.16;-1.99;5.0;983.88;58.909;35.958252;-83.92481;793.62;NaN;;4.54;12.226105;161.9;11 / 19;25518;2022-10-26 12:35:33:735
1.0032;-0.274;13.8308;0.9342;2.1762;9.5164;0.7734;0.3433;-1.0309;-0.8317;-0.4235;-0.3945;13993.0;-2.14;-28.46;-36.0;184.52;-12.82;-5.61;5.0;983.9;57.381;35.958252;-83.92481;793.62;NaN;;4.54;12.226105;161.9;11 / 19;26018;2022-10-26 12:35:34:235
0.9278;1.817;10.7997;1.0724;0.2913;9.7435;-1.7873;0.5972;2.4324;0.0783;-0.2543;0.394;15554.0;-4.11;-25.28;-40.26;180.35;-3.07;-5.91;5.0;983.83;59.838;35.95824;-83.924805;792.51;NaN;;4.57;12.226105;149.0;11 / 19;26517;2022-10-26 12:35:34:734
0.7851;3.1029;8.5887;1.6112;3.0552;9.1782;-1.7416;-1.3824;0.7318;0.4545;-0.4482;-0.0561;14119.0;-4.41;-28.14;-37.22;189.28;-18.15;-9.96;5.0;983.85;59.451;35.95824;-83.924805;792.51;NaN;;4.57;12.226105;149.0;11 / 19;27017;2022-10-26 12:35:35:234
1.337;4.5344;9.2916;0.992;3.1336;9.2394;0.027;1.424;-1.0691;-0.3516;0.1015;0.1366;11171.0;-7.54;-33.0;-29.78;167.52;-18.64;-6.13;5.0;983.84;59.814;35.958225;-83.9248;793.16;NaN;;4.5;12.772329;161.7;11 / 19;27518;2022-10-26 12:35:35:735
4.5775;1.4749;10.8356;1.7792;2.4934;9.316;1.6494;-0.5387;1.6577;-0.5792;-0.464;-0.4952;12790.0;-7.86;-29.29;-31.05;171.04;-17.26;-9.32;5.0;983.87;58.119;35.958225;-83.9248;793.16;NaN;;4.5;12.772329;161.7;11 / 19;28018;2022-10-26 12:35:36:235
-0.2237;1.0762;16.232;2.0188;1.2221;9.5185;-2.4157;1.4213;3.5937;-0.0612;0.0371;0.1832;13672.0;-10.72;-27.04;-33.68;170.59;-7.16;-11.97;5.0;983.87;57.241;35.958214;-83.92479;791.03;NaN;;4.57;13.537653;143.7;11 / 19;28519;2022-10-26 12:35:36:736
4.7402;2.5834;12.0879;1.5721;2.5304;9.3432;1.3456;0.0217;-2.5274;-1.7512;-0.222;0.0511;11488.0;-11.49;-31.67;-30.84;165.81;-14.95;-9.55;5.0;983.85;59.257;35.958214;-83.92479;791.03;NaN;;4.57;13.537653;143.7;11 / 19;29018;2022-10-26 12:35:37:235
1.1695;-0.9206;16.9896;2.2159;0.2946;9.5485;-2.1349;1.0369;3.4119;1.3878;0.2367;0.4297;14598.0;-13.58;-25.88;-34.57;167.03;-1.72;-13.07;5.0;983.86;58.71;35.9582;-83.92478;792.56;NaN;;4.61;14.161668;158.2;11 / 19;29518;2022-10-26 12:35:37:735
5.0348;3.28;9.1849;1.5283;2.2063;9.4322;1.8693;-0.4641;0.3245;-1.3783;-0.0796;-0.1497;12563.0;-11.51;-29.83;-30.54;153.95;-20.74;-6.99;5.0;983.86;58.007;35.9582;-83.92478;792.56;NaN;;4.61;14.161668;158.2;11 / 19;30018;2022-10-26 12:35:38:235
1.4318;0.8477;10.649;1.2896;1.6647;9.5779;0.4901;-0.7945;1.9693;0.4968;0.4328;0.0544;15321.0;-10.31;-27.67;-32.55;170.77;-4.91;-10.1;5.0;983.82;58.177;35.958187;-83.924774;792.71;NaN;;4.46;15.240463;156.2;11 / 19;30518;2022-10-26 12:35:38:735
4.1907;1.2784;10.8188;2.3637;1.3108;9.4268;0.9048;-0.5503;2.0809;-0.6147;-0.1178;-0.0422;14152.0;-9.49;-30.47;-30.36;176.79;-7.68;-14.08;5.0;983.84;60.09;35.958187;-83.924774;792.71;NaN;;4.46;15.240463;156.2;11 / 19;31018;2022-10-26 12:35:39:235
1.3382;1.331;6.95;1.301;2.3539;9.4306;0.8105;-1.7263;1.5822;1.0609;0.6325;0.533;15052.0;-10.72;-28.86;-31.09;170.09;-5.79;-11.73;5.0;983.9;58.349;35.958176;-83.924774;791.82;NaN;;4.54;16.434679;160.4;12 / 19;31518;2022-10-26 12:35:39:735
1.5335;2.6097;6.3156;1.9514;1.4597;9.499;1.3293;0.3295;1.6289;0.2149;0.0551;-0.5844;13177.0;-12.69;-31.2;-27.92;164.83;-8.56;-11.61;5.0;983.86;58.01;35.958176;-83.924774;791.82;NaN;;4.54;16.434679;160.4;12 / 19;32019;2022-10-26 12:35:40:236
1.0451;1.2676;7.2888;1.1227;2.169;9.4977;1.0547;-1.0389;2.0138;0.6564;0.5049;0.4003;14708.0;-12.43;-28.86;-31.09;164.36;-7.22;-9.17;5.0;983.86;59.411;35.95816;-83.92477;794.18;NaN;;4.61;17.058235;155.5;12 / 19;32518;2022-10-26 12:35:40:735
0.7863;2.8693;4.9726;1.7553;1.858;9.4677;0.7507;-1.0189;3.9907;-0.0383;0.1167;-0.4832;13259.0;-12.88;-32.78;-27.21;163.73;-10.92;-10.5;5.0;983.82;60.054;35.95816;-83.92477;794.18;NaN;;4.61;17.058235;155.5;12 / 19;33018;2022-10-26 12:35:41:235
0.65;1.4701;6.4845;1.0507;2.3632;9.4595;-0.5;-1.2273;-1.5236;0.7777;0.2854;0.669;14694.0;-11.01;-31.37;-29.12;165.57;-7.9;-8.05;5.0;983.82;59.537;35.95815;-83.92476;797.15;NaN;;4.61;16.81575;152.3;12 / 19;33518;2022-10-26 12:35:41:735
1.0845;2.2074;5.6022;2.1212;2.1675;9.3259;0.3251;-0.1662;-1.0857;0.3338;0.0231;-0.5349;12933.0;-12.83;-33.0;-25.99;165.46;-9.57;-12.17;5.0;983.81;61.203;35.95815;-83.92476;797.15;NaN;;4.61;16.81575;152.3;12 / 19;34018;2022-10-26 12:35:42:235
0.9912;1.2879;6.2055;1.4858;2.127;9.4572;1.5923;-0.6263;1.8845;0.699;0.3864;0.216;13247.0;-11.66;-31.82;-26.38;162.8;-12.53;-8.93;5.0;983.81;64.692;35.958138;-83.92476;799.31;NaN;;4.57;16.06549;167.8;13 / 19;34518;2022-10-26 12:35:42:735
0.8931;1.7859;7.4743;1.8637;1.2655;9.5444;2.0602;1.53;-1.2174;-0.8529;0.2262;-0.907;13504.0;-9.71;-31.52;-25.41;169.94;-7.41;-11.05;5.0;983.77;58.887;35.958138;-83.92476;799.31;NaN;;4.57;16.06549;167.8;13 / 19;35018;2022-10-26 12:35:43:235
0.5794;1.0977;7.57;1.7556;1.7706;9.4844;1.0895;-0.795;4.3127;0.8995;0.8424;0.2059;14863.0;-7.46;-28.8;-27.64;175.62;-10.4;-10.49;5.0;983.8;58.975;35.958122;-83.92476;802.21;NaN;;4.54;15.718392;151.1;13 / 19;35518;2022-10-26 12:35:43:735
-0.1974;2.837;5.4503;1.3933;2.4786;9.3854;2.9028;0.5357;-0.1833;0.0094;0.2553;-0.7677;13187.0;-6.36;-32.49;-23.12;174.76;-13.29;-8.93;5.0;983.77;58.671;35.958122;-83.92476;802.21;NaN;;4.54;15.718392;151.1;13 / 19;36018;2022-10-26 12:35:44:235
0.2177;1.963;5.4634;0.3599;3.5628;9.1295;0.2582;-2.0109;-1.5087;1.1241;0.5951;0.3148;14132.0;-2.61;-31.31;-23.32;178.9;-13.52;-6.26;5.0;983.79;60.634;35.95811;-83.92475;807.37;NaN;;4.54;15.31958;154.7;13 / 19;36517;2022-10-26 12:35:44:734
0.0072;3.5599;5.8654;1.0279;4.1184;8.8404;1.9083;0.345;-1.9011;-0.6465;0.245;-0.2089;10535.0;-3.02;-33.68;-16.76;177.54;-24.83;-6.63;5.0;983.77;59.713;35.95811;-83.92475;807.37;NaN;;4.54;15.31958;154.7;13 / 19;37017;2022-10-26 12:35:45:234
0.7349;3.0356;6.6808;1.2631;3.3318;9.1364;0.0081;-0.1974;-0.9212;0.171;0.1361;0.1264;11145.0;-5.23;-30.19;-18.32;174.22;-18.61;-8.52;5.0;983.76;59.976;35.9581;-83.92475;804.6;NaN;;4.46;14.462066;160.1;13 / 19;37518;2022-10-26 12:35:45:735
0.687;2.2337;5.9351;2.1817;2.3598;9.2651;1.2693;0.2081;0.0615;0.0345;-0.373;-0.3635;11938.0;-9.11;-25.86;-22.11;169.25;-13.92;-13.25;5.0;983.76;60.216;35.9581;-83.92475;804.6;NaN;;4.46;14.462066;160.1;13 / 19;38018;2022-10-26 12:35:46:235
-0.0371;2.1308;5.237;1.5558;3.1217;9.1654;-0.4135;-1.2486;-0.4806;0.722;0.4691;0.1442;12866.0;-11.87;-24.82;-25.8;161.52;-13.53;-12.81;5.0;983.75;60.258;35.958084;-83.92474;805.75;NaN;;4.64;13.502942;150.8;13 / 19;38518;2022-10-26 12:35:46:735
1.7321;3.1603;4.4937;2.4084;2.7915;9.0872;3.5594;-0.0722;0.276;-0.8359;0.1777;-0.5359;11310.0;-16.58;-27.6;-25.05;151.83;-16.54;-14.84;5.0;983.72;59.943;35.958084;-83.92474;805.75;NaN;;4.64;13.502942;150.8;13 / 19;39018;2022-10-26 12:35:47:235
0.0108;1.5335;5.4383;0.9959;3.014;9.2787;0.6948;-1.6613;0.6367;0.8579;0.6366;-0.1778;13275.0;-16.63;-26.55;-28.54;150.11;-12.35;-10.79;5.0;983.73;60.282;35.958073;-83.92474;807.38;NaN;;4.86;13.330537;171.1;13 / 19;39517;2022-10-26 12:35:47:734
-0.0945;2.7461;4.7883;2.1589;2.3253;9.2791;-2.1336;0.4132;-4.3749;-0.1807;-0.5747;-0.0435;12471.0;-15.83;-31.46;-28.11;152.84;-16.42;-10.08;5.0;983.74;60.888;35.958073;-83.92474;807.38;NaN;;4.86;13.330537;171.1;13 / 19;40019;2022-10-26 12:35:48:236
0.5435;3.1771;7.0184;0.8994;3.2408;9.2119;0.2147;-1.3515;-1.2738;0.8632;0.5876;0.1458;13179.0;-16.65;-30.58;-30.11;143.38;-19.3;-5.58;5.0;983.71;59.538;35.958057;-83.924736;810.41;NaN;;4.68;12.675988;157.7;12 / 19;40519;2022-10-26 12:35:48:736
0.8139;3.122;11.6438;1.8013;1.9107;9.4485;-1.5658;0.9813;-2.4549;-0.722;-0.3874;-0.2969;12286.0;-14.42;-33.9;-27.71;162.79;-11.24;-10.79;5.0;983.75;60.665;35.958057;-83.924736;810.41;NaN;;4.68;12.675988;157.7;12 / 19;41018;2022-10-26 12:35:49:235
-0.5782;2.5905;5.1843;0.8327;3.5318;9.1106;0.2579;-1.8625;-1.9457;0.0199;-0.0078;0.2028;13411.0;-12.47;-31.44;-28.65;152.81;-21.11;-5.22;5.0;983.69;60.684;35.95804;-83.92473;810.55;NaN;;4.61;12.26111;157.4;12 / 19;41519;2022-10-26 12:35:49:736
0.0359;2.8896;7.3307;1.3557;1.9916;9.5061;-1.4902;0.7252;-3.2747;-0.4209;-0.3492;-0.5882;13878.0;-11.57;-31.86;-27.67;160.15;-14.52;-6.93;5.0;983.74;60.592;35.95804;-83.92473;810.55;NaN;;4.61;12.26111;157.4;12 / 19;42017;2022-10-26 12:35:50:234
0.0909;2.2612;5.5125;1.2023;3.4389;9.1049;-0.4767;-0.9767;-3.1543;0.2146;-0.413;0.1817;14533.0;-11.53;-28.76;-28.93;151.9;-18.73;-4.79;5.0;983.71;62.126;35.958023;-83.92472;813.49;NaN;;4.72;12.664515;149.8;12 / 19;42517;2022-10-26 12:35:50:734
0.3449;3.4343;7.0508;1.7766;2.3305;9.3586;-1.2502;0.7167;-3.4833;-0.1232;-0.1718;-0.3691;13330.0;-12.47;-30.47;-26.92;163.15;-13.75;-10.75;5.0;983.75;60.395;35.958023;-83.92472;813.49;NaN;;4.72;12.664515;149.8;12 / 19;43019;2022-10-26 12:35:51:236
0.7923;3.1304;7.113;0.7944;3.4809;9.1336;-0.6563;-1.1767;-3.6555;0.1396;0.1683;0.3363;13814.0;-10.61;-30.09;-26.49;154.82;-20.79;-4.97;5.0;983.7;59.879;35.95801;-83.92472;810.75;NaN;;4.64;12.226105;154.3;12 / 19;43518;2022-10-26 12:35:51:735
1.2114;2.6862;8.4966;1.7196;2.0209;9.4408;-0.7497;0.3448;-3.1173;-0.4052;-0.0163;-0.4185;13959.0;-11.36;-29.85;-25.35;165.13;-11.89;-10.32;5.0;983.71;60.298;35.95801;-83.92472;810.75;NaN;;4.64;12.226105;154.3;12 / 19;44018;2022-10-26 12:35:52:235
0.2548;2.1488;5.1042;0.7512;3.4458;9.1506;-0.3058;-2.0182;-2.4258;0.8114;0.5137;0.2907;15369.0;-10.11;-28.24;-25.67;161.47;-14.88;-7.02;5.0;983.71;61.405;35.958;-83.924706;811.65;NaN;;4.82;12.226105;151.4;12 / 19;44518;2022-10-26 12:35:52:735
1.5012;3.262;8.2035;1.8725;1.8143;9.4537;1.3507;1.5166;-0.6429;-0.6832;-0.0299;-0.4027;15586.0;-11.89;-29.01;-23.31;163.01;-10.66;-11.2;5.0;983.72;59.364;35.958;-83.924706;811.65;NaN;;4.82;12.226105;151.4;12 / 19;45018;2022-10-26 12:35:53:235
1.6842;2.3844;3.7648;0.8547;4.0674;8.8824;0.4626;-2.9893;-3.7751;1.1778;0.6116;0.4036;17344.0;-13.48;-27.47;-24.84;154.04;-15.63;-8.5;5.0;983.67;60.996;35.957985;-83.9247;815.21;NaN;;5.26;12.226105;135.1;12 / 19;45518;2022-10-26 12:35:53:735
0.5195;3.038;9.0078;2.3475;1.3837;9.4205;-1.7297;1.7738;-0.7038;-0.6179;-0.2779;0.0257;18023.0;-14.61;-30.53;-20.96;159.74;-9.71;-13.24;5.0;983.73;60.449;35.957985;-83.9247;815.21;NaN;;5.26;12.226105;135.1;12 / 19;46019;2022-10-26 12:35:54:236
0.7696;2.5738;7.3032;1.0194;2.8788;9.319;-0.48;-0.83;-3.011;0.1915;0.3191;0.4584;17937.0;-15.22;-29.96;-23.46;149.99;-17.07;-6.24;5.0;983.68;60.345;35.95797;-83.92468;818.09;NaN;;4.9;12.226105;146.8;12 / 19;46518;2022-10-26 12:35:54:735
-1.1216;0.9613;9.4783;1.6866;3.1263;9.1407;3.8334;3.314;-1.4748;0.6116;-0.277;-1.7291;19150.0;-16.35;-31.71;-23.4;152.49;-18.59;-10.45;5.0;983.7;60.516;35.95797;-83.92468;818.09;NaN;;4.9;12.226105;146.8;12 / 19;47018;2022-10-26 12:35:55:235
1.8793;3.8151;6.2952;1.1339;2.3694;9.4483;1.9769;-1.1411;2.0883;0.3925;0.0785;0.5566;19986.0;-9.77;-37.03;-23.19;166.57;-13.98;-6.84;5.0;983.71;60.095;35.957954;-83.924675;818.7;NaN;;4.97;12.226105;149.5;12 / 19;47518;2022-10-26 12:35:55:735
1.9343;2.9124;7.4599;1.1979;2.9669;9.27;-0.5133;-0.8282;-2.1333;-0.3266;0.0457;0.1627;17365.0;-11.4;-37.73;-21.53;164.06;-20.65;-8.07;5.0;983.68;60.27;35.957954;-83.924675;818.7;NaN;;4.97;12.226105;149.5;12 / 19;48018;2022-10-26 12:35:56:235
-1.5048;2.1476;5.9483;0.9895;3.1808;9.2235;-2.3118;-0.9008;-3.375;0.3587;-0.1158;0.5133;18699.0;-11.19;-36.15;-25.03;161.57;-16.08;-4.18;5.0;983.69;61.804;35.95794;-83.92466;817.57;NaN;;5.08;12.226105;159.8;12 / 19;48518;2022-10-26 12:35:56:735
0.1699;3.0823;5.4479;1.1794;2.4407;9.4246;1.2453;0.2691;-2.6481;-0.2278;0.4644;-0.5198;19155.0;-14.08;-37.5;-24.02;159.69;-14.41;-7.13;5.0;983.67;62.285;35.95794;-83.92466;817.57;NaN;;5.08;12.226105;159.8;12 / 19;49018;2022-10-26 12:35:57:235
-0.0287;3.4953;4.5607;0.9088;3.8093;8.9907;-0.3563;-1.6607;-3.3408;0.7632;0.4901;0.0052;19102.0;-10.76;-39.51;-24.51;162.52;-22.86;-5.77;5.0;983.69;61.123;35.95793;-83.92464;802.77;NaN;;5.15;12.226105;150.7;12 / 19;49518;2022-10-26 12:35:57:735
0.9111;2.7664;7.7557;2.2014;2.3566;9.2612;1.2808;0.3944;-1.0184;-0.6015;-0.3245;-0.5435;17297.0;-11.06;-41.21;-21.6;170.64;-13.9;-13.37;5.0;983.67;60.812;35.95793;-83.92464;802.77;NaN;;5.15;12.226105;150.7;12 / 19;50018;2022-10-26 12:35:58:235
0.0658;2.0136;7.0627;1.2;3.3451;9.1401;-0.4921;-1.3842;-2.7394;0.4158;0.8201;0.1545;17186.0;-7.99;-39.07;-23.89;175.06;-16.16;-12.46;5.0;983.66;60.952;35.957924;-83.92462;797.52;NaN;;4.9;12.391063;153.2;12 / 19;50518;2022-10-26 12:35:58:735
1.4976;2.9315;7.4611;2.4634;2.1259;9.2511;1.6817;0.7662;-0.472;-0.7348;-0.1997;-0.3767;15105.0;-10.44;-39.39;-20.12;172.28;-12.52;-14.91;5.0;983.67;61.614;35.957924;-83.92462;797.52;NaN;;4.9;12.391063;153.2;12 / 19;51018;2022-10-26 12:35:59:235
0.1113;1.4785;5.5627;1.4942;3.4305;9.0647;0.314;-1.7472;-1.3259;0.9641;0.764;0.0547;17258.0;-10.46;-35.62;-24.56;172.66;-12.99;-13.8;5.0;983.63;61.29;35.95792;-83.92461;798.24;NaN;;4.79;12.81477;153.1;12 / 19;51517;2022-10-26 12:35:59:734
1.2879;2.7963;9.5166;2.5073;1.6978;9.3274;-0.9089;0.9458;-3.259;-0.5753;-0.2031;-0.494;16973.0;-12.67;-37.12;-19.87;166.53;-12.75;-14.83;5.0;983.63;62.091;35.95792;-83.92461;798.24;NaN;;4.79;12.81477;153.1;12 / 19;52019;2022-10-26 12:36:00:236
1.695;2.5244;4.7438;1.8014;3.5925;8.9454;0.4756;-1.5731;0.2693;1.0476;0.8494;0.3124;18987.0;-13.52;-35.03;-23.25;158.48;-21.49;-11.39;5.0;983.62;60.878;35.957912;-83.92459;800.54;NaN;;4.97;12.254417;151.4;12 / 19;52518;2022-10-26 12:36:00:735
0.772;2.6886;8.3626;2.607;1.2197;9.3748;-1.4003;1.7065;-2.8271;-0.7434;-0.3116;-0.4443;20983.0;-15.13;-35.53;-23.38;165.68;-7.14;-15.54;5.0;983.65;61.024;35.957912;-83.92459;800.54;NaN;;4.97;12.254417;151.4;12 / 19;53018;2022-10-26 12:36:01:235
0.9805;2.4897;4.2341;1.6095;3.7393;8.9217;0.1986;-2.1563;-1.8879;0.145;-0.2125;0.0639;21901.0;-14.42;-34.37;-27.13;156.18;-22.41;-10.23;5.0;983.63;60.773;35.9579;-83.924576;808.01;NaN;;4.9;12.226105;145.9;12 / 19;53518;2022-10-26 12:36:01:735
1.6292;2.2074;10.3675;3.3082;1.4944;9.11;-1.3143;1.2517;-3.0335;-0.7444;-0.3724;-0.5657;21175.0;-16.09;-37.71;-21.94;165.41;-12.4;-18.46;5.0;983.66;59.485;35.9579;-83.924576;808.01;NaN;;4.9;12.226105;145.9;12 / 19;54018;2022-10-26 12:36:02:235
2.0267;2.2337;4.8912;2.1494;4.3478;8.5233;-0.2006;-2.2775;-3.2375;1.1612;-0.0706;0.2233;21861.0;-16.58;-35.27;-26.06;156.29;-17.36;-12.72;5.0;983.62;61.307;35.957893;-83.92457;807.81;NaN;;4.46;12.226105;151.7;12 / 19;54518;2022-10-26 12:36:02:735
1.5754;2.3055;8.621;3.0905;1.3223;9.2125;-1.5725;1.3528;-3.2212;-0.8606;-0.15;-0.5248;20533.0;-17.49;-37.86;-22.63;165.48;-7.75;-18.54;5.0;983.63;62.15;35.957893;-83.92457;807.81;NaN;;4.46;12.226105;151.7;12 / 19;55018;2022-10-26 12:36:03:235
1.7524;2.394;6.3491;1.3578;3.6704;8.9919;0.0044;-2.1233;-3.6985;1.1294;0.3066;0.1279;20980.0;-14.79;-35.38;-27.28;153.46;-21.98;-8.59;5.0;983.61;60.866;35.95789;-83.92456;803.4;NaN;;4.64;12.226105;157.0;12 / 19;55518;2022-10-26 12:36:03:735
-0.2094;1.7656;12.6;2.9048;1.8052;9.191;-0.2682;1.6743;-2.803;-0.9169;0.1374;-0.0372;18836.0;-14.31;-38.19;-23.7;169.3;-10.61;-17.54;5.0;983.65;62.051;35.95789;-83.92456;803.4;NaN;;4.64;12.226105;157.0;12 / 19;56019;2022-10-26 12:36:04:236
1.7465;1.3944;4.2233;1.2639;4.3054;8.7199;0.4049;-3.3341;-3.1549;1.5489;0.6177;0.5173;18661.0;-14.44;-34.97;-26.53;161.44;-15.55;-10.79;5.0;983.61;61.697;35.95788;-83.92455;801.34;NaN;;4.61;12.226105;156.3;12 / 19;56518;2022-10-26 12:36:04:735
0.8258;2.758;9.944;2.5741;1.9224;9.2655;1.2991;1.2421;-1.9343;-0.6749;-0.4452;-0.596;16999.0;-15.73;-36.34;-22.59;162.91;-11.31;-15.53;5.0;983.66;62.051;35.95788;-83.92455;801.34;NaN;;4.61;12.226105;156.3;12 / 19;57017;2022-10-26 12:36:05:234
1.2197;2.7353;5.1257;0.6453;3.938;8.958;0.2707;-2.8073;-2.633;1.2103;1.2378;0.8585;17879.0;-13.65;-35.49;-25.37;150.65;-23.68;-4.12;5.0;983.63;62.488;35.95787;-83.924545;804.32;NaN;;5.11;12.226105;150.7;12 / 19;57518;2022-10-26 12:36:05:735
-1.1013;2.8334;12.1956;2.1695;1.5676;9.4343;-2.4426;1.482;-1.3173;-0.8211;-0.6104;-0.6593;18129.0;-13.58;-37.76;-21.77;162.93;-14.04;-11.08;5.0;983.69;60.735;35.95787;-83.924545;804.32;NaN;;5.11;12.226105;150.7;12 / 19;58017;2022-10-26 12:36:06:234
0.8548;2.4;4.3693;0.9859;4.1736;8.8193;-0.0387;-2.8136;-2.8164;1.0959;0.5781;0.3249;18648.0;-11.23;-35.83;-24.51;159.21;-25.19;-6.38;5.0;983.63;61.463;35.95786;-83.92454;803.19;NaN;;5.04;12.226105;155.9;12 / 19;58518;2022-10-26 12:36:06:735
-0.2082;2.0506;12.2052;2.3965;1.2241;9.4302;-1.7013;2.106;-1.2656;-0.8157;-0.3783;-0.5374;18462.0;-11.59;-35.85;-25.09;170.39;-7.17;-14.26;5.0;983.66;60.466;35.95786;-83.92454;803.19;NaN;;5.04;12.226105;155.9;12 / 19;59018;2022-10-26 12:36:07:235
2.5113;2.3174;11.2678;0.9427;3.5014;9.1116;0.2741;-1.2442;-2.7813;0.8;0.1437;0.4547;17766.0;-9.84;-34.76;-27.84;162.48;-20.92;-5.91;5.0;983.63;60.483;35.95785;-83.92453;803.11;NaN;;4.86;12.226105;150.1;12 / 19;59517;2022-10-26 12:36:07:734
1.349;5.2083;9.6625;0.9866;4.7114;8.544;-0.7216;-0.059;-2.4009;-0.0034;-9.0E-4;0.1692;14697.0;-10.86;-40.44;-18.45;160.9;-28.1;-5.83;5.0;983.67;60.199;35.95785;-83.92453;803.11;NaN;;4.86;12.226105;150.1;12 / 19;60019;2022-10-26 12:36:08:236
-0.425;4.7043;7.7785;0.3819;4.5647;8.6711;-1.268;0.1711;-0.5243;-0.0426;-0.9589;-0.1665;12694.0;-8.68;-41.16;-15.97;161.52;-27.3;2.9;5.0;983.63;60.786;35.95784;-83.924515;804.57;NaN;;4.9;12.226105;152.1;12 / 19;60518;2022-10-26 12:36:08:735
-4.89;0.9529;13.2634;0.0322;1.3006;9.72;0.4691;1.9883;0.1642;-1.4539;1.7337;-1.2125;12038.0;-3.52;-36.21;-23.61;173.12;-7.62;-0.19;5.0;983.65;62.508;35.95784;-83.924515;804.57;NaN;;4.9;12.226105;152.1;12 / 19;61019;2022-10-26 12:36:09:236
0.2572;3.2118;6.7801;-2.2529;2.9982;9.0612;1.7042;0.2168;-3.7697;-0.6029;-0.6803;-0.1383;11740.0;4.58;-33.09;-26.76;168.49;-21.93;19.23;5.0;983.65;62.54;35.957832;-83.924515;806.41;NaN;;4.64;12.226105;162.1;12 / 19;61520;2022-10-26 12:36:09:737
-4.8171;-1.1109;14.6411;-1.0476;0.6448;9.7292;-1.1677;1.2709;-0.9442;-0.44;-0.0483;0.2338;8710.0;6.99;-31.99;-27.84;187.51;-3.77;6.15;5.0;983.66;59.982;35.957832;-83.924515;806.41;NaN;;4.64;12.226105;162.1;12 / 19;62018;2022-10-26 12:36:10:235
1.6663;1.7871;7.2613;1.1887;1.848;9.5573;2.0243;-2.1657;1.2887;1.2316;0.0847;0.4538;6588.0;-2.89;-28.48;-31.11;180.87;-4.61;-6.23;5.0;983.63;60.137;35.95782;-83.9245;806.29;NaN;;5.04;12.226105;147.7;12 / 19;62518;2022-10-26 12:36:10:735
1.0618;1.1623;13.3268;1.7054;-0.0406;9.6571;-0.141;1.9557;-2.6153;-0.8707;-0.6134;0.3569;4356.0;-16.26;-27.34;-31.03;159.1;0.24;-10.01;5.0;983.68;61.878;35.95782;-83.9245;806.29;NaN;;5.04;12.226105;147.7;12 / 19;63018;2022-10-26 12:36:11:235
3.6906;0.4286;8.924;2.0847;1.4983;9.4646;-0.3828;-1.0664;-0.7871;-0.3283;-0.5954;0.1197;4213.0;-20.59;-25.57;-29.44;138.01;-12.46;-8.12;5.0;983.64;61.077;35.95781;-83.924484;807.02;NaN;;4.82;12.226105;143.3;12 / 19;63519;2022-10-26 12:36:11:736
0.8704;0.6452;12.6144;2.6159;0.0473;9.4512;-1.7161;0.579;3.5111;-0.1255;0.1457;0.7114;3580.0;-20.96;-26.68;-27.39;154.75;-0.32;-16.17;5.0;983.68;63.119;35.95781;-83.924484;807.02;NaN;;4.82;12.226105;143.3;12 / 19;64018;2022-10-26 12:36:12:235
6.0212;-0.1783;11.0907;2.8631;2.5656;9.0217;2.0251;-1.3118;-3.6718;-0.6928;-0.9552;-0.2641;3646.0;-20.61;-27.92;-23.66;146.64;-15.17;-17.61;5.0;983.61;59.694;35.957794;-83.92447;807.83;NaN;;4.97;12.226105;145.5;12 / 19;64518;2022-10-26 12:36:12:735
2.9662;-1.3693;16.6211;2.8195;0.1742;9.391;-0.3952;0.0516;4.5123;-0.0864;0.4448;0.1771;3728.0;-17.79;-25.88;-26.49;159.02;-1.02;-16.71;5.0;983.65;60.819;35.957794;-83.92447;807.83;NaN;;4.97;12.226105;145.5;12 / 19;65018;2022-10-26 12:36:13:235
3.4319;0.3652;12.6577;1.5877;1.9257;9.4837;1.291;0.6424;-2.8489;-0.3317;-0.5759;-0.1755;3332.0;-11.27;-29.25;-28.26;164.63;-11.32;-9.5;5.0;983.63;62.123;35.957783;-83.92446;808.01;NaN;;5.08;12.226105;150.9;13 / 19;65518;2022-10-26 12:36:13:735
0.0443;-1.0702;14.7476;2.2128;0.5061;9.5403;-1.4949;-0.6325;5.0784;0.1428;0.2337;0.47;5662.0;-10.72;-28.57;-32.01;173.9;-1.64;-13.89;5.0;983.65;61.999;35.957783;-83.92446;808.01;NaN;;5.08;12.226105;150.9;13 / 19;66018;2022-10-26 12:36:14:235
1.488;2.3127;11.6892;1.1051;3.7261;9.0036;0.392;-0.5923;1.5513;-0.4476;0.0686;0.2582;3510.0;-11.94;-33.64;-27.47;154.04;-26.34;-6.76;5.0;983.61;61.773;35.95777;-83.924446;806.37;NaN;;4.93;12.226105;151.4;13 / 19;66518;2022-10-26 12:36:14:735
0.827;1.4067;16.4318;1.2285;1.3125;9.6405;-0.3435;1.4445;0.5044;-0.748;-0.4419;-0.4003;4812.0;-10.87;-34.33;-28.18;166.1;-7.69;-7.26;5.0;983.62;60.167;35.95777;-83.924446;806.37;NaN;;4.93;12.226105;151.4;13 / 19;67018;2022-10-26 12:36:15:235
2.6456;2.819;10.8308;0.5132;2.214;9.5397;0.2544;0.5296;2.8193;-0.5427;-0.3253;0.2656;5795.0;-7.29;-33.17;-29.81;162.6;-18.24;-0.24;5.0;983.58;61.326;35.95776;-83.92444;805.39;NaN;;5.04;12.226105;157.4;12 / 19;67518;2022-10-26 12:36:15:735
-0.0562;1.1432;16.3457;1.1794;1.6691;9.5913;-0.5876;0.6751;-0.7987;-0.5883;-0.1163;0.7149;7879.0;-6.38;-34.11;-30.53;175.59;-9.8;-7.01;5.0;983.6;59.365;35.95776;-83.92444;805.39;NaN;;5.04;12.226105;157.4;12 / 19;68018;2022-10-26 12:36:16:235
1.0475;1.3274;10.7088;0.4484;2.0562;9.5782;1.6481;-0.2644;0.0401;-0.7363;-0.4077;-0.0938;9072.0;-4.78;-33.39;-31.22;164.98;-17.72;1.7;5.0;983.57;60.022;35.95775;-83.92443;806.78;NaN;;5.0;12.226105;148.8;13 / 19;68519;2022-10-26 12:36:16:736
1.0056;6.7944;11.6294;2.8416;5.2537;7.7778;-2.2492;0.496;5.1809;1.6946;-0.0427;1.2726;9092.0;-10.07;-35.93;-26.89;170.7;-20.04;-12.47;5.0;983.6;62.144;35.95775;-83.92443;806.78;NaN;;5.0;12.226105;148.8;13 / 19;69019;2022-10-26 12:36:17:236
6.2833;8.3351;6.7513;2.6358;7.3464;5.9375;-1.8947;0.2292;-4.5797;-0.4915;-0.793;0.341;3534.0;-15.47;-42.34;-10.78;145.23;-49.45;-17.2;5.0;983.58;60.978;35.957737;-83.92442;807.53;NaN;;4.9;12.226105;150.8;13 / 19;69518;2022-10-26 12:36:17:735
-2.4108;5.7171;10.3591;1.7355;5.0964;8.1966;-3.4091;0.7411;2.142;-0.2783;0.4893;0.4618;6313.0;-12.3;-43.29;-8.48;162.16;-34.4;-15.45;5.0;983.58;61.116;35.957737;-83.92442;807.53;NaN;;4.9;12.226105;150.8;13 / 19;70018;2022-10-26 12:36:18:235
2.6204;5.4299;8.1437;0.3672;6.1589;7.6226;0.5466;-1.0552;-2.6757;0.027;-0.7098;0.1423;7915.0;-4.97;-42.9;-13.13;170.15;-38.9;-2.76;5.0;983.55;59.943;35.95773;-83.924416;805.37;NaN;;4.79;12.226105;151.0;13 / 19;70518;2022-10-26 12:36:18:735
-3.7074;2.9255;15.6168;1.3069;3.5387;9.0521;-4.3355;-0.2649;5.101;0.1237;0.529;1.2502;16159.0;-4.89;-39.34;-20.83;176.11;-21.15;-8.22;5.0;983.6;59.699;35.95773;-83.924416;805.37;NaN;;4.79;12.226105;151.0;13 / 19;71019;2022-10-26 12:36:19:236
3.2477;5.2633;7.9819;0.7371;5.6675;7.9691;1.2316;-1.0318;-2.9731;-1.2287;-0.9709;-0.6742;13245.0;-7.39;-39.26;-19.69;165.58;-35.3;-5.28;5.0;983.55;60.27;35.957718;-83.92441;806.12;NaN;;4.86;12.226105;154.2;13 / 19;71518;2022-10-26 12:36:19:735
2.0375;5.3207;7.4922;2.9191;6.2189;6.9981;-4.9066;1.9976;1.7176;-0.5838;-0.6024;0.3434;11967.0;-8.33;-41.51;-14.98;175.58;-40.52;-22.61;5.0;983.6;60.985;35.957718;-83.92441;806.12;NaN;;4.86;12.226105;154.2;13 / 19;72018;2022-10-26 12:36:20:235
0.8859;3.699;12.1896;0.4442;3.8185;9.0218;0.9243;1.0607;0.9736;-0.787;-0.4898;-0.0334;15753.0;-2.51;-41.23;-15.71;173.68;-26.95;0.89;5.0;983.58;62.037;35.957703;-83.9244;806.55;NaN;;4.79;12.226105;158.0;12 / 19;72518;2022-10-26 12:36:20:735
0.1161;4.9223;11.8902;1.813;3.9577;8.7875;0.1448;0.4618;1.2983;0.0131;-0.5992;0.0044;18375.0;-7.13;-37.18;-21.96;174.4;-23.8;-11.66;5.0;983.58;61.157;35.957703;-83.9244;806.55;NaN;;4.79;12.226105;158.0;12 / 19;73018;2022-10-26 12:36:21:235
17.1873;-1.1013;-0.6093;9.4146;2.2621;-1.555;4.5561;-5.0049;-1.5079;-1.6979;-2.1912;3.9885;15226.0;-13.42;-37.43;-13.63;215.22;-41.82;-84.86;5.0;983.52;59.51;35.95769;-83.92439;806.89;NaN;;4.97;12.226105;146.1;12 / 19;73518;2022-10-26 12:36:21:735
14.9321;-3.2022;-2.5259;7.5402;-4.7634;-4.0774;6.8896;7.2237;4.0255;0.835;1.0114;-2.6484;3418.0;-32.83;-20.33;17.57;179.78;29.06;-118.4;5.0;983.54;62.245;35.95769;-83.92439;806.89;NaN;;4.97;12.226105;146.1;12 / 19;74018;2022-10-26 12:36:22:235
11.3097;-2.2839;-0.3317;9.69;1.5042;-0.107;-2.3934;-6.6121;-3.4066;-1.4204;-0.3722;1.6352;5109.0;-31.95;-26.96;13.14;135.75;-21.19;-89.47;5.0;983.55;62.564;35.95768;-83.924385;806.34;NaN;;4.97;12.226105;160.4;12 / 19;74518;2022-10-26 12:36:22:735
14.5717;0.7409;1.847;7.6426;-5.051;-3.4997;4.308;5.5927;2.6407;-0.5925;1.949;-1.5031;4092.0;-38.34;-15.62;14.31;185.12;31.0;-114.6;5.0;983.53;60.498;35.95768;-83.924385;806.34;NaN;;4.97;12.226105;160.4;12 / 19;75019;2022-10-26 12:36:23:236
7.7318;-3.4893;-3.4295;9.4843;2.489;-0.1554;-1.4508;-7.036;-2.7121;-0.3709;-0.1164;0.2905;6309.0;-37.09;-21.51;10.39;133.78;-17.76;-89.85;5.0;983.54;57.134;35.957672;-83.924385;806.65;NaN;;4.79;12.226105;160.1;12 / 19;75518;2022-10-26 12:36:23:735
15.1582;1.4498;0.9242;8.782;-3.448;-2.6755;7.4206;4.2344;3.2609;-0.2786;1.1524;-1.001;4305.0;-39.56;-19.54;13.09;187.3;29.05;-114.61;5.0;983.57;57.649;35.957672;-83.924385;806.65;NaN;;4.79;12.226105;160.1;12 / 19;76018;2022-10-26 12:36:24:235
6.5958;-3.6209;-2.2397;9.3745;2.7405;-0.8827;-1.9605;-7.3446;-1.7342;-0.4295;-0.0571;0.0709;5117.0;-38.18;-25.09;11.49;150.65;-16.23;-95.38;5.0;983.54;60.962;35.957657;-83.92438;809.53;NaN;;5.04;12.226105;160.0;12 / 19;76518;2022-10-26 12:36:24:735
14.6207;2.3641;0.0084;8.8306;-3.1469;-2.8788;7.0503;5.5357;1.9938;-0.5708;0.9005;-0.8737;3809.0;-41.89;-17.64;17.51;172.63;18.72;-108.06;5.0;983.57;59.412;35.957657;-83.92438;809.53;NaN;;5.04;12.226105;160.0;12 / 19;77018;2022-10-26 12:36:25:235
12.46;-2.5618;-2.5475;9.1557;3.4253;-0.7816;-3.625;-9.1759;-3.3157;-0.8185;-0.9657;2.5775;5700.0;-36.47;-26.44;13.63;136.36;-20.44;-94.88;5.0;983.54;59.448;35.95765;-83.92438;810.55;NaN;;4.82;12.226105;155.1;12 / 19;77518;2022-10-26 12:36:25:735
17.386;-4.4746;1.2712;9.3099;-2.3177;-2.031;4.8857;1.5292;7.6729;1.184;1.345;-0.993;4807.0;-40.99;-19.97;9.54;198.69;21.31;-119.24;5.0;983.52;58.68;35.95765;-83.92438;810.55;NaN;;4.82;12.226105;155.1;12 / 19;78019;2022-10-26 12:36:26:236
12.8492;-1.7417;-2.4562;9.8039;-0.1436;-0.1823;1.8122;-1.2039;-0.6682;-0.7991;-1.7097;1.9236;12160.0;-32.12;-30.73;-7.41;182.9;-16.36;-79.48;5.0;983.54;59.445;35.957638;-83.92437;812.05;NaN;;4.82;12.226105;154.4;12 / 19;78519;2022-10-26 12:36:26:736
16.4414;-3.4283;-0.0814;9.4126;-1.9467;-1.9452;5.925;3.6186;5.3118;1.4773;0.347;-1.1644;5870.0;-39.77;-18.62;0.09;197.05;11.45;-101.68;5.0;983.47;57.593;35.957638;-83.92437;812.05;NaN;;4.82;12.226105;154.4;12 / 19;79018;2022-10-26 12:36:27:235
10.5329;-1.0582;-4.8972;9.6389;-0.1302;-1.8015;0.2306;-1.9845;1.6818;0.7588;-1.8858;2.6632;8161.0;-31.44;-30.51;2.08;169.23;-21.81;-87.61;5.0;983.52;58.613;35.957623;-83.92436;812.73;NaN;;4.97;12.226105;149.5;12 / 19;79517;2022-10-26 12:36:27:734
14.5346;-3.2752;0.146;9.29;-2.175;-2.2663;4.9976;2.0809;4.1744;2.1415;2.2589;-1.9776;5548.0;-40.8;-18.47;1.07;198.3;12.81;-103.71;5.0;983.48;57.162;35.957623;-83.92436;812.73;NaN;;4.97;12.226105;149.5;12 / 19;80017;2022-10-26 12:36:28:234
11.1362;-0.291;-2.5786;9.7341;0.5808;-1.0392;0.0098;-0.7738;-0.6707;-0.0303;-1.7504;1.4641;11315.0;-32.91;-30.17;-7.44;187.74;-15.23;-82.67;5.0;983.52;60.218;35.957615;-83.924355;814.55;NaN;;5.0;12.226105;150.0;12 / 19;80518;2022-10-26 12:36:28:735
9.7929;-1.1695;-1.0953;9.6809;0.1937;-1.5537;3.7942;-1.2473;0.3285;0.5808;1.4922;-2.2129;4081.0;-40.07;-20.21;8.1;194.57;13.83;-111.96;5.0;983.5;66.786;35.957615;-83.924355;814.55;NaN;;5.0;12.226105;150.0;12 / 19;81019;2022-10-26 12:36:29:236
8.997;-0.0287;-2.6994;9.6037;1.1947;-1.585;-1.986;-2.4346;-1.8581;-0.5149;-0.8425;1.6142;6670.0;-33.71;-30.17;5.85;166.02;-18.22;-92.64;5.0;983.51;66.511;35.9576;-83.92435;815.98;NaN;;4.9;12.226105;151.7;12 / 19;81518;2022-10-26 12:36:29:735
8.3614;-2.26;-1.2532;9.6998;0.4772;-1.3623;5.0038;-2.2552;0.2771;0.611;1.7603;-2.5621;3442.0;-38.62;-21.41;12.88;185.15;15.08;-112.33;5.0;983.48;64.68;35.9576;-83.92435;815.98;NaN;;4.9;12.226105;151.7;12 / 19;82018;2022-10-26 12:36:30:235
9.6996;1.2138;-1.634;9.6342;1.6294;-0.8353;-0.4222;-3.3605;-2.3771;-0.6192;-1.0159;1.6892;6207.0;-31.99;-34.84;7.16;171.77;-9.56;-94.96;5.0;983.52;64.219;35.957592;-83.92434;816.77;NaN;;4.97;12.226105;152.8;12 / 19;82518;2022-10-26 12:36:30:735
11.9297;-1.774;-0.7481;9.7606;0.3937;-0.8638;4.4812;-0.597;1.6339;0.9049;1.728;-1.7582;3568.0;-40.44;-24.69;11.93;160.15;-2.3;-95.06;5.0;983.46;62.169;35.957592;-83.92434;816.77;NaN;;4.97;12.226105;152.8;12 / 19;83017;2022-10-26 12:36:31:234
11.8567;-1.4509;-3.0885;9.2705;2.6374;-1.8088;-1.5038;-4.4527;-0.2866;-0.2127;-0.6925;2.7038;4898.0;-31.41;-34.43;11.81;166.29;-15.6;-101.04;5.0;983.49;62.247;35.957577;-83.92434;819.47;NaN;;5.36;12.226105;153.2;12 / 19;83519;2022-10-26 12:36:31:736
11.6557;-2.8573;-1.6627;9.6761;-0.0289;-1.5948;6.8138;-0.4133;2.7743;0.3686;2.6968;-2.5446;2666.0;-36.07;-21.0;23.33;175.84;20.8;-119.18;5.0;983.46;66.113;35.957577;-83.92434;819.47;NaN;;5.36;12.226105;153.2;12 / 19;84018;2022-10-26 12:36:32:235
8.7565;1.3537;-2.4156;9.1364;-1.7045;-3.1291;-0.5839;2.3338;-0.4303;-1.0091;-0.6551;2.7697;3913.0;-28.8;-34.91;17.16;159.55;-9.59;-101.47;5.0;983.47;65.089;35.957565;-83.92433;820.53;NaN;;5.15;12.226105;139.0;11 / 19;84519;2022-10-26 12:36:32:736
7.5185;-2.7784;-2.5077;9.5965;1.9291;-0.5974;4.8191;-5.238;-0.3292;1.9585;1.9216;-3.2053;2711.0;-36.19;-23.29;20.36;130.69;-11.34;-93.56;5.0;983.44;67.711;35.957565;-83.92433;820.53;NaN;;5.15;12.226105;139.0;11 / 19;85019;2022-10-26 12:36:33:236
9.7606;0.0849;-1.8458;8.4814;-2.9406;-3.9482;-0.1559;3.236;2.4186;-0.3003;-1.0487;2.0224;2762.0;-29.46;-33.66;19.78;162.93;3.52;-106.31;5.0;983.53;60.976;35.957554;-83.92432;820.66;NaN;;5.08;12.226105;143.4;11 / 19;85519;2022-10-26 12:36:33:736
8.2657;-3.9215;-3.0488;9.4544;2.2039;-1.3882;4.2754;-6.2144;-0.5004;1.0569;0.088;-2.6282;1990.0;-36.06;-18.3;25.56;112.97;-12.99;-98.35;5.0;983.48;62.674;35.957554;-83.92432;820.66;NaN;;5.08;12.226105;143.4;11 / 19;86018;2022-10-26 12:36:34:235
9.9751;-0.6428;-0.99;8.5239;-3.2249;-3.6212;-0.2869;2.3906;2.8916;-0.6998;-0.9483;2.4994;1843.0;-27.51;-29.85;27.75;148.52;2.59;-105.82;5.0;983.52;58.635;35.957542;-83.9243;821.24;NaN;;5.0;12.226105;137.6;11 / 19;86518;2022-10-26 12:36:34:735
8.2681;-3.2752;-2.9363;8.5362;4.5222;-1.6891;-0.2431;-7.7784;-1.4683;0.9633;-0.068;-2.6054;1565.0;-35.7;-18.45;27.02;117.42;-9.29;-97.57;5.0;983.44;63.028;35.957542;-83.9243;821.24;NaN;;5.0;12.226105;137.6;11 / 19;87018;2022-10-26 12:36:35:235
11.7407;2.5487;-2.4024;8.5133;-2.6043;-4.1124;0.7915;3.1408;1.3757;-0.4445;-0.7999;2.5985;1349.0;-29.21;-32.16;26.53;151.92;-2.37;-108.72;5.0;983.47;59.655;35.95753;-83.92429;819.18;NaN;;5.15;12.226105;143.1;11 / 19;87518;2022-10-26 12:36:35:735
8.1604;-3.2752;-3.2716;8.7706;4.1995;-1.2696;-0.0304;-7.5977;-2.371;1.1113;0.4031;-2.4374;1266.0;-38.21;-17.7;27.99;117.59;-8.76;-98.81;5.0;983.44;65.649;35.95753;-83.92429;819.18;NaN;;5.15;12.226105;143.1;11 / 19;88018;2022-10-26 12:36:36:235
11.1912;-1.1815;-0.9027;9.0035;-1.8893;-3.3967;-0.405;0.9078;1.9771;-1.5339;-0.6583;2.6711;1180.0;-32.27;-34.22;23.59;164.69;11.11;-110.67;5.0;983.5;54.557;35.95752;-83.924286;817.97;NaN;;5.04;12.226105;153.3;11 / 19;88519;2022-10-26 12:36:36:736
7.9783;-3.1412;-2.7341;9.1666;3.3906;-0.805;0.6757;-6.6139;-1.6466;1.3474;1.0325;-2.927;1539.0;-40.97;-22.01;19.89;109.91;-20.23;-95.02;5.0;983.44;62.615;35.95752;-83.924286;817.97;NaN;;5.04;12.226105;153.3;11 / 19;89017;2022-10-26 12:36:37:234
11.8651;0.073;-2.563;9.2962;-1.2713;-2.852;1.5313;0.2938;-1.1738;-0.0263;-1.2;2.5085;1204.0;-30.34;-37.84;15.94;171.21;7.45;-107.06;5.0;983.47;54.255;35.957504;-83.92428;818.05;NaN;;5.04;12.226105;160.9;11 / 19;89518;2022-10-26 12:36:37:735
7.4551;-3.2273;-3.6655;9.2693;2.9251;-1.3018;2.3661;-7.469;-0.6873;2.5865;0.8485;-3.6216;1922.0;-40.95;-18.9;18.21;162.9;6.69;-104.2;5.0;983.42;62.558;35.957504;-83.92428;818.05;NaN;;5.04;12.226105;160.9;11 / 19;90018;2022-10-26 12:36:38:235
11.9046;1.4821;-2.4634;8.4593;-3.0993;-3.8736;3.0365;4.304;1.5657;-1.0055;-0.8498;2.5303;1573.0;-26.34;-36.15;16.09;167.69;2.82;-106.1;5.0;983.45;55.182;35.957493;-83.92427;815.9;NaN;;5.04;12.226105;153.1;11 / 19;90518;2022-10-26 12:36:38:735
7.617;-3.3446;-3.2728;9.354;2.7446;-1.0673;3.365;-6.4698;-0.7418;1.5629;1.4194;-3.3727;3093.0;-37.5;-21.84;14.48;136.92;-16.25;-96.51;5.0;983.4;58.021;35.957493;-83.92427;815.9;NaN;;5.04;12.226105;153.1;11 / 19;91018;2022-10-26 12:36:39:235
10.9651;1.3633;-1.7106;8.5946;-2.6874;-3.8835;2.0814;3.3257;2.1724;-0.3462;-1.113;2.4134;3167.0;-27.36;-36.26;12.45;172.92;-0.78;-105.36;5.0;983.45;55.325;35.95748;-83.92426;815.65;NaN;;5.04;12.226105;149.5;11 / 19;91518;2022-10-26 12:36:39:735
7.3977;-3.4056;-2.5678;9.5727;1.2663;-1.7118;2.7991;-4.275;-0.1802;0.8255;0.2973;-2.1016;3952.0;-40.03;-16.93;16.84;139.59;-7.42;-100.14;5.0;983.39;58.524;35.95748;-83.92426;815.65;NaN;;5.04;12.226105;149.5;11 / 19;92018;2022-10-26 12:36:40:235
9.7331;0.4573;-3.4367;8.7943;-2.5751;-3.4928;-0.3282;2.7747;0.7233;0.5851;-0.7646;2.0593;3708.0;-30.81;-32.48;18.11;164.03;-1.56;-105.79;5.0;983.43;58.893;35.957462;-83.924255;814.52;NaN;;4.93;12.226105;146.3;11 / 19;92518;2022-10-26 12:36:40:735
8.6904;-3.2608;-2.4431;8.7149;3.9892;-2.0753;-0.2401;-7.3545;-0.4193;1.4045;0.2838;-2.89;3245.0;-36.37;-17.78;24.53;131.05;-5.2;-102.88;5.0;983.39;59.406;35.957462;-83.924255;814.52;NaN;;4.93;12.226105;146.3;11 / 19;93018;2022-10-26 12:36:41:235
11.6988;1.9068;-1.835;9.0996;-1.6609;-3.257;-0.2676;1.6637;-0.5779;-1.9;-0.1421;2.5784;3587.0;-28.89;-33.04;21.83;155.68;-5.96;-105.85;5.0;983.42;55.786;35.95745;-83.924255;811.6;NaN;;5.0;12.226105;147.3;12 / 19;93518;2022-10-26 12:36:41:735
7.0122;-1.6172;-3.2273;9.1308;3.0768;-1.8255;-1.7906;-4.8212;-0.4055;1.3763;0.4912;-2.1177;5590.0;-38.72;-20.92;20.78;147.04;-4.26;-103.23;5.0;983.39;57.841;35.95745;-83.924255;811.6;NaN;;5.0;12.226105;147.3;12 / 19;94017;2022-10-26 12:36:42:234
10.0002;1.2664;-2.1045;8.8728;-1.8968;-3.721;1.6956;1.3667;1.8031;0.3028;-0.4616;1.297;5766.0;-32.4;-32.21;16.89;175.08;11.15;-112.75;5.0;983.42;55.558;35.95744;-83.92425;811.62;NaN;;4.93;12.226105;150.4;12 / 19;94519;2022-10-26 12:36:42:736
11.7574;-3.9096;-0.4968;8.0634;3.7298;-4.1521;4.0246;-6.4613;5.0864;3.0607;-0.4652;-4.3646;3884.0;-36.19;-19.72;23.85;113.84;-22.35;-117.25;5.0;983.43;60.223;35.95744;-83.92425;811.62;NaN;;4.93;12.226105;150.4;12 / 19;95018;2022-10-26 12:36:43:235
9.7786;3.4845;-2.3486;8.4024;2.1212;-4.5903;-0.811;-2.7904;-1.5361;-1.8076;0.2972;3.0075;2674.0;-14.42;-28.91;36.56;130.27;-12.49;-118.65;5.0;983.43;55.172;35.957428;-83.92424;811.35;NaN;;5.0;12.226105;155.7;13 / 19;95518;2022-10-26 12:36:43:735
7.2314;-0.4705;-1.7142;9.3068;1.8153;-2.5018;0.8055;-1.5863;1.1113;0.988;0.7788;-2.1089;4468.0;-33.23;-23.83;26.27;153.68;2.76;-110.48;5.0;983.41;67.494;35.957428;-83.92424;811.35;NaN;;5.0;12.226105;155.7;13 / 19;96018;2022-10-26 12:36:44:235
7.9567;0.8584;-2.0195;8.9245;-1.9611;-3.5606;-2.3919;2.6492;1.4479;-0.406;-0.2512;1.6761;3996.0;-30.02;-28.11;24.43;155.69;0.23;-109.34;5.0;983.42;57.892;35.957417;-83.92423;813.58;NaN;;4.9;12.226105;151.7;13 / 19;96518;2022-10-26 12:36:44:735
7.9508;-1.8087;-2.3234;9.395;2.1818;-1.7732;4.5484;-3.4715;0.3152;0.426;1.3768;-3.0572;4007.0;-34.93;-18.19;24.39;117.52;-12.86;-100.69;5.0;983.42;60.489;35.957417;-83.92423;813.58;NaN;;4.9;12.226105;151.7;13 / 19;97017;2022-10-26 12:36:45:234
8.814;0.2934;-1.0295;8.5887;-2.4307;-4.0616;0.087;2.2301;2.1083;-1.4151;-0.3381;2.1265;3708.0;-28.84;-28.46;23.66;157.33;3.03;-110.28;5.0;983.42;59.237;35.957405;-83.924225;811.38;NaN;;4.46;12.226105;147.1;13 / 19;97519;2022-10-26 12:36:45:736
13.7336;-2.764;1.2293;9.6995;1.0449;0.9988;7.5198;-2.4663;1.884;0.3444;5.6444;-1.3643;6984.0;-36.96;-16.84;20.74;118.16;-6.12;-84.12;5.0;983.36;66.737;35.957405;-83.924225;811.38;NaN;;4.46;12.226105;147.1;13 / 19;98018;2022-10-26 12:36:46:235
-0.1077;4.2087;5.4933;0.9222;4.8552;8.4704;-0.108;-0.5928;-2.1669;0.3085;0.1977;-0.1442;20423.0;-13.88;-34.78;-22.03;151.25;-27.0;-6.91;5.0;983.39;61.714;35.957397;-83.92422;809.95;NaN;;3.89;12.226105;139.5;13 / 19;98518;2022-10-26 12:36:46:735
0.6858;3.7301;4.2867;2.1998;4.3953;8.486;-1.8667;-0.8617;-3.7504;0.0341;-0.98;0.9119;16068.0;-7.09;-40.05;-20.38;169.2;-26.24;-5.33;5.0;983.39;56.427;35.957397;-83.92422;809.95;NaN;;3.89;12.226105;139.5;13 / 19;99019;2022-10-26 12:36:47:236
3.65;3.408;5.1042;7.4889;2.5251;5.8061;1.4526;0.7395;1.622;-1.1059;-0.3446;-0.6671;15863.0;-20.1;-36.64;-17.74;183.66;-16.37;-51.82;5.0;983.4;56.963;35.95739;-83.92421;809.3;NaN;;4.03;12.226105;162.7;12 / 19;99518;2022-10-26 12:36:47:735
4.9175;3.1543;4.3992;3.5566;4.3409;8.0422;1.3744;-2.0428;-2.1465;1.0048;2.1829;0.3169;20209.0;-24.39;-34.28;-18.22;161.14;-21.51;-39.33;5.0;983.32;58.635;35.95739;-83.92421;809.3;NaN;;4.03;12.226105;162.7;12 / 19;100019;2022-10-26 12:36:48:236
0.8967;5.4838;4.3011;1.9468;5.6616;7.767;-0.1021;-0.1056;1.8961;0.1992;-0.0076;-0.1972;16188.0;-9.04;-40.69;-17.96;168.87;-35.26;-14.07;5.0;983.4;59.192;35.957375;-83.9242;808.56;NaN;;3.74;12.226105;159.1;12 / 19;100518;2022-10-26 12:36:48:735
2.2193;6.993;7.2984;0.8964;7.2787;6.5106;0.0707;-1.4358;0.6701;0.9541;0.3262;-0.1658;13054.0;-6.77;-42.22;-14.64;163.41;-47.92;-7.84;5.0;983.38;63.704;35.957375;-83.9242;808.56;NaN;;3.74;12.226105;159.1;12 / 19;101018;2022-10-26 12:36:49:235
0.2644;6.7645;2.977;1.4995;8.2739;5.0462;0.7443;0.6374;0.156;-0.1667;-0.0987;-0.2224;6318.0;-5.59;-44.77;-1.48;165.99;-57.53;-16.55;5.0;983.37;61.13;35.957367;-83.924194;812.57;NaN;;4.1;12.226105;143.1;11 / 19;101519;2022-10-26 12:36:49:736
3.2668;5.2226;5.1903;3.0413;5.8064;7.2943;-0.9746;0.2432;-0.9846;-0.5757;0.6202;2.2062;9831.0;-5.81;-45.79;-4.95;170.03;-47.04;-13.1;5.0;983.36;59.967;35.957367;-83.924194;812.57;NaN;;4.1;12.226105;143.1;11 / 19;102018;2022-10-26 12:36:50:235
3.1627;1.8206;5.4646;3.9641;1.591;8.8275;-0.7358;0.3334;-2.9962;-0.5468;0.275;0.815;14183.0;-30.13;-28.31;-20.96;135.78;-16.23;-26.64;5.0;983.38;59.478;35.95736;-83.92419;811.41;NaN;;4.68;12.226105;147.3;12 / 19;102519;2022-10-26 12:36:50:736
5.17;-0.3377;4.8266;4.7024;-0.6411;8.5818;-0.5516;1.1201;-1.8483;-0.677;-1.0558;0.0565;18729.0;-32.72;-13.03;-28.88;136.25;3.75;-28.72;5.0;983.36;56.967;35.95736;-83.92419;811.41;NaN;;4.68;12.226105;147.3;12 / 19;103017;2022-10-26 12:36:51:234
6.0571;-4.3896;5.6632;8.0037;-5.6667;0.0141;-2.0369;-0.2269;6.4518;-1.943;-0.6041;-0.7139;19428.0;-39.0;-4.01;-21.99;195.13;38.71;-71.23;5.0;983.38;54.842;35.957348;-83.92418;808.57;NaN;;5.22;12.226105;147.9;12 / 19;103519;2022-10-26 12:36:51:736
7.9795;-4.2544;-1.1874;9.612;-1.0346;1.6459;2.9566;-5.3476;-0.5035;2.4568;-0.4051;-1.751;11269.0;-46.09;-3.82;-2.68;151.39;6.06;-80.28;5.0;983.34;64.378;35.957348;-83.92418;808.57;NaN;;5.22;12.226105;147.9;12 / 19;104018;2022-10-26 12:36:52:235
8.3076;-1.1408;-1.439;8.8461;-3.8591;-1.7388;-0.5574;2.4229;0.5494;-0.7136;-0.7058;2.2199;7607.0;-41.42;-23.92;10.97;175.74;23.17;-101.12;5.0;983.36;55.175;35.957336;-83.92417;808.62;NaN;;5.51;12.226105;150.7;12 / 19;104518;2022-10-26 12:36:52:735
8.6761;-3.9933;-1.6531;9.4977;2.3554;-0.6442;-1.0598;-6.388;-0.9863;1.3531;-0.1075;-2.3751;7074.0;-44.08;-9.99;13.8;134.93;3.28;-91.87;5.0;983.31;62.299;35.957336;-83.92417;808.62;NaN;;5.51;12.226105;150.7;12 / 19;105018;2022-10-26 12:36:53:235
11.0668;-1.5407;-1.713;8.4921;-4.3762;-2.2143;0.8954;2.2057;0.7914;-1.0416;-0.3544;2.8258;6457.0;-38.85;-26.96;14.36;164.4;6.21;-97.6;5.0;983.33;55.12;35.957325;-83.92416;808.31;NaN;;5.65;12.226105;153.3;11 / 19;105518;2022-10-26 12:36:53:735
5.042;-6.1205;-1.5802;9.0386;3.6455;-1.0882;1.6707;-9.0991;-0.6609;1.6523;-0.0827;-3.538;6397.0;-44.38;-8.03;14.31;136.01;2.33;-95.78;5.0;983.3;58.408;35.957325;-83.92416;808.31;NaN;;5.65;12.226105;153.3;11 / 19;106018;2022-10-26 12:36:54:235
12.5306;-0.4406;-0.0586;8.2689;-4.6482;-2.4879;3.2448;1.6814;0.3802;0.5425;-0.8437;1.7753;6220.0;-36.07;-28.11;14.78;174.7;28.29;-106.75;5.0;983.36;54.999;35.957314;-83.92415;811.69;NaN;;5.98;12.226105;152.9;11 / 19;106518;2022-10-26 12:36:54:735
5.5304;-3.9287;-1.4521;9.3147;3.0614;-0.1853;-0.188;-9.161;-0.533;1.1692;0.6299;-3.0216;6929.0;-42.58;-9.79;12.99;71.76;-18.19;-91.14;5.0;983.31;61.933;35.957314;-83.92415;811.69;NaN;;5.98;12.226105;152.9;11 / 19;107019;2022-10-26 12:36:55:236
11.1458;-0.1926;-1.4318;9.0652;-2.9855;-2.2538;6.4426;-1.2989;-0.3333;-0.5524;-0.7307;2.1277;7198.0;-34.24;-32.42;11.64;175.25;17.72;-103.96;5.0;983.33;56.621;35.957294;-83.92413;814.77;NaN;;5.69;12.226105;155.7;12 / 19;107518;2022-10-26 12:36:55:735
6.446;-3.6643;-2.0782;9.4927;2.2092;-1.0859;2.6454;-6.7454;-0.5172;1.5838;0.8267;-3.6132;5988.0;-43.35;-9.58;15.98;161.73;12.18;-102.4;5.0;983.27;66.836;35.957294;-83.92413;814.77;NaN;;5.69;12.226105;155.7;12 / 19;108018;2022-10-26 12:36:56:235
8.3315;-2.071;-1.1252;8.0856;-4.5587;-3.1643;-0.0575;2.7396;1.7927;-0.6361;-0.8702;2.5219;6472.0;-35.85;-28.24;15.66;167.27;10.91;-102.45;5.0;983.35;58.255;35.957283;-83.924126;816.09;NaN;;5.54;12.226105;155.9;12 / 19;108519;2022-10-26 12:36:56:736
4.1201;-5.3195;-3.1101;9.7611;0.5325;-0.7801;2.3016;-4.9765;-0.587;1.5613;0.8821;-3.1875;6121.0;-42.32;-10.67;15.56;124.44;-3.11;-94.57;5.0;983.28;68.877;35.957283;-83.924126;816.09;NaN;;5.54;12.226105;155.9;12 / 19;109019;2022-10-26 12:36:57:236
9.4412;0.9685;-1.4354;8.9183;-2.7561;-3.0065;0.4478;3.8427;2.4705;-0.245;-0.5776;1.2917;6648.0;-37.09;-27.84;15.08;169.51;6.61;-103.43;5.0;983.32;59.413;35.95727;-83.92412;813.88;NaN;;5.51;12.226105;159.9;13 / 19;109518;2022-10-26 12:36:57:735
6.9799;-2.1727;-1.9068;9.7441;0.4356;-1.0166;0.3695;-2.1201;-0.4602;0.4603;0.2123;-1.092;8050.0;-42.82;-17.1;14.78;145.14;-2.55;-95.96;5.0;983.27;64.877;35.95727;-83.92412;813.88;NaN;;5.51;12.226105;159.9;13 / 19;110019;2022-10-26 12:36:58:236
8.1461;0.0275;-1.5012;9.2278;-2.1179;-2.5559;-1.8181;2.558;0.8482;-0.2646;-0.8033;1.0765;8549.0;-38.78;-28.44;11.38;179.7;12.47;-105.48;5.0;983.29;64.04;35.957256;-83.92411;815.2;NaN;;6.12;12.226105;157.6;13 / 19;110518;2022-10-26 12:36:58:735
7.0878;-1.5526;-2.1703;9.6918;1.4944;-0.0744;-2.7764;-3.1673;-2.0447;0.5813;0.3754;-1.2242;8841.0;-42.36;-19.35;11.87;153.93;0.67;-93.33;5.0;983.33;64.885;35.957256;-83.92411;815.2;NaN;;6.12;12.226105;157.6;13 / 19;111018;2022-10-26 12:36:59:235
9.9595;0.1436;0.8127;9.0465;-2.6285;-2.7243;-2.4889;1.7819;1.9082;-0.9857;-0.6811;1.6388;9342.0;-38.94;-27.88;7.26;179.96;4.83;-100.14;5.0;983.33;60.785;35.957245;-83.9241;813.89;NaN;;5.72;12.226105;159.0;13 / 19;111518;2022-10-26 12:36:59:735
8.6617;-4.4255;-2.8083;9.3534;2.9432;-0.1467;-1.3971;-6.3529;-1.7604;1.7416;-0.037;-1.737;9912.0;-43.48;-15.67;5.1;152.44;-4.33;-87.81;5.0;983.3;62.378;35.957245;-83.9241;813.89;NaN;;5.72;12.226105;159.0;13 / 19;112018;2022-10-26 12:37:00:235
12.5665;2.4646;0.6452;9.398;-2.1227;-1.828;1.4438;3.6826;2.2623;-0.9801;-0.4479;0.6694;7941.0;-36.39;-28.24;9.51;175.25;12.5;-101.01;5.0;983.36;61.082;35.957233;-83.924095;813.95;NaN;;5.94;12.226105;157.0;13 / 19;112518;2022-10-26 12:37:00:735
7.9711;-3.6583;-2.7353;9.3418;2.9798;-0.1447;-0.9577;-5.8893;-2.4087;0.5253;0.3036;-1.2825;10338.0;-40.18;-22.67;3.62;160.86;-17.69;-90.89;5.0;983.3;64.046;35.957233;-83.924095;813.95;NaN;;5.94;12.226105;157.0;13 / 19;113019;2022-10-26 12:37:01:236
13.6271;1.6603;-0.1316;9.1841;-2.771;-2.0355;0.3918;3.1749;2.5329;0.1264;-0.469;0.7784;9475.0;-37.28;-28.48;5.21;184.78;16.41;-102.5;5.0;983.38;58.678;35.957214;-83.92408;815.23;NaN;;5.4;12.226105;161.0;12 / 19;113518;2022-10-26 12:37:01:735
9.4747;-3.4463;-1.3035;9.4285;2.5121;-0.9813;-1.3665;-5.4969;-0.5096;0.3036;-0.1599;-1.0768;8611.0;-41.01;-20.03;7.76;161.51;-6.73;-94.14;5.0;983.38;63.498;35.957214;-83.92408;815.23;NaN;;5.4;12.226105;161.0;12 / 19;114018;2022-10-26 12:37:02:235
15.2504;1.9825;-2.1906;8.4816;-3.9617;-2.9221;5.8577;6.147;0.9018;-0.482;0.045;0.7262;7580.0;-39.6;-24.22;12.54;179.14;20.54;-107.24;5.0;983.35;58.632;35.957203;-83.92407;817.13;NaN;;5.47;12.226105;148.6;12 / 19;114518;2022-10-26 12:37:02:735
9.8169;-5.5472;-3.4463;9.1182;3.0053;-1.9994;-1.7607;-5.8446;-0.4124;0.3651;-0.4312;-1.2606;7426.0;-38.44;-23.49;14.51;145.66;-17.85;-102.37;5.0;983.38;66.129;35.957203;-83.92407;817.13;NaN;;5.47;12.226105;148.6;12 / 19;115019;2022-10-26 12:37:03:236
14.6387;1.7285;-0.7181;8.5866;-2.9608;-3.6978;3.028;5.0442;2.2077;-0.9559;0.0589;1.1183;6836.0;-36.62;-29.19;15.17;178.65;12.74;-110.81;5.0;983.38;56.098;35.95719;-83.924065;819.19;NaN;;5.58;12.226105;152.9;13 / 19;115518;2022-10-26 12:37:03:735
8.2047;-3.6066;-3.9921;9.3895;2.5904;-1.1387;-2.4137;-4.7285;-1.5979;0.2666;-0.4872;1.2207;9320.0;-41.04;-23.36;8.12;164.95;-15.32;-96.91;5.0;983.35;68.704;35.95719;-83.924065;819.19;NaN;;5.58;12.226105;152.9;13 / 19;116019;2022-10-26 12:37:04:236
13.0466;0.5758;-2.4144;8.7573;-2.8708;-3.3524;1.3534;2.9714;2.0353;-0.0499;-0.1377;1.0588;7177.0;-38.89;-26.68;11.64;184.15;17.02;-110.95;5.0;983.36;55.565;35.95718;-83.92405;817.76;NaN;;5.51;12.226105;154.6;13 / 19;116518;2022-10-26 12:37:04:735
7.9472;-4.0651;-1.0822;9.5812;0.9408;-1.8668;-1.2966;-5.549;0.7161;-0.3874;-0.2091;1.104;8309.0;-38.34;-26.27;9.77;168.75;-13.17;-99.98;5.0;983.36;66.292;35.95718;-83.92405;817.76;NaN;;5.51;12.226105;154.6;13 / 19;117019;2022-10-26 12:37:05:236
13.4273;1.7309;-1.2173;8.2097;-4.078;-3.4845;2.7686;4.7654;1.3443;-0.173;-0.1636;0.8659;5757.0;-37.67;-25.46;12.64;182.4;19.67;-111.1;5.0;983.37;55.024;35.95717;-83.92404;816.5;NaN;;5.4;12.226105;155.0;13 / 19;117518;2022-10-26 12:37:05:735
6.434;-3.6473;-2.7293;9.2282;2.7526;-1.8528;-0.1;-6.6865;-0.5709;0.0612;-0.6739;0.0547;7882.0;-37.14;-23.23;12.58;144.9;-16.73;-98.03;5.0;983.38;61.448;35.95717;-83.92404;816.5;NaN;;5.4;12.226105;155.0;13 / 19;118018;2022-10-26 12:37:06:235
14.0187;5.0527;-2.1667;8.8187;-2.1189;-3.7298;2.6662;4.6737;1.9836;-0.1621;0.6292;-1.4019;6193.0;-35.19;-26.83;14.64;179.7;12.48;-112.93;5.0;983.38;56.977;35.957153;-83.924034;815.2;NaN;;5.54;12.226105;155.9;13 / 19;118518;2022-10-26 12:37:06:735
9.4878;0.1149;-3.9933;9.3058;1.5458;-2.68;-0.5834;-4.1431;-1.0502;0.2085;-0.526;1.3781;7332.0;-33.34;-30.32;11.89;174.32;-9.07;-106.07;5.0;983.36;63.838;35.957153;-83.924034;815.2;NaN;;5.54;12.226105;155.9;13 / 19;119018;2022-10-26 12:37:07:235
18.0885;0.6559;-2.9195;9.2539;-1.8349;-2.6776;5.9946;4.221;0.633;0.2685;-0.0351;-0.7959;5468.0;-36.43;-25.03;14.42;178.81;17.94;-110.15;5.0;983.36;52.538;35.957146;-83.92403;814.07;NaN;;5.69;12.226105;164.4;13 / 19;119520;2022-10-26 12:37:07:737
9.5285;-0.8282;-3.2154;9.3922;1.7776;-2.1903;-1.5089;-5.6251;-0.4639;-0.2879;-0.2972;1.817;7763.0;-34.67;-27.17;10.39;160.9;-23.99;-100.52;5.0;983.34;58.458;35.957146;-83.92403;814.07;NaN;;5.69;12.226105;164.4;13 / 19;120019;2022-10-26 12:37:08:236
16.8209;-0.571;-1.8362;9.0059;-2.216;-3.1864;6.4173;3.8705;1.3698;-0.1144;0.9262;-1.361;4068.0;-40.78;-17.55;13.48;192.15;23.4;-117.2;5.0;983.36;63.874;35.957127;-83.92402;814.75;NaN;;5.36;12.226105;154.1;13 / 19;120518;2022-10-26 12:37:08:735
5.8295;-2.8214;-4.823;8.867;3.4461;-2.3815;-1.4157;-7.2767;-1.646;0.0779;-0.1073;0.139;6846.0;-32.25;-30.69;11.1;172.29;-20.57;-105.03;5.0;983.33;57.951;35.957127;-83.92402;814.75;NaN;;5.36;12.226105;154.1;13 / 19;121018;2022-10-26 12:37:09:235
16.5996;-1.6005;-1.835;8.3421;-4.3199;-2.8138;5.7621;4.6516;2.0486;-0.1074;0.6915;-0.7849;4022.0;-36.88;-21.06;13.74;182.09;33.38;-112.8;5.0;983.34;61.106;35.95712;-83.92401;814.34;NaN;;5.58;12.226105;165.0;13 / 19;121518;2022-10-26 12:37:09:735
8.3853;-2.7808;-3.2512;9.3749;2.354;-1.6552;-1.9675;-7.1735;-1.0773;-0.4626;-0.6328;2.0375;7372.0;-37.16;-23.19;9.11;169.57;-13.89;-100.01;5.0;983.36;60.559;35.95712;-83.92401;814.34;NaN;;5.58;12.226105;165.0;13 / 19;122017;2022-10-26 12:37:10:234
15.5545;0.4669;-1.9116;8.371;-3.9873;-3.1934;6.8999;6.6509;1.3423;0.2452;0.4236;-1.2942;4075.0;-41.14;-14.34;10.43;190.02;23.99;-110.88;5.0;983.35;61.334;35.957108;-83.92401;812.59;NaN;;5.47;12.226105;173.5;13 / 19;122518;2022-10-26 12:37:10:735
9.5417;-3.5862;-3.4594;9.4336;-1.3569;-2.31;0.6415;-2.0324;-1.8285;-0.0552;-0.7994;2.5721;7296.0;-37.41;-27.71;8.63;166.59;-12.57;-96.81;5.0;983.37;60.499;35.957108;-83.92401;812.59;NaN;;5.47;12.226105;173.5;13 / 19;123020;2022-10-26 12:37:11:237
17.6336;-3.8067;-2.3653;8.7099;-3.3116;-3.0564;6.6592;4.8726;1.2407;0.522;0.1304;-1.505;3793.0;-43.43;-16.16;10.58;193.77;31.2;-115.88;5.0;983.36;67.612;35.957096;-83.924;812.07;NaN;;5.54;12.226105;170.2;13 / 19;123519;2022-10-26 12:37:11:736
10.1402;-1.0283;-2.4156;9.3819;-1.0619;-2.65;2.0056;-1.7274;-0.4539;0.4133;-1.0711;2.9617;8762.0;-33.32;-29.49;4.63;181.0;-17.42;-99.15;5.0;983.34;59.436;35.957096;-83.924;812.07;NaN;;5.54;12.226105;170.2;13 / 19;124019;2022-10-26 12:37:12:236
14.7631;-3.8928;-0.2536;8.1778;-3.8931;-3.7599;5.5603;6.0671;3.6345;0.4394;2.3493;-3.3021;4529.0;-42.24;-11.08;8.1;201.14;23.39;-114.69;5.0;983.35;65.194;35.957085;-83.924;811.82;NaN;;5.47;12.226105;170.9;13 / 19;124518;2022-10-26 12:37:12:735
10.7818;-1.9932;-4.2568;9.457;0.5964;-2.5258;-0.79;-3.5143;-2.2337;0.6803;-0.8682;2.4319;9640.0;-32.38;-33.26;4.56;186.31;-3.49;-104.95;5.0;983.33;63.635;35.957085;-83.924;811.82;NaN;;5.47;12.226105;170.9;13 / 19;125018;2022-10-26 12:37:13:235
15.5725;-4.2604;-3.4738;8.5067;-3.2321;-3.655;10.1983;6.3829;-0.3183;-0.922;1.4737;-3.8229;4472.0;-39.84;-18.24;12.58;187.12;19.24;-113.25;5.0;983.33;66.013;35.957073;-83.92399;812.05;NaN;;5.62;12.226105;174.9;14 / 19;125518;2022-10-26 12:37:13:735
11.2989;-1.6938;-3.2213;9.3758;-0.0666;-2.8739;1.8366;-3.6758;-0.6941;-0.7403;-0.5316;3.3765;8109.0;-27.56;-34.71;12.11;169.2;-23.98;-106.12;5.0;983.33;56.591;35.957073;-83.92399;812.05;NaN;;5.62;12.226105;174.9;14 / 19;126018;2022-10-26 12:37:14:235
10.0385;-4.3896;-1.2832;9.5094;1.8226;-1.5555;5.4515;-6.0913;-1.4092;0.6305;1.517;-3.9939;4541.0;-41.16;-14.06;10.13;191.66;17.41;-110.98;5.0;983.34;65.374;35.957066;-83.92399;809.35;NaN;;5.36;12.226105;178.3;14 / 19;126518;2022-10-26 12:37:14:735
10.1641;-0.7469;-2.2002;9.2998;-0.1794;-3.1068;2.4319;-1.9267;-0.2526;-0.0363;-0.8271;3.031;7280.0;-25.76;-34.61;12.64;173.43;1.05;-108.47;5.0;983.37;58.597;35.957066;-83.92399;809.35;NaN;;5.36;12.226105;178.3;14 / 19;127018;2022-10-26 12:37:15:235
9.0652;-3.2094;-2.4467;9.4547;2.2097;-1.3773;2.1776;-5.3811;-0.8713;1.8823;1.0161;-3.4959;4392.0;-38.31;-15.94;10.58;182.11;10.31;-107.36;5.0;983.31;67.017;35.957054;-83.92399;809.67;NaN;;5.4;12.226105;173.4;13 / 19;127520;2022-10-26 12:37:15:737
12.5868;0.7086;0.5303;9.2015;-0.7684;-3.3033;1.8754;-0.8046;-2.086;-0.812;-1.1756;2.9518;6138.0;-31.91;-31.74;4.78;190.07;4.49;-109.75;5.0;983.33;59.641;35.957054;-83.92399;809.67;NaN;;5.4;12.226105;173.4;13 / 19;128018;2022-10-26 12:37:16:235
7.3893;-3.6823;-3.9036;9.1458;3.1765;-1.56;2.7186;-8.1781;-0.6323;3.0813;0.5649;-3.9711;4050.0;-41.91;-12.83;7.56;28.04;-18.9;-99.68;5.0;983.29;69.019;35.957043;-83.92398;811.87;NaN;;4.72;12.226105;165.5;13 / 19;128518;2022-10-26 12:37:16:735
12.4325;-0.638;-1.1085;7.6625;-4.1393;-4.5081;3.8403;3.2672;2.9124;-1.2937;-1.0349;3.0347;4344.0;-30.17;-33.49;9.79;180.13;7.16;-108.58;5.0;983.3;63.227;35.957043;-83.92398;811.87;NaN;;4.72;12.226105;165.5;13 / 19;129018;2022-10-26 12:37:17:235
9.21;-5.0216;-4.3262;9.4451;2.4849;-0.8865;6.9071;-7.0462;-0.9157;2.8437;1.9857;-4.1551;3779.0;-42.36;-10.78;7.8;199.96;12.02;-110.34;5.0;983.19;67.25;35.95703;-83.92398;813.04;NaN;;5.36;12.226105;182.4;14 / 19;129519;2022-10-26 12:37:17:736
12.9927;-0.996;-1.0439;7.6631;-4.2425;-4.41;4.0782;2.6767;3.3686;-1.0998;-1.1317;3.4218;4090.0;-27.45;-36.34;3.08;187.71;4.0;-107.2;5.0;983.32;58.777;35.95703;-83.92398;813.04;NaN;;5.36;12.226105;182.4;14 / 19;130018;2022-10-26 12:37:18:235
8.4212;-5.1987;-3.7373;9.5465;1.9949;-1.0271;6.6397;-6.2722;-0.7412;1.2537;0.6762;-2.7687;3690.0;-39.68;-9.15;1.24;257.97;-11.74;-96.14;5.0;983.18;70.269;35.957024;-83.92398;811.06;NaN;;5.33;12.226105;179.2;13 / 19;130519;2022-10-26 12:37:18:736
10.4635;2.4873;-0.3353;9.3801;-0.7357;-2.7645;0.1651;2.5468;1.5506;-2.492;-0.515;2.2498;5284.0;-32.32;-29.25;-5.36;203.98;4.3;-106.42;5.0;983.29;59.585;35.957024;-83.92398;811.06;NaN;;5.33;12.226105;179.2;13 / 19;131019;2022-10-26 12:37:19:236
6.6185;-1.8242;-2.0435;8.8046;4.1806;-1.0828;-2.1493;-6.0228;-1.3485;0.8608;0.2133;-1.4636;4473.0;-44.68;-14.49;-6.39;257.14;-14.65;-95.62;5.0;983.17;63.903;35.95701;-83.92399;812.69;NaN;;5.33;12.226105;191.9;14 / 19;131519;2022-10-26 12:37:19:736
11.0883;1.4737;-0.7038;8.3125;-3.3428;-3.9872;1.3658;3.7139;3.0519;-0.7568;-0.8385;2.2742;4213.0;-38.98;-28.56;-6.98;209.76;5.11;-107.34;5.0;983.26;54.374;35.95701;-83.92399;812.69;NaN;;5.33;12.226105;191.9;14 / 19;132019;2022-10-26 12:37:20:236
4.9475;-5.394;-3.4738;8.4278;4.9578;-0.7505;-1.4163;-8.8011;-2.6459;0.9963;0.6684;-2.3197;3735.0;-43.93;-12.47;-2.29;259.82;-13.99;-95.38;5.0;983.15;69.605;35.956997;-83.92399;812.65;NaN;;5.4;12.226105;191.1;14 / 19;132518;2022-10-26 12:37:20:735
12.9521;3.0488;1.002;8.791;-2.3006;-3.6873;-0.0106;4.163;2.615;-1.4502;-0.7768;2.3611;3794.0;-34.48;-28.76;-3.99;205.58;13.57;-112.76;5.0;983.26;62.006;35.956997;-83.92399;812.65;NaN;;5.4;12.226105;191.1;14 / 19;133019;2022-10-26 12:37:21:236
5.3342;-5.5819;-5.4168;8.2271;4.7667;-2.4009;-0.8468;-7.9087;-2.704;0.4396;-0.627;-1.5906;3969.0;-40.52;-16.67;-4.12;255.75;-19.45;-100.04;5.0;983.24;67.339;35.956985;-83.924;811.86;NaN;;5.44;12.226105;200.0;14 / 19;133518;2022-10-26 12:37:21:735
13.9277;4.0842;-1.963;7.3459;-3.1024;-5.7082;3.6162;3.973;4.3466;-0.9415;0.5289;0.6172;3472.0;-34.97;-22.82;-1.93;217.38;18.44;-127.85;5.0;983.28;55.357;35.956985;-83.924;811.86;NaN;;5.44;12.226105;200.0;14 / 19;134018;2022-10-26 12:37:22:235
6.0811;-3.7014;-2.5319;8.1742;5.0806;-1.8814;-1.3151;-8.4615;-1.9426;-0.2574;0.3664;-1.3576;3841.0;-37.89;-14.83;-2.19;300.31;-31.2;-102.96;5.0;983.24;68.099;35.95697;-83.92401;811.71;NaN;;5.36;12.226105;202.0;14 / 19;134518;2022-10-26 12:37:22:735
17.2579;2.3521;-1.7142;7.2579;-3.5208;-5.5764;6.947;6.9878;2.769;-1.7938;0.1924;1.4883;3481.0;-37.93;-19.46;-0.11;215.84;20.64;-123.4;5.0;983.3;51.308;35.95697;-83.92401;811.71;NaN;;5.36;12.226105;202.0;14 / 19;135019;2022-10-26 12:37:23:236
7.855;-5.097;-2.2313;8.9838;3.8127;-0.9622;-0.5827;-6.9997;-3.0731;-0.1518;0.5624;-1.6594;3918.0;-43.76;-8.55;-0.83;264.07;-10.61;-100.13;5.0;983.24;66.701;35.95696;-83.92402;809.31;NaN;;5.4;12.226105;205.3;14 / 19;135518;2022-10-26 12:37:23:735
14.2531;2.211;2.345;8.9168;-1.3783;-3.842;3.8406;4.3846;5.8417;-0.6982;-0.097;0.4665;3735.0;-40.63;-27.32;-7.18;215.33;7.37;-112.54;5.0;983.28;59.515;35.95696;-83.92402;809.31;NaN;;5.4;12.226105;205.3;14 / 19;136018;2022-10-26 12:37:24:235
7.6708;-0.8354;-3.3553;9.266;3.0747;-0.9261;-2.0743;-4.7525;-3.215;0.0102;-1.0229;1.2283;4152.0;-40.14;-22.22;-9.04;236.1;-18.27;-95.71;5.0;983.22;67.21;35.95695;-83.92403;808.74;NaN;;5.26;12.226105;203.0;14 / 19;136519;2022-10-26 12:37:24:736
16.6846;2.8047;-2.3701;7.9769;-2.5416;-5.1068;3.9727;5.4008;3.4364;-0.0355;-0.5862;0.8315;3637.0;-42.26;-16.12;-4.59;228.31;15.02;-122.63;5.0;983.2;64.309;35.95695;-83.92403;808.74;NaN;;5.26;12.226105;203.0;14 / 19;137018;2022-10-26 12:37:25:235
8.7912;-4.162;-3.8007;8.8062;1.1582;-4.1569;-0.5382;-5.454;0.3072;-0.2566;-0.1201;1.7234;3357.0;-39.79;-18.96;2.16;245.36;-16.98;-116.94;5.0;983.29;71.369;35.95694;-83.924034;808.59;NaN;;5.4;12.226105;203.9;14 / 19;137519;2022-10-26 12:37:25:736
15.4107;3.8785;-3.7839;8.161;-3.0882;-4.4757;3.952;4.93;1.9304;-0.6034;0.136;1.1254;3200.0;-39.13;-21.97;7.13;201.69;14.43;-118.13;5.0;983.33;65.49;35.95694;-83.924034;808.59;NaN;;5.4;12.226105;203.9;14 / 19;138018;2022-10-26 12:37:26:235
8.7709;-1.2413;-4.7354;9.3155;0.7972;-2.959;-0.0355;-4.5595;-1.7555;-0.3534;-0.2133;2.1753;3454.0;-37.52;-23.92;-0.32;226.92;-19.35;-107.41;5.0;983.33;68.347;35.95693;-83.924034;807.98;NaN;;5.4;12.226105;208.8;14 / 19;138519;2022-10-26 12:37:26:736
15.0601;2.2672;-0.7744;8.1201;-2.9981;-4.6093;4.2259;4.3825;2.9703;-1.0497;0.0559;1.1637;3660.0;-42.36;-11.04;-0.64;225.15;17.8;-119.58;5.0;983.3;60.221;35.95693;-83.924034;807.98;NaN;;5.4;12.226105;208.8;14 / 19;139019;2022-10-26 12:37:27:236
11.0357;-1.4043;-5.1305;9.3246;1.6885;-2.524;-0.7392;-6.0954;-1.351;-0.004;-0.782;1.2921;4988.0;-40.61;-13.65;-6.69;269.73;-19.69;-101.04;5.0;983.27;67.897;35.956917;-83.92405;805.45;NaN;;5.62;12.226105;214.9;13 / 19;139519;2022-10-26 12:37:27:736
16.2212;-2.1188;-2.4084;7.7175;-3.3566;-5.0342;7.0382;5.4564;1.4288;0.0498;1.8601;-2.5242;3425.0;-42.68;-9.98;-1.88;229.69;20.02;-123.12;5.0;983.26;62.288;35.956917;-83.92405;805.45;NaN;;5.62;12.226105;214.9;13 / 19;140017;2022-10-26 12:37:28:234
11.4891;-0.8294;-3.9479;9.3835;2.3124;-1.6654;-1.3303;-4.9977;-2.7782;-0.5992;-1.1276;1.7465;6801.0;-37.46;-20.25;-12.0;238.19;-13.64;-100.06;5.0;983.22;62.919;35.95691;-83.92406;806.28;NaN;;5.62;12.226105;225.5;13 / 19;140517;2022-10-26 12:37:28:734
15.0529;-2.193;-0.315;9.4947;-0.3838;-2.4238;7.2973;-0.5791;2.7383;1.2433;1.8091;-2.2762;4399.0;-43.41;-4.18;-5.34;244.32;14.82;-120.83;5.0;983.13;64.039;35.95691;-83.92406;806.28;NaN;;5.62;12.226105;225.5;13 / 19;141018;2022-10-26 12:37:29:235
3.1699;2.5917;4.6768;4.0933;3.6624;8.1242;2.9517;-3.5742;-5.1223;0.1126;3.3329;0.7731;15072.0;-30.36;-13.61;-19.16;69.74;-24.58;-49.38;5.0;983.21;58.567;35.9569;-83.924065;805.93;NaN;;6.08;12.226105;224.9;14 / 19;141518;2022-10-26 12:37:29:735
-0.6141;0.8895;6.9811;2.7299;3.5343;8.7308;-0.6782;1.1607;-1.0239;-0.6515;1.314;2.1777;17772.0;7.78;-29.64;-30.67;235.54;-30.61;-19.62;5.0;983.25;51.066;35.9569;-83.924065;805.93;NaN;;6.08;12.226105;224.9;14 / 19;142019;2022-10-26 12:37:30:236
3.7612;0.3197;7.5954;4.6572;0.9444;8.5784;0.2864;1.4827;0.5869;-0.1904;0.0599;-0.1258;16638.0;-12.64;-29.68;-28.44;184.11;-5.53;-28.5;5.0;983.28;54.214;35.956886;-83.92408;805.56;NaN;;5.11;12.226105;214.8;14 / 19;142518;2022-10-26 12:37:30:735
2.4538;0.0275;7.7689;3.3225;0.5415;9.2108;-0.4565;1.6105;0.4748;-0.2556;-0.3559;0.5818;16997.0;-21.13;-26.85;-30.11;159.05;-3.17;-19.84;5.0;983.24;58.601;35.956886;-83.92408;805.56;NaN;;5.11;12.226105;214.8;14 / 19;143018;2022-10-26 12:37:31:235
-4.1943;-9.859;9.8495;4.1075;-3.9155;7.998;-0.8194;-8.5724;2.2057;-3.0675;1.8126;-4.2803;20117.0;-16.67;-23.06;-34.37;174.06;13.89;-21.63;5.0;983.25;56.177;35.95688;-83.92409;805.81;NaN;;5.47;12.226105;210.6;14 / 19;143518;2022-10-26 12:37:31:735
3.3422;-1.5144;5.4012;2.8884;-3.1082;8.8412;3.0204;-3.4285;1.9181;1.1597;1.0023;0.7525;30720.998;1.61;10.89;-42.34;257.53;23.96;-27.57;5.0;983.21;61.59;35.95688;-83.92409;805.81;NaN;;5.47;12.226105;210.6;14 / 19;144018;2022-10-26 12:37:32:235
2.1846;-1.7692;7.806;4.817;-3.65;7.723;-1.3323;0.5573;1.6017;-0.6521;-0.0555;-0.54;33355.0;5.98;3.38;-43.03;250.96;19.2;-27.82;5.0;983.26;55.051;35.956863;-83.924095;806.38;NaN;;5.47;12.226105;209.1;14 / 19;144518;2022-10-26 12:37:32:735
3.0404;-2.0997;5.7817;3.6017;-3.1008;8.578;2.1331;-2.9064;1.8216;1.1436;0.3562;0.8369;29587.002;1.35;11.46;-41.44;265.25;18.43;-22.78;5.0;983.18;58.573;35.956863;-83.924095;806.38;NaN;;5.47;12.226105;209.1;14 / 19;145018;2022-10-26 12:37:33:235
2.9327;-2.6683;8.0273;5.2838;-3.5658;7.4523;-0.3214;0.3638;0.3318;-1.1405;0.0111;-1.1887;32316.998;5.7;5.27;-41.93;255.85;19.39;-29.2;5.0;983.23;60.182;35.956856;-83.9241;804.83;NaN;;5.72;12.226105;233.9;14 / 19;145519;2022-10-26 12:37:33:736
4.2676;-1.9487;4.7689;4.4781;-3.2558;8.0943;2.2033;-3.0592;1.3743;0.7003;-0.0582;0.5936;27508.998;-1.74;15.39;-37.31;280.79;19.39;-28.95;5.0;983.16;62.353;35.956856;-83.9241;804.83;NaN;;5.72;12.226105;233.9;14 / 19;146019;2022-10-26 12:37:34:236
5.7529;-0.9817;3.6018;8.8836;-2.5016;3.3157;-1.9196;0.4466;0.7284;-0.2588;-1.2608;-0.5212;26626.0;-7.59;12.43;-34.33;282.91;14.78;-69.53;5.0;983.21;57.2;35.95685;-83.92412;803.3;NaN;;5.47;12.226105;229.6;14 / 19;146518;2022-10-26 12:37:34:735
7.2338;-1.6496;1.7142;8.5341;-0.6896;4.7816;-1.18;-0.9571;-2.8839;1.3255;0.5233;-0.4222;16854.0;-20.46;14.16;-25.44;298.4;11.87;-65.53;5.0;983.17;61.202;35.95685;-83.92412;803.3;NaN;;5.47;12.226105;229.6;14 / 19;147020;2022-10-26 12:37:35:237
8.4021;-1.0199;2.6515;9.3848;-2.1335;1.8825;-0.7893;1.1507;1.0426;-0.3766;-0.5408;0.2588;18287.0;-10.42;13.89;-31.5;291.12;9.45;-73.28;5.0;983.16;62.319;35.956844;-83.92413;799.48;NaN;;5.54;12.226105;240.1;13 / 19;147519;2022-10-26 12:37:35:736
6.6867;-1.4306;0.3497;8.979;-0.1239;3.9411;-1.9187;-1.8779;-1.8889;1.8412;0.719;-0.4754;14187.0;-0.66;19.05;-39.84;293.86;8.98;-72.49;5.0;983.17;66.825;35.956844;-83.92413;799.48;NaN;;5.54;12.226105;240.1;13 / 19;148018;2022-10-26 12:37:36:235
7.6421;0.5112;0.3963;9.6206;-1.5687;1.0745;0.7672;0.6447;-2.1855;-0.3887;-1.597;0.6473;11297.0;-15.34;-17.44;-34.86;239.14;9.2;-83.63;5.0;983.21;63.39;35.95684;-83.92415;798.97;NaN;;5.51;12.226105;245.9;13 / 19;148519;2022-10-26 12:37:36:736
7.247;-1.3884;-0.207;9.3374;1.0258;2.8163;0.7187;-3.5745;-1.3577;1.8807;1.4034;-1.6044;9121.0;-31.63;-7.95;-24.51;254.79;-6.0;-73.22;5.0;983.14;70.457;35.95684;-83.92415;798.97;NaN;;5.51;12.226105;245.9;13 / 19;149018;2022-10-26 12:37:37:235
3.6763;0.7576;5.7434;5.6321;0.6958;7.9979;-1.2133;0.1173;-2.1964;0.9205;0.6805;0.2775;22586.0;-13.89;-16.09;-32.51;216.27;-1.23;-41.19;5.0;983.17;62.239;35.95683;-83.92416;802.9;NaN;;5.9;12.226105;234.2;13 / 19;149518;2022-10-26 12:37:37:735
3.8892;1.7046;5.6237;4.0793;3.4373;8.2289;1.2861;-2.2883;2.3119;1.923;0.3129;0.5059;25767.0;9.13;-12.67;-35.68;264.61;-20.52;-26.37;5.0;983.23;63.187;35.95683;-83.92416;802.9;NaN;;5.9;12.226105;234.2;13 / 19;150018;2022-10-26 12:37:38:235
2.8609;3.961;4.7103;5.0833;4.543;7.0492;0.2206;0.3763;-2.016;-1.3765;-0.4662;-0.9344;14804.0;6.83;-32.74;-17.93;216.15;-32.14;-37.62;5.0;983.24;58.552;35.95682;-83.92417;803.32;NaN;;4.5;12.226105;226.4;13 / 19;150519;2022-10-26 12:37:38:736
4.404;2.1404;7.2182;5.7605;3.1886;7.2677;-1.259;-0.2984;1.1087;1.7743;0.8427;0.5699;21824.0;-4.56;-21.75;-22.86;216.65;-18.97;-38.4;5.0;983.2;63.658;35.95682;-83.92417;803.32;NaN;;4.5;12.226105;226.4;13 / 19;151018;2022-10-26 12:37:39:235
9.6183;-1.2233;2.5172;9.3676;-2.8292;-0.6436;3.3063;0.9041;3.8118;-2.1984;-1.5567;1.8755;13259.0;-13.88;-17.34;-27.15;234.07;0.25;-78.22;5.0;983.23;61.332;35.956814;-83.92418;803.32;NaN;;4.72;12.226105;220.4;13 / 19;151518;2022-10-26 12:37:39:735
7.8215;-4.3573;-1.6651;9.6494;-0.8432;1.5327;7.9872;-3.6929;2.6643;3.3293;0.8576;-2.7151;7269.0;-33.64;11.91;-13.26;319.84;4.93;-80.97;5.0;983.08;70.678;35.956814;-83.92418;803.32;NaN;;4.72;12.226105;220.4;13 / 19;152018;2022-10-26 12:37:40:235
12.958;-1.902;1.5754;9.4192;-2.5871;-0.8693;4.2594;-1.2551;0.0521;-2.6818;-1.0642;3.309;7704.0;-28.76;-20.96;-23.34;223.11;15.3;-95.27;5.0;983.21;66.456;35.956802;-83.92419;805.34;NaN;;5.04;12.226105;224.2;13 / 19;152517;2022-10-26 12:37:40:734
7.8144;-4.8206;-1.1815;9.3126;2.4508;1.8545;2.611;-8.0121;-2.239;2.4096;1.3064;-2.8304;6302.0;-36.32;8.85;-15.04;284.83;8.3;-88.01;5.0;983.12;71.169;35.956802;-83.92419;805.34;NaN;;5.04;12.226105;224.2;13 / 19;153018;2022-10-26 12:37:41:235
12.2279;-0.4143;-1.0822;9.5284;-1.9918;-1.1886;4.4302;-2.085;1.4385;-1.4579;-1.2364;3.028;7037.0;-31.56;-19.18;-22.65;242.68;-12.9;-87.54;5.0;983.2;59.426;35.95679;-83.924194;803.34;NaN;;4.93;12.226105;228.8;13 / 19;153518;2022-10-26 12:37:41:735
9.6565;-3.9634;-0.1065;9.2744;2.0607;2.4308;3.1799;-6.1815;-1.9162;1.9995;1.8948;-2.8785;6505.0;-38.29;9.86;-13.91;278.81;11.51;-90.88;5.0;983.1;68.904;35.95679;-83.924194;803.34;NaN;;4.93;12.226105;228.8;13 / 19;154019;2022-10-26 12:37:42:236
13.4836;-1.8206;-0.1472;9.7617;-0.8261;-0.4452;2.1545;-3.2991;-1.7311;-0.1335;-2.6402;3.3071;12260.0;-29.96;-14.17;-28.09;240.84;4.83;-92.61;5.0;983.17;54.482;35.956787;-83.9242;803.77;NaN;;4.9;12.226105;222.5;13 / 19;154518;2022-10-26 12:37:42:735
10.4073;-6.2557;-3.9503;9.5544;1.745;-1.3563;10.9291;-9.713;-1.2251;2.0457;1.674;-5.1649;3409.0;-38.79;10.2;-8.21;320.93;-10.25;-98.08;5.0;983.06;69.561;35.956787;-83.9242;803.77;NaN;;4.9;12.226105;222.5;13 / 19;155019;2022-10-26 12:37:43:236
12.3835;0.5506;-0.2369;9.0936;-2.4357;-2.7467;2.8026;1.5321;1.6346;-2.108;-0.7805;3.2445;3702.0;-33.19;-24.73;-12.34;219.24;-6.32;-100.02;5.0;983.2;47.216;35.95678;-83.92422;804.05;NaN;;5.04;12.226105;226.1;13 / 19;155518;2022-10-26 12:37:43:735
11.7191;-3.3577;-0.7325;9.7701;0.8408;-0.0944;6.0899;-4.1117;2.2076;1.9795;1.846;-2.3527;5122.0;-40.41;6.24;-12.77;305.07;-4.92;-90.55;5.0;983.09;57.966;35.95678;-83.92422;804.05;NaN;;5.04;12.226105;226.1;13 / 19;156019;2022-10-26 12:37:44:236
6.1373;4.8314;1.4964;9.6825;1.4614;-0.5332;-2.9308;3.1046;1.417;0.3205;-0.4823;1.08;7855.0;-33.88;-20.16;-24.0;247.92;-16.47;-88.43;5.0;983.18;56.53;35.95677;-83.924225;804.61;NaN;;4.86;12.226105;213.4;13 / 19;156519;2022-10-26 12:37:44:736
6.7334;0.4525;-0.6834;8.9474;3.795;-1.3085;2.4451;-4.6594;-0.5428;0.89;0.4891;-0.9176;3514.0;-33.88;-25.97;-11.85;235.3;-22.77;-98.32;5.0;983.21;63.778;35.95677;-83.924225;804.61;NaN;;4.86;12.226105;213.4;13 / 19;157018;2022-10-26 12:37:45:235
10.4444;3.0715;2.333;9.0244;3.4805;-1.6177;-0.4782;-1.9739;-2.8726;-3.724;-1.573;1.8361;3899.0;-22.28;-38.25;-6.26;201.34;-30.85;-96.66;5.0;983.23;50.047;35.95676;-83.92423;805.07;NaN;;5.72;12.226105;222.3;13 / 19;157519;2022-10-26 12:37:45:736
5.8992;1.6771;-3.335;9.505;2.4093;-0.1457;4.7841;1.4119;3.4817;1.1343;1.0905;-1.2932;7391.0;-35.66;-17.16;-16.63;246.31;-14.22;-90.88;5.0;983.04;59.509;35.95676;-83.92423;805.07;NaN;;5.72;12.226105;222.3;13 / 19;158018;2022-10-26 12:37:46:235
7.9747;0.9087;-0.4777;8.708;-1.0806;-4.3787;4.4438;1.1429;-0.2533;-1.6048;-0.6228;1.5399;5574.0;-37.39;-12.45;-16.86;245.16;6.33;-116.7;5.0;983.17;63.611;35.956753;-83.92425;805.53;NaN;;5.0;12.226105;217.5;13 / 19;158518;2022-10-26 12:37:46:735
8.6282;-2.8669;-3.8892;9.3731;1.9988;-2.0787;1.552;-4.2802;0.163;2.6537;0.9176;-2.9372;3774.0;-41.36;4.39;-4.39;273.11;4.68;-108.77;5.0;983.13;65.682;35.956753;-83.92425;805.53;NaN;;5.0;12.226105;217.5;13 / 19;159017;2022-10-26 12:37:47:234
8.8762;-0.1543;-3.3182;9.3731;-0.2708;-2.8709;1.897;-1.351;-1.4423;-0.1565;-0.7106;2.1899;3748.0;-37.8;-16.46;-13.24;254.04;-16.01;-101.68;5.0;983.19;57.374;35.956745;-83.924255;804.21;NaN;;5.4;12.226105;217.9;13 / 19;159518;2022-10-26 12:37:47:735
10.7566;-4.8649;-1.3825;9.6066;0.7996;-1.8014;5.9376;-6.0608;0.3188;0.6341;1.3723;-3.3878;2851.0;-40.93;4.01;-6.19;250.52;18.67;-112.76;5.0;983.17;66.33;35.956745;-83.924255;804.21;NaN;;5.4;12.226105;217.9;13 / 19;160018;2022-10-26 12:37:48:235
15.9637;-3.2931;-3.687;9.3289;0.4164;-2.9949;-1.4281;-6.2802;-0.2144;-0.352;-1.1418;4.4553;2896.0;-35.62;-22.65;-10.54;224.75;-2.43;-107.8;5.0;983.22;58.625;35.95673;-83.92426;803.62;NaN;;5.62;12.226105;196.0;13 / 19;160517;2022-10-26 12:37:48:734
14.895;-8.2561;-1.7979;9.4007;0.7674;-2.6849;12.1759;-8.6125;1.768;3.1902;0.5987;-5.0031;3057.0;-37.87;9.86;-1.91;315.97;-4.49;-105.94;5.0;983.06;71.472;35.95673;-83.92426;803.62;NaN;;5.62;12.226105;196.0;13 / 19;161019;2022-10-26 12:37:49:236
10.7219;2.077;-4.1836;8.5577;-0.0656;-4.7888;1.8803;2.1213;0.4998;-1.5921;-1.1326;3.0421;2866.0;-29.89;-27.38;-5.31;222.41;-16.64;-114.61;5.0;983.2;65.055;35.95672;-83.92427;803.02;NaN;;5.4;12.226105;207.4;13 / 19;161518;2022-10-26 12:37:49:735
9.9942;-2.473;-5.8199;8.8511;2.977;-2.9944;7.126;-5.154;-1.3802;1.5131;1.6209;-3.9019;2600.0;-40.71;-13.27;2.1;267.95;-17.67;-108.69;5.0;983.18;68.207;35.95672;-83.92427;803.02;NaN;;5.4;12.226105;207.4;13 / 19;162018;2022-10-26 12:37:50:235
12.1597;-2.0614;-1.7931;7.1237;-4.1968;-5.2735;4.8816;2.0644;3.2924;-1.4053;-1.2923;4.0792;2460.0;-29.36;-30.38;-0.71;200.15;2.56;-111.23;5.0;983.21;57.784;35.956707;-83.92428;801.99;NaN;;5.83;12.226105;197.7;13 / 19;162518;2022-10-26 12:37:50:735
4.343;-5.6955;-7.57;9.5805;2.0882;0.1513;6.8408;-8.3751;-5.0719;-0.9991;0.7691;-0.3709;3300.0;-38.04;1.14;-2.64;345.19;-12.29;-89.1;5.0;983.14;72.53;35.956707;-83.92428;801.99;NaN;;5.83;12.226105;197.7;13 / 19;163018;2022-10-26 12:37:51:235
12.982;-0.6655;-0.1962;6.8209;-2.4534;-6.605;4.5711;1.3475;4.2461;-3.15;-1.6333;2.5319;4343.0;-35.06;-13.72;-17.98;238.01;12.91;-113.97;5.0;983.27;60.302;35.956696;-83.924286;800.32;NaN;;5.62;12.273322;197.8;13 / 19;163517;2022-10-26 12:37:51:734
0.8429;-7.5425;-6.7932;8.9473;4.0118;-0.1452;3.0917;-10.4408;-3.3113;-0.6196;-0.7892;0.5203;3801.0;-36.51;2.06;-4.71;341.69;-24.15;-90.93;5.0;983.18;70.964;35.956696;-83.924286;800.32;NaN;;5.62;12.273322;197.8;13 / 19;164018;2022-10-26 12:37:52:235
11.33;2.7042;-1.0056;6.5378;-5.6444;-4.6441;4.2538;6.0975;4.8584;-0.2871;-0.1141;2.0842;2523.0;-36.49;-11.23;-7.67;229.69;35.14;-125.39;5.0;983.27;54.551;35.956684;-83.92429;800.61;NaN;;5.44;12.77921;194.1;13 / 19;164517;2022-10-26 12:37:52:734
5.2872;-6.5228;-2.8896;8.3172;5.0788;-1.0958;-3.0604;-11.8423;-1.7773;-0.1638;-0.3241;-1.8808;2867.0;-36.06;-5.61;-9.11;313.08;-31.19;-97.51;5.0;983.29;65.517;35.956684;-83.92429;800.61;NaN;;5.44;12.77921;194.1;13 / 19;165018;2022-10-26 12:37:53:235
15.3162;1.9645;0.262;6.4507;-5.2138;-5.2321;7.0807;7.1147;1.7689;-1.4973;-0.6996;2.5077;2936.0;-35.04;-20.14;-9.49;216.52;22.41;-112.73;5.0;983.3;51.254;35.956673;-83.9243;800.81;NaN;;6.01;12.575456;203.0;13 / 19;165519;2022-10-26 12:37:53:736
3.5707;-4.4662;-4.9618;8.4567;4.817;-1.2049;-3.4156;-8.9687;-4.3061;0.416;-0.1746;-1.1764;6390.0;-36.68;-0.17;-10.37;319.95;-21.56;-92.04;5.0;983.24;68.8;35.956673;-83.9243;800.81;NaN;;6.01;12.575456;203.0;13 / 19;166018;2022-10-26 12:37:54:235
15.1235;1.2473;7.2888;8.1513;-1.9169;-5.1041;5.6073;3.8345;3.0991;-0.1208;0.5776;-0.118;5090.0;-36.07;-10.59;-10.97;241.23;11.27;-122.05;5.0;983.25;61.344;35.95666;-83.92432;798.49;NaN;;5.47;13.046012;205.6;13 / 19;166518;2022-10-26 12:37:54:735
8.6964;-1.2365;-2.9746;8.7948;3.6855;2.2889;-0.8679;-4.9917;-3.7126;0.42;0.5027;-0.598;16966.0;-33.28;-3.26;-19.89;315.18;-22.07;-75.41;5.0;983.23;65.279;35.95666;-83.92432;798.49;NaN;;5.47;13.046012;205.6;13 / 19;167018;2022-10-26 12:37:55:235
9.5692;0.7851;1.5861;9.3739;-0.6048;-2.8168;0.0532;1.4266;4.1602;-1.63;-0.4448;0.6338;13488.0;-31.99;-9.39;-24.69;252.71;2.2;-103.96;5.0;983.22;55.183;35.95665;-83.92433;798.09;NaN;;5.47;13.061322;206.7;13 / 19;167518;2022-10-26 12:37:55:735
7.3283;-1.7417;-3.3721;9.6118;1.9359;0.192;-2.3013;-1.7791;-2.9024;1.4347;0.5408;-1.3058;14306.0;-37.93;6.47;-14.02;315.43;-11.39;-88.86;5.0;983.18;63.124;35.95665;-83.92433;798.09;NaN;;5.47;13.061322;206.7;13 / 19;168017;2022-10-26 12:37:56:234
9.6781;2.1009;2.4168;8.9841;-1.8313;-3.4789;0.4285;2.6987;4.2453;-0.8433;-0.473;0.9625;11602.0;-38.38;0.19;-16.76;263.0;6.2;-107.23;5.0;983.21;58.463;35.95664;-83.92434;796.81;NaN;;5.47;13.333276;215.3;14 / 19;168518;2022-10-26 12:37:56:735
9.4986;-3.2118;-4.0172;9.5009;2.1676;-1.0978;-1.67;-4.1269;-1.7138;-0.4423;0.1683;-0.3008;11449.0;-38.38;5.33;-11.74;308.42;-12.77;-96.59;5.0;983.23;67.068;35.95664;-83.92434;796.81;NaN;;5.47;13.333276;215.3;14 / 19;169018;2022-10-26 12:37:57:235
13.1952;1.3932;-1.2855;8.3053;-2.8844;-4.3442;0.9896;3.6513;3.8034;-0.0878;-0.7962;1.33;9521.0;-39.45;-4.89;-14.72;250.94;8.87;-111.22;5.0;983.26;52.915;35.95663;-83.924355;798.63;NaN;;5.58;12.970063;240.3;13 / 19;169518;2022-10-26 12:37:57:735
6.2677;-3.5288;-3.585;9.4054;2.6603;-0.7946;-1.9315;-4.4869;-2.0129;-0.3821;-0.1605;-0.191;12113.0;-38.31;5.27;-9.81;318.46;-15.74;-94.83;5.0;983.23;66.213;35.95663;-83.924355;798.63;NaN;;5.58;12.970063;240.3;13 / 19;170018;2022-10-26 12:37:58:235
12.6239;2.0889;-1.1061;8.0358;-3.7029;-4.229;1.8313;4.889;2.4803;-0.128;-1.0952;1.5633;9551.0;-39.06;-3.6;-13.61;244.96;22.18;-117.76;5.0;983.25;54.031;35.956627;-83.92437;796.01;NaN;;5.44;12.911461;237.2;12 / 19;170518;2022-10-26 12:37:58:735
6.4268;-0.88;4.89;4.7692;3.3634;7.8811;6.0299;-6.9844;-2.147;2.1519;3.0063;0.3075;22882.0;-29.04;0.08;-20.76;4.37;-10.49;-53.29;5.0;983.27;64.797;35.956627;-83.92437;796.01;NaN;;5.44;12.911461;237.2;12 / 19;171018;2022-10-26 12:37:59:235
3.5539;4.8948;13.1686;4.288;4.7901;7.4053;-0.8976;0.7404;-3.6854;-0.0618;-0.2131;0.2525;20469.0;3.47;-24.99;-32.91;247.43;-30.41;-27.65;5.0;983.28;62.52;35.956623;-83.924385;793.44;NaN;;5.47;12.233901;234.9;12 / 19;171518;2022-10-26 12:37:59:735
4.4542;6.92;7.5592;4.0175;4.0519;7.9757;-0.2889;0.5568;-0.4576;-0.2023;-0.0431;-0.088;18698.0;4.76;-31.57;-27.51;222.97;-26.24;-27.85;5.0;983.24;70.288;35.956623;-83.924385;793.44;NaN;;5.47;12.233901;234.9;12 / 19;172018;2022-10-26 12:38:00:235
3.5264;3.2596;14.5394;3.4519;3.6954;8.4023;-0.9504;0.3787;-2.5811;-0.5673;-0.6453;0.3447;24951.0;7.29;-26.76;-31.33;230.21;-22.14;-22.33;5.0;983.21;58.393;35.956615;-83.9244;793.18;NaN;;5.58;12.226105;243.8;11 / 19;172517;2022-10-26 12:38:00:734
5.0037;3.3159;9.294;4.5781;3.5955;7.892;-1.3302;-0.0865;-0.8324;-0.2054;-0.7923;0.0272;30047.002;7.05;-23.04;-34.28;242.75;-21.51;-30.12;5.0;983.24;70.275;35.956615;-83.9244;793.18;NaN;;5.58;12.226105;243.8;11 / 19;173018;2022-10-26 12:38:01:235
2.6731;4.8577;9.8794;3.6154;3.4833;8.4242;-0.9754;1.2056;2.3089;-0.0229;0.5074;0.5072;33679.0;5.94;-20.16;-36.04;248.0;-20.23;-25.2;5.0;983.26;56.428;35.95661;-83.924416;792.65;NaN;;5.4;12.226105;248.9;13 / 19;173519;2022-10-26 12:38:01:736
5.7182;6.2737;6.239;3.5373;5.522;7.2915;-0.7898;-0.752;-1.9084;-0.3071;-0.1052;0.0707;25524.0;9.28;-23.34;-32.96;258.69;-34.27;-25.88;5.0;983.24;50.46;35.95661;-83.924416;792.65;NaN;;5.4;12.226105;248.9;13 / 19;174018;2022-10-26 12:38:02:235
4.1034;5.2848;11.7742;3.5409;4.8608;7.7463;0.0284;1.7855;2.106;0.1445;0.2531;0.3099;30967.002;7.73;-23.66;-33.86;249.07;-28.07;-25.05;5.0;983.24;52.564;35.956608;-83.92443;792.58;NaN;;5.22;12.226105;246.4;13 / 19;174518;2022-10-26 12:38:02:735
2.5283;3.8198;12.5964;3.6815;4.8691;7.6752;-0.363;0.2554;-1.9119;-0.4502;-0.6228;0.077;27044.998;9.98;-26.29;-31.31;244.2;-29.77;-25.63;5.0;983.23;56.566;35.956608;-83.92443;792.58;NaN;;5.22;12.226105;246.4;13 / 19;175018;2022-10-26 12:38:03:235
4.4435;2.8944;14.9213;3.3125;3.7118;8.4511;-1.0018;0.901;2.5598;-0.0253;-0.2958;0.4311;32984.0;9.83;-22.5;-34.5;244.25;-21.26;-20.15;5.0;983.26;55.132;35.9566;-83.924446;792.66;NaN;;5.47;12.226105;241.6;13 / 19;175518;2022-10-26 12:38:03:735
5.6094;2.3797;13.346;3.6032;4.0818;8.1564;-0.5026;0.3522;-1.8279;-0.6655;-0.5556;-0.3104;30914.0;11.36;-23.46;-33.99;247.58;-24.6;-23.83;5.0;983.22;52.14;35.9566;-83.924446;792.66;NaN;;5.47;12.226105;241.6;13 / 19;176018;2022-10-26 12:38:04:235
2.8645;2.6384;14.5119;3.5145;3.1354;8.6016;-0.7956;1.0534;2.1777;0.0724;0.3078;0.4203;36179.0;8.68;-16.67;-38.55;256.24;-18.65;-22.22;5.0;983.23;53.588;35.956593;-83.92445;791.93;NaN;;5.47;12.226105;243.4;13 / 19;176517;2022-10-26 12:38:04:734
5.4299;3.7002;8.7936;4.3195;3.0161;8.2714;1.0968;0.4443;0.7753;-1.2532;-0.5376;0.0769;31766.0;9.02;-22.16;-34.97;252.1;-26.21;-25.06;5.0;983.25;55.985;35.956593;-83.92445;791.93;NaN;;5.47;12.226105;243.4;13 / 19;177018;2022-10-26 12:38:05:235
3.6631;3.5013;10.5676;4.7334;3.1719;7.9815;0.2024;0.9321;1.3659;0.2897;0.5333;0.13;37222.0;4.03;-19.37;-37.67;248.25;-16.8;-33.14;5.0;983.25;53.717;35.95659;-83.92447;791.7;NaN;;5.4;12.226105;239.8;13 / 18;177518;2022-10-26 12:38:05:735
1.3047;0.5004;14.0533;0.6541;2.7668;9.3855;1.553;-1.1242;0.2351;-0.7135;-0.6271;-0.7314;28584.998;16.26;-17.18;-34.46;258.41;-21.6;-0.68;5.0;983.23;53.875;35.95659;-83.92447;791.7;NaN;;5.4;12.226105;239.8;13 / 18;178017;2022-10-26 12:38:06:234
1.3585;3.3218;12.7164;-0.1077;2.7242;9.4201;-0.8137;1.7902;3.4115;0.6851;0.2317;-0.4914;28668.0;34.88;-8.87;-32.83;271.05;-16.13;0.66;5.0;983.25;53.154;35.956585;-83.924484;789.95;NaN;;5.44;12.226105;238.1;13 / 19;178518;2022-10-26 12:38:06:735
3.6751;2.7676;10.0899;2.2503;3.4595;8.896;0.6011;-0.0422;0.2309;-0.988;-1.7835;-0.1743;28250.0;26.25;-17.68;-30.82;255.49;-20.66;-14.2;5.0;983.24;55.993;35.956585;-83.924484;789.95;NaN;;5.44;12.226105;238.1;13 / 19;179018;2022-10-26 12:38:07:235
0.9697;0.4083;15.4959;1.6426;2.5483;9.3262;-1.0155;-2.3434;6.9504;1.2367;0.3692;0.8243;36994.0;14.57;-7.54;-39.34;263.4;-8.64;-13.27;5.0;983.21;54.952;35.956577;-83.92451;789.4;NaN;;5.62;12.226105;241.0;12 / 19;179517;2022-10-26 12:38:07:734
5.0061;2.2158;10.1617;1.9403;4.5213;8.4831;1.8456;-1.3595;-1.3913;-0.5701;-1.558;-0.1322;28827.002;19.8;-15.83;-34.05;267.94;-27.45;-12.88;5.0;983.22;53.855;35.956577;-83.92451;789.4;NaN;;5.62;12.226105;241.0;12 / 19;180018;2022-10-26 12:38:08:235
2.3103;1.3813;13.9337;3.7246;2.3514;8.7618;-1.6927;-0.6072;4.036;1.251;-1.4411;0.3732;37675.0;12.69;-6.56;-40.56;264.14;-7.24;-15.01;5.0;983.27;52.632;35.956573;-83.924515;785.87;NaN;;5.26;12.226105;249.4;12 / 19;180518;2022-10-26 12:38:08:735
7.0026;2.9447;11.6761;3.2245;3.551;8.5536;0.1333;-0.9773;-3.8819;-0.9034;-0.6993;0.0253;37372.0;11.83;-12.45;-39.71;271.89;-21.23;-20.66;5.0;983.25;53.754;35.956573;-83.924515;785.87;NaN;;5.26;12.226105;249.4;12 / 19;181017;2022-10-26 12:38:09:234
3.7732;-0.128;13.8583;3.729;1.243;8.9844;0.0144;0.5574;2.2;-0.3213;0.5722;0.0614;39782.0;6.26;-4.61;-42.39;270.07;-8.18;-26.32;5.0;983.24;56.641;35.95657;-83.92453;785.07;NaN;;5.36;12.226105;250.6;12 / 19;181518;2022-10-26 12:38:09:735
4.6014;0.1172;12.0553;3.8153;2.3965;8.7104;0.6215;-1.1225;-1.916;-1.769;-1.8494;-0.0822;37068.0;12.53;-6.69;-40.89;295.69;-27.45;-13.66;5.0;983.22;56.841;35.95657;-83.92453;785.07;NaN;;5.36;12.226105;250.6;12 / 19;182018;2022-10-26 12:38:10:235
4.6971;-1.3202;14.738;4.284;0.3988;8.8124;0.9397;1.6957;3.8896;0.1251;0.2437;-0.1762;39597.0;6.3;-0.34;-42.75;273.47;-2.33;-25.93;5.0;983.25;56.915;35.95657;-83.92455;786.91;NaN;;5.26;12.226105;247.5;12 / 19;182519;2022-10-26 12:38:10:736
5.6333;0.9362;10.4336;3.7447;1.8542;8.8718;1.44;-0.1899;-1.8786;-1.3006;-0.9021;0.4235;41366.0;8.85;-5.72;-42.22;288.17;-19.54;-17.13;5.0;983.24;54.157;35.95657;-83.92455;786.91;NaN;;5.26;12.226105;247.5;12 / 19;183018;2022-10-26 12:38:11:235
4.727;0.2046;14.4293;4.1277;1.0143;8.8376;-1.4345;-0.2309;2.9182;0.2116;0.1028;0.0015;41314.0;6.98;-3.21;-42.47;269.67;-4.74;-26.56;5.0;983.26;55.009;35.95656;-83.92457;785.97;NaN;;5.26;12.226105;245.8;13 / 19;183518;2022-10-26 12:38:11:735
5.9195;2.2504;8.5349;3.7669;2.2053;8.7817;1.9251;0.0987;1.3921;-0.4411;-0.8519;-0.2334;41039.0;10.09;-5.66;-41.34;280.9;-16.54;-18.86;5.0;983.23;53.438;35.95656;-83.92457;785.97;NaN;;5.26;12.226105;245.8;13 / 19;184018;2022-10-26 12:38:12:235
2.5977;-0.3676;11.3312;3.7928;2.4846;8.6955;-1.3885;-0.7459;4.5375;0.3564;0.7915;0.2728;40630.0;5.14;-3.56;-42.97;284.45;-14.68;-23.57;5.0;983.27;59.563;35.956554;-83.92458;784.94;NaN;;5.4;12.226105;242.0;13 / 19;184518;2022-10-26 12:38:12:735
9.4819;3.8342;11.0142;4.4442;2.4234;8.3992;1.1828;0.1264;-0.7301;-1.0919;-1.2412;0.0528;39759.0;10.18;-9.47;-41.02;268.12;-14.31;-27.88;5.0;983.26;54.295;35.956554;-83.92458;784.94;NaN;;5.4;12.226105;242.0;13 / 19;185019;2022-10-26 12:38:13:236
3.7253;-3.3434;15.8716;3.3194;1.7611;9.0582;-1.3294;-4.6376;7.4205;0.5434;0.805;1.5076;39905.0;3.28;-3.28;-42.64;285.34;-13.25;-24.97;5.0;983.24;55.865;35.95655;-83.92459;779.12;NaN;;4.68;12.226105;248.5;13 / 19;185518;2022-10-26 12:38:13:735
8.517;1.6364;12.5414;3.5896;2.1445;8.8705;3.6149;1.0695;-0.0366;-0.2233;-0.2627;0.4418;38670.0;10.74;-7.13;-40.78;271.3;-12.63;-22.03;5.0;983.25;57.205;35.95655;-83.92459;779.12;NaN;;4.68;12.226105;248.5;13 / 19;186017;2022-10-26 12:38:14:234
6.0811;0.1998;14.7882;3.4916;1.4852;9.0429;1.034;-0.8179;5.7066;0.5288;0.4264;0.4597;38610.0;10.39;-7.37;-42.06;261.95;-5.5;-23.28;5.0;983.26;56.707;35.95655;-83.92461;778.89;NaN;;5.18;12.226105;239.6;13 / 19;186519;2022-10-26 12:38:14:736
5.4096;3.6882;10.4599;3.1116;4.0374;8.3778;0.6277;-0.2882;1.1637;0.5854;-0.7752;0.4778;30056.0;13.63;-19.95;-37.18;257.11;-24.31;-20.38;5.0;983.26;57.341;35.95655;-83.92461;778.89;NaN;;5.18;12.226105;239.6;13 / 19;187019;2022-10-26 12:38:15:236
2.3689;4.209;12.1466;2.239;3.8194;8.7504;-0.652;1.746;1.2326;-0.0714;0.7105;1.335;24253.0;9.38;-29.36;-32.4;231.62;-25.35;-17.03;5.0;983.24;59.548;35.956543;-83.92462;779.8;NaN;;5.08;12.226105;238.1;13 / 19;187518;2022-10-26 12:38:15:735
13.6295;-7.7641;3.5228;8.7576;-4.3976;0.3693;6.9448;-5.2459;3.6976;-2.6349;-0.565;1.9401;18876.0;-6.45;-29.06;-28.16;220.79;8.16;-78.22;5.0;983.27;54.398;35.956543;-83.92462;779.8;NaN;;5.08;12.226105;238.1;13 / 19;188018;2022-10-26 12:38:16:235
12.9209;-8.6845;2.8789;7.9267;-5.6848;-1.011;8.0873;0.1686;4.2754;-0.0264;0.3917;-1.5625;3934.0;-33.47;15.92;-20.03;259.45;35.43;-97.27;5.0;983.31;53.947;35.95654;-83.92463;781.14;NaN;;5.18;12.226105;248.6;13 / 19;188519;2022-10-26 12:38:16:736
12.0302;-5.4778;0.5124;9.7308;-1.2158;-0.0591;-2.1573;-4.7713;-0.8174;-1.6181;0.0841;2.4463;10353.0;-36.77;-12.47;-20.1;257.7;-11.39;-91.36;5.0;983.29;51.887;35.95654;-83.92463;781.14;NaN;;5.18;12.226105;248.6;13 / 19;189018;2022-10-26 12:38:17:235
17.2831;-1.9487;2.1799;8.19;-5.15;-1.6037;7.1199;6.5117;2.6359;-0.8097;0.7013;-0.5138;3568.0;-38.76;-0.13;-17.83;233.99;31.68;-101.08;5.0;983.31;52.346;35.95654;-83.924644;779.24;NaN;;5.58;12.977119;244.4;13 / 19;189518;2022-10-26 12:38:17:735
14.2101;-6.2701;-0.0203;9.7819;0.6508;-0.2475;-3.807;-6.5335;-1.0042;-1.2384;-0.3426;2.042;7052.0;-36.6;-0.36;-19.33;294.36;-10.84;-85.37;5.0;983.29;52.755;35.95654;-83.924644;779.24;NaN;;5.58;12.977119;244.4;13 / 19;190018;2022-10-26 12:38:18:235
16.0705;-6.92;3.1759;7.481;-6.1829;-1.4058;6.6013;8.0064;2.0531;0.6187;0.8282;-2.9669;3278.0;-37.39;-2.79;-16.61;225.32;39.09;-100.64;5.0;983.31;55.216;35.95653;-83.924675;780.06;NaN;;6.26;13.473382;235.8;14 / 19;190518;2022-10-26 12:38:18:735
15.0769;-4.0579;-0.504;9.7631;0.7223;0.5742;-5.6759;-7.4256;-1.9104;-2.0554;-0.0712;2.5097;6027.0;-36.11;-3.64;-17.51;299.69;-23.43;-90.8;5.0;983.33;56.206;35.95653;-83.924675;780.06;NaN;;6.26;13.473382;235.8;14 / 19;191019;2022-10-26 12:38:19:236
17.6264;-9.513;2.321;9.3632;-2.8904;-0.3827;9.7889;-2.708;3.2394;1.0131;1.1125;-3.4349;3004.0;-36.15;0.23;-18.08;235.88;41.07;-107.55;5.0;983.33;53.449;35.956524;-83.92469;780.38;NaN;;5.62;12.226105;236.5;14 / 19;191518;2022-10-26 12:38:19:735
14.1227;-3.9598;1.8254;9.5651;1.8402;-1.1367;-5.0066;-7.6875;-1.9643;-2.6325;-0.1981;2.2724;3617.0;-34.5;-7.73;-14.49;286.21;-25.29;-101.01;5.0;983.32;55.241;35.956524;-83.92469;780.38;NaN;;5.62;12.226105;236.5;14 / 19;192018;2022-10-26 12:38:20:235
14.2938;-6.2653;0.4884;9.3563;-2.7042;-1.1474;8.6123;0.342;5.2496;1.9656;2.1671;-1.8036;3499.0;-33.51;3.23;-14.23;255.69;24.75;-117.58;5.0;983.33;54.694;35.956516;-83.924706;798.07;NaN;;5.0;12.226105;236.6;13 / 19;192518;2022-10-26 12:38:20:735
10.6872;-4.101;-4.4626;9.6991;1.0749;-0.9705;-2.6812;-8.4532;-1.2965;0.0608;-0.8171;2.5715;2373.0;-31.95;-5.02;-17.34;308.96;-16.03;-96.37;5.0;983.34;55.518;35.956516;-83.924706;798.07;NaN;;5.0;12.226105;236.6;13 / 19;193018;2022-10-26 12:38:21:235
17.1287;-4.9499;2.1535;8.6094;-4.1126;-2.2661;7.3857;3.8117;4.0141;0.5652;1.0126;-2.0148;2758.0;-31.97;1.24;-14.34;246.02;38.35;-119.05;5.0;983.32;59.652;35.956505;-83.92471;794.46;NaN;;5.69;12.226105;226.9;13 / 19;193518;2022-10-26 12:38:21:735
11.4891;-5.1425;-3.7816;9.4098;-2.3174;-1.5018;-5.5066;-8.635;-1.0315;-0.7613;-0.215;3.2538;2391.0;-29.81;-8.83;-15.77;259.28;-10.62;-97.72;5.0;983.32;56.366;35.956505;-83.92471;794.46;NaN;;5.69;12.226105;226.9;13 / 19;194018;2022-10-26 12:38:22:235
17.0363;-5.522;0.376;8.3944;-4.4014;-2.5165;7.3369;3.752;4.4063;1.4366;0.4015;-1.9544;2474.0;-27.73;16.01;-10.42;281.39;26.67;-106.69;5.0;983.33;63.046;35.956497;-83.92472;790.29;NaN;;5.18;13.309619;225.0;13 / 19;194517;2022-10-26 12:38:22:734
11.0094;-3.9969;-0.9984;9.0186;-3.5665;-1.4547;2.3215;-3.1563;1.256;-1.3178;-0.2284;3.3364;1907.0;-33.68;-1.88;-15.96;272.15;-4.8;-95.28;5.0;983.32;61.087;35.956497;-83.92472;790.29;NaN;;5.18;13.309619;225.0;13 / 19;195018;2022-10-26 12:38:23:235
11.8926;-8.8881;1.1659;8.1714;-5.184;-1.5889;6.3977;1.5626;4.219;1.4973;0.1177;-2.2414;2386.0;-28.89;21.15;-12.36;282.97;31.91;-101.0;5.0;983.31;66.002;35.956486;-83.924736;790.58;NaN;;5.47;13.562996;216.0;13 / 19;195518;2022-10-26 12:38:23:735
9.8315;-5.3366;0.1268;8.1854;-5.3385;-0.8186;3.6549;-1.9575;0.6956;-1.291;-0.1122;3.6116;1733.0;-36.0;-5.21;-23.08;229.7;32.98;-95.71;5.0;983.33;60.353;35.956486;-83.924736;790.58;NaN;;5.47;13.562996;216.0;13 / 19;196018;2022-10-26 12:38:24:235
10.0265;-9.428;1.319;8.5256;-4.8269;0.4299;6.2177;-3.9694;3.2777;3.448;-0.062;-3.3516;2667.0;-24.22;27.38;-17.31;305.58;29.49;-87.11;5.0;983.24;71.12;35.95648;-83.92474;788.87;NaN;;5.04;14.101305;231.5;13 / 19;196518;2022-10-26 12:38:24:735
10.133;-4.66;0.5973;8.2088;-5.275;-0.9796;3.513;-0.4205;-1.5726;-1.9569;-0.037;2.7254;1775.0;-36.0;-3.38;-24.96;246.46;12.13;-88.93;5.0;983.31;61.132;35.95648;-83.92474;788.87;NaN;;5.04;14.101305;231.5;13 / 19;197018;2022-10-26 12:38:25:235
6.8901;-7.4348;0.2572;9.7758;0.6951;0.3464;-0.3952;-9.5051;-0.3325;2.047;0.3321;-3.6154;2356.0;-30.9;24.3;-15.49;299.99;23.75;-94.29;5.0;983.25;64.462;35.95647;-83.92476;789.81;NaN;;5.15;14.791416;234.3;14 / 19;197518;2022-10-26 12:38:25:735
10.9938;-3.2907;-1.4378;8.5548;-4.6181;-1.2878;2.104;5.0E-4;-1.9663;-0.6854;-0.1394;2.7677;2083.0;-40.37;-9.17;-17.44;221.9;28.09;-98.56;5.0;983.29;62.263;35.95647;-83.92476;789.81;NaN;;5.15;14.791416;234.3;14 / 19;198018;2022-10-26 12:38:26:235
7.223;-5.9961;-1.992;9.8041;0.1635;0.1556;-0.117;-7.4727;-0.5398;2.5643;0.3958;-3.1972;2346.0;-36.9;16.07;-12.77;323.25;-0.96;-89.09;5.0;983.25;66.481;35.95647;-83.924774;790.19;NaN;;5.87;15.149699;253.9;14 / 19;198518;2022-10-26 12:38:26:735
9.0437;-2.8944;-1.1695;8.9819;-3.6444;-1.488;3.2481;-0.405;-0.1798;-1.1841;-0.4432;2.8188;2279.0;-38.76;-11.59;-18.08;239.42;1.7;-96.26;5.0;983.3;50.013;35.95647;-83.924774;790.19;NaN;;5.87;15.149699;253.9;14 / 19;199018;2022-10-26 12:38:27:235
8.3782;-6.2342;-0.8584;9.8039;-0.2255;-0.0497;1.1354;-7.5851;-0.3074;3.2819;-0.1293;-3.2728;2759.0;-35.06;17.94;-11.94;277.13;25.44;-98.25;5.0;983.25;60.355;35.956467;-83.92479;792.21;NaN;;4.72;15.051943;250.2;14 / 19;199519;2022-10-26 12:38:27:736
11.4257;-3.0763;0.1998;7.5901;-5.6214;-2.6383;2.1085;2.2376;2.2248;-1.3475;-0.8023;2.7891;2754.0;-38.72;-12.3;-17.81;226.28;16.06;-97.0;5.0;983.31;51.662;35.956467;-83.92479;792.21;NaN;;4.72;15.051943;250.2;14 / 19;200018;2022-10-26 12:38:28:235
8.3578;-5.5639;-1.3633;9.8;0.1236;-0.3406;2.6215;-7.1324;-0.0154;2.9263;0.2589;-3.5192;3031.0;-34.95;11.79;-13.09;311.19;-0.72;-91.99;5.0;983.25;60.741;35.956463;-83.924805;791.84;NaN;;4.54;14.688533;254.5;14 / 19;200518;2022-10-26 12:38:28:735
11.1194;0.5554;-1.8541;8.3293;-4.9026;-1.6603;2.0212;4.8049;-0.2519;0.3254;-0.3771;2.7455;2171.0;-30.22;-20.76;-14.42;216.47;8.9;-98.91;5.0;983.32;52.641;35.956463;-83.924805;791.84;NaN;;4.54;14.688533;254.5;14 / 19;201019;2022-10-26 12:38:29:236
6.6114;-3.7756;-1.7967;9.6481;1.6872;0.4867;1.7755;-5.8996;0.1594;1.6265;1.1162;-2.6353;3538.0;-29.81;-0.94;-17.59;284.72;-9.91;-87.11;5.0;983.3;57.673;35.95646;-83.92483;792.38;NaN;;4.64;14.254612;246.2;14 / 19;201518;2022-10-26 12:38:29:735
10.5736;3.6488;2.6145;9.2532;-2.531;-2.0352;0.2843;4.0888;2.5213;-0.8701;-1.054;1.8242;4170.0;-34.2;-13.37;-19.41;232.18;14.96;-102.4;5.0;983.32;54.669;35.95646;-83.92483;792.38;NaN;;4.64;14.254612;246.2;14 / 19;202018;2022-10-26 12:38:30:235
7.873;-3.4822;-2.8035;9.6433;1.7304;-0.428;-0.561;-3.9397;-0.0936;0.5505;-0.2858;-0.892;4154.0;-39.13;-4.65;-15.17;276.27;-10.16;-92.54;5.0;983.26;58.112;35.956455;-83.92484;791.57;NaN;;4.79;13.767158;250.1;14 / 19;202519;2022-10-26 12:38:30:736
13.019;2.636;-0.6846;8.1237;-4.5293;-3.1083;2.4511;3.7283;2.0462;-0.8118;-0.9354;2.5052;4341.0;-38.81;-15.08;-16.28;226.79;10.82;-100.4;5.0;983.28;60.178;35.956455;-83.92484;791.57;NaN;;4.79;13.767158;250.1;14 / 19;203018;2022-10-26 12:38:31:235
7.1369;-4.6014;-2.758;9.3921;2.7985;0.3576;-1.9772;-7.0926;-3.0083;0.6764;0.1006;-1.165;5961.0;-38.96;6.94;-14.47;314.46;-7.95;-87.99;5.0;983.23;69.473;35.956448;-83.92486;790.71;NaN;;4.75;12.717815;240.8;14 / 19;203519;2022-10-26 12:38:31:736
14.7942;-1.4163;1.8829;7.7379;-4.9537;-3.4288;2.5158;2.9887;3.1817;-0.9286;-1.2972;2.5142;5500.0;-38.29;-3.45;-18.09;242.68;30.34;-113.9;5.0;983.29;61.66;35.956448;-83.92486;790.71;NaN;;4.75;12.717815;240.8;14 / 19;204018;2022-10-26 12:38:32:235
5.7446;-6.5743;-2.6216;9.6264;1.8004;-0.5119;-2.6847;-8.0752;-1.417;0.9962;-0.2705;-1.4987;6262.0;-35.46;7.65;-14.02;311.76;-10.58;-93.04;5.0;983.23;70.02;35.956444;-83.92487;790.12;NaN;;4.61;12.226105;247.9;15 / 19;204518;2022-10-26 12:38:32:735
13.6678;0.1711;-1.5311;6.2081;-6.6792;-3.6081;4.1288;3.0079;1.7747;-1.2995;1.5033;0.218;3610.0;-38.29;-3.13;-15.86;234.09;23.31;-100.46;5.0;983.32;57.707;35.956444;-83.92487;790.12;NaN;;4.61;12.226105;247.9;15 / 19;205018;2022-10-26 12:38:33:235
5.3509;-7.302;-1.5694;9.4224;2.3875;-1.2991;-3.4846;-8.1912;-1.0061;0.8024;-0.2461;-1.5409;6056.0;-35.78;7.22;-10.09;305.68;-3.7;-94.63;5.0;983.27;64.605;35.95644;-83.92489;790.31;NaN;;5.08;12.226105;246.9;15 / 19;205518;2022-10-26 12:38:33:735
16.9801;-2.0626;0.7217;7.2224;-5.7356;-3.3331;7.429;4.7304;3.6206;-1.0268;0.4077;0.5769;3478.0;-37.57;-0.28;-11.74;234.98;36.06;-112.51;5.0;983.29;61.672;35.95644;-83.92489;790.31;NaN;;5.08;12.226105;246.9;15 / 19;206018;2022-10-26 12:38:34:235
5.7852;-5.4993;-2.205;9.6496;1.6586;-0.5521;-3.3873;-6.8741;-1.5219;0.6225;-0.1164;-1.3998;7951.0;-37.22;4.03;-14.76;300.45;-9.74;-93.27;5.0;983.29;65.138;35.956432;-83.924904;790.79;NaN;;4.64;12.226105;249.0;15 / 19;206518;2022-10-26 12:38:34:735
12.9628;0.9517;-1.27;7.1439;-6.1469;-2.7111;5.353;7.6614;1.0517;-1.1343;0.7471;-0.0973;2803.0;-39.43;0.24;-15.41;230.96;43.76;-109.43;5.0;983.35;61.527;35.956432;-83.924904;790.79;NaN;;4.64;12.226105;249.0;15 / 19;207018;2022-10-26 12:38:35:235
5.0109;-5.9985;-2.5499;9.7192;1.2028;0.5117;-4.801;-5.6624;-2.2417;0.3747;0.9962;-0.4419;9215.0;-37.54;3.66;-15.6;301.97;-7.04;-86.99;5.0;983.32;63.583;35.95643;-83.92491;790.21;NaN;;4.54;12.226105;244.0;15 / 19;207517;2022-10-26 12:38:35:734
12.3835;0.3389;1.6878;5.7325;-6.9076;-3.9488;5.1735;7.0901;5.0664;-0.782;0.1902;0.5481;2990.0;-33.73;14.31;-14.04;262.26;44.78;-124.56;5.0;983.27;63.17;35.95643;-83.92491;790.21;NaN;;4.54;12.226105;244.0;15 / 19;208018;2022-10-26 12:38:36:235
3.9598;-5.9183;-1.6161;9.4997;2.3038;-0.7866;-3.298;-9.4594;-1.8146;-0.9002;-0.3434;1.0709;8315.0;-35.27;4.18;-13.09;306.75;-13.59;-94.73;5.0;983.29;70.331;35.956425;-83.92493;788.3;NaN;;4.75;12.226105;260.6;15 / 19;208518;2022-10-26 12:38:36:735
18.0;-1.3442;1.1264;6.8757;-6.4247;-2.7603;5.4138;7.2852;3.1364;0.3703;-0.7919;0.976;3557.0;-38.7;-1.2;-14.31;231.41;34.5;-106.79;5.0;983.31;54.471;35.956425;-83.92493;788.3;NaN;;4.75;12.226105;260.6;15 / 19;209017;2022-10-26 12:38:37:234
7.0878;-7.6923;-0.984;9.7824;0.0649;-0.6866;-4.1324;-6.1842;-0.5756;-0.3319;-0.036;0.9948;9780.0;-36.43;1.74;-16.69;291.76;-8.73;-92.22;5.0;983.33;63.588;35.95642;-83.92494;789.2;NaN;;5.0;12.226105;241.6;15 / 19;209519;2022-10-26 12:38:37:736
17.4027;-4.2497;1.7536;6.2491;-6.7899;-3.3191;6.1031;7.1961;2.8011;-0.6642;-0.345;0.9208;2722.0;-37.37;5.21;-14.36;244.04;43.82;-117.97;5.0;983.33;57.856;35.95642;-83.92494;789.2;NaN;;5.0;12.226105;241.6;15 / 19;210019;2022-10-26 12:38:38:236
6.7609;-6.0631;-2.4251;9.774;0.5527;-0.577;-4.3838;-5.8114;-0.7832;0.694;-0.3903;0.7409;10348.0;-36.77;-5.62;-18.09;258.86;-3.23;-93.38;5.0;983.35;65.157;35.956413;-83.92496;789.51;NaN;;4.82;12.226105;232.2;15 / 19;210518;2022-10-26 12:38:38:735
18.498;-3.772;-1.0774;7.5127;-5.9869;-1.9715;3.1598;6.9315;0.2008;-1.2045;1.4234;-2.2678;4271.0;-40.93;-9.45;-12.9;215.37;34.5;-100.84;5.0;983.42;55.792;35.956413;-83.92496;789.51;NaN;;4.82;12.226105;232.2;15 / 19;211018;2022-10-26 12:38:39:235
5.3136;-4.3155;-3.7265;9.7237;1.1533;-0.5385;-6.8659;-5.5587;-2.8112;-0.8821;-0.4048;1.23;8304.0;-37.28;-16.05;-12.9;248.56;-15.88;-90.84;5.0;983.42;63.351;35.9564;-83.924965;791.35;NaN;;4.79;12.226105;218.7;15 / 19;211519;2022-10-26 12:38:39:736
13.2622;-4.0496;5.2059;7.7924;-4.9146;-3.3608;5.6482;2.2765;8.0232;-0.3312;1.9715;-0.223;3843.0;-35.96;8.18;-10.12;258.45;33.76;-126.79;5.0;983.29;63.22;35.9564;-83.924965;791.35;NaN;;4.79;12.226105;218.7;15 / 19;212018;2022-10-26 12:38:40:235
6.4017;-7.0026;-3.0224;9.4259;2.6829;-0.3543;-4.3527;-7.9523;-2.6144;0.187;0.1381;-1.0771;9498.0;-34.99;-1.28;-15.49;297.4;-15.88;-92.15;5.0;983.35;62.527;35.95639;-83.92499;792.24;NaN;;4.54;12.226105;221.6;15 / 19;212518;2022-10-26 12:38:40:735
17.1081;-2.0889;2.5232;7.4843;-5.3719;-3.3612;6.7924;4.287;5.11;-1.0277;0.8645;0.015;3502.0;-37.31;-3.54;-14.77;237.32;38.03;-116.87;5.0;983.42;63.273;35.95639;-83.92499;792.24;NaN;;4.54;12.226105;221.6;15 / 19;213018;2022-10-26 12:38:41:235
7.7163;-8.3315;-3.7385;9.5117;2.3854;0.0897;-6.1964;-8.0272;-3.4651;-1.6108;-0.6251;2.5961;10059.0;-36.11;-0.53;-16.22;296.55;-14.08;-89.46;5.0;983.38;67.743;35.95638;-83.924995;793.0;NaN;;4.82;12.226105;227.2;15 / 19;213518;2022-10-26 12:38:41:735
21.833;-3.2106;1.0044;7.1412;-5.8108;-3.3777;6.7588;2.6839;5.8426;0.5546;3.0E-4;-0.1999;3362.0;-35.21;8.85;-13.03;252.93;36.34;-115.31;5.0;983.34;64.086;35.95638;-83.924995;793.0;NaN;;4.82;12.226105;227.2;15 / 19;214018;2022-10-26 12:38:42:235
10.5688;-7.4348;-0.1244;9.5027;2.0153;-1.3444;-6.1441;-10.1285;-1.4031;-1.7279;0.7228;3.6542;8500.0;-36.51;-9.15;-17.27;265.41;-11.86;-98.05;5.0;983.41;68.938;35.95637;-83.92501;791.67;NaN;;4.82;12.226105;230.0;15 / 19;214518;2022-10-26 12:38:42:735
14.7583;-10.8476;1.1121;9.0249;-3.8136;-0.4217;11.579;2.1179;-0.3193;-1.0512;2.7461;-2.9559;3038.0;-35.76;7.67;-14.72;245.75;43.11;-113.45;5.0;983.36;64.784;35.95637;-83.92501;791.67;NaN;;4.82;12.226105;230.0;15 / 19;215019;2022-10-26 12:38:43:236
12.2483;-5.2705;-2.3234;8.7439;-3.8465;-2.2179;3.8669;-1.8846;-0.0485;-1.6442;-0.9693;3.4278;11941.0;-36.07;-7.16;-23.01;256.41;-1.33;-94.4;5.0;983.4;68.662;35.956364;-83.92502;791.04;NaN;;4.75;12.226105;219.2;15 / 19;215518;2022-10-26 12:38:43:735
11.9441;-8.1111;-0.9075;9.5329;-2.2281;-0.5743;8.4226;-3.8627;1.9193;2.1596;1.9531;-2.9792;3412.0;-37.24;18.32;-10.24;307.23;13.13;-93.45;5.0;983.32;68.312;35.956364;-83.92502;791.04;NaN;;4.75;12.226105;219.2;15 / 19;216019;2022-10-26 12:38:44:236
12.3284;-1.986;0.0598;8.6592;-3.9243;-2.4059;2.2007;-0.2259;1.0394;-1.5556;-0.8671;3.2286;8928.0;-38.59;-11.91;-21.82;233.19;23.59;-105.53;5.0;983.46;61.682;35.956356;-83.92503;791.88;NaN;;5.26;12.226105;244.9;15 / 19;216519;2022-10-26 12:38:44:736
8.7194;-4.7354;-2.5618;9.697;-1.4607;-0.0664;5.8428;-3.716;1.084;1.6558;0.8902;-2.4516;4050.0;-39.0;16.26;-13.54;269.79;27.22;-111.13;5.0;983.32;67.042;35.956356;-83.92503;791.88;NaN;;5.26;12.226105;244.9;15 / 19;217018;2022-10-26 12:38:45:235
13.2921;-0.6176;-2.2504;8.4371;-4.2364;-2.6531;1.3454;0.7927;2.1903;-1.3973;-1.0129;2.8292;7425.0;-38.16;-5.27;-25.46;253.2;5.57;-94.67;5.0;983.42;60.434;35.956352;-83.92505;790.59;NaN;;4.97;12.226105;255.9;15 / 19;217519;2022-10-26 12:38:45:736
6.3251;-5.9925;-3.5599;9.7045;1.4071;0.1126;-0.9009;-7.3412;-2.2737;1.9469;0.7707;-2.5436;3617.0;-36.84;19.74;-12.21;310.84;10.24;-95.39;5.0;983.22;71.598;35.956352;-83.92505;790.59;NaN;;4.97;12.226105;255.9;15 / 19;218019;2022-10-26 12:38:46:236
12.2219;0.3269;0.5746;7.8261;-4.9992;-3.1513;2.1255;1.748;1.883;-1.6081;-0.8152;2.7416;4834.0;-38.34;1.89;-20.83;250.01;30.65;-111.93;5.0;983.34;63.194;35.95635;-83.925064;791.02;NaN;;5.04;12.226105;240.2;15 / 19;218518;2022-10-26 12:38:46:735
4.8266;-5.8427;-4.4435;9.594;1.9169;0.671;-1.9889;-7.6299;-3.7543;1.7557;0.4369;-2.0895;5025.0;-35.14;21.45;-13.24;325.77;4.61;-88.88;5.0;983.27;73.77;35.95635;-83.925064;791.02;NaN;;5.04;12.226105;240.2;15 / 19;219018;2022-10-26 12:38:47:235
13.8332;0.5495;3.274;7.1806;-5.6938;-3.4915;3.8686;2.207;3.1408;-0.1785;-0.2514;0.6266;4756.0;-36.75;4.18;-22.87;254.5;35.49;-115.93;5.0;983.3;65.757;35.956345;-83.92508;791.22;NaN;;5.51;12.226105;246.9;15 / 19;219517;2022-10-26 12:38:47:734
5.7218;-7.497;-2.2074;9.3049;2.9286;1.0061;-2.8651;-9.4688;-2.5115;1.9697;0.1742;-2.0198;6369.0;-31.29;13.99;-19.35;326.13;-17.38;-83.83;5.0;983.36;72.101;35.956345;-83.92508;791.22;NaN;;5.51;12.226105;246.9;15 / 19;220019;2022-10-26 12:38:48:236
14.8229;-0.5183;0.8453;7.5077;-6.0022;-1.9438;2.6349;3.7121;1.864;-0.9444;-0.1878;1.0423;3914.0;-34.69;-0.49;-22.91;240.99;37.74;-104.52;5.0;983.38;55.014;35.956337;-83.925095;790.95;NaN;;5.83;12.226105;259.7;15 / 19;220517;2022-10-26 12:38:48:734
7.1082;-7.6588;-1.6699;9.5914;2.0171;0.3276;-2.9783;-7.3814;-0.6901;1.3052;0.2433;-1.9416;4995.0;-33.51;14.27;-19.91;302.81;2.84;-88.39;5.0;983.43;64.001;35.956337;-83.925095;790.95;NaN;;5.83;12.226105;259.7;15 / 19;221018;2022-10-26 12:38:49:235
13.6199;1.1515;-0.2524;6.2757;-7.1579;-2.3558;6.709;7.4541;2.3062;-0.3086;-0.2104;1.3362;3486.0;-35.57;-0.83;-23.19;239.07;38.44;-104.69;5.0;983.4;65.858;35.956337;-83.92511;790.71;NaN;;5.22;12.226105;253.2;15 / 19;221518;2022-10-26 12:38:49:735
4.9391;-6.2282;-1.5957;9.5958;1.9963;-0.3262;-2.7867;-8.0655;-0.2362;1.3771;-0.3076;-2.1921;4021.0;-33.04;7.89;-21.0;303.08;-11.75;-91.95;5.0;983.42;67.918;35.956337;-83.92511;790.71;NaN;;5.22;12.226105;253.2;15 / 19;222018;2022-10-26 12:38:50:235
12.6888;-4.599;0.9458;8.6874;-4.3847;-1.2137;2.3391;4.9751;5.0132;-1.0604;1.32;0.2693;3442.0;-35.42;4.2;-20.81;247.5;26.56;-97.95;5.0;983.44;67.03;35.956337;-83.92511;790.71;NaN;;5.22;12.226105;253.2;15 / 19;222519;2022-10-26 12:38:50:736
8.7182;-4.9774;-1.908;9.668;-0.7183;1.4783;-4.1913;-2.2304;-2.4693;-0.4827;-0.181;0.3229;7019.0;-31.14;18.36;-23.92;309.04;4.2;-81.31;5.0;983.29;69.145;35.956337;-83.92511;790.71;NaN;;5.22;12.226105;253.2;15 / 19;223018;2022-10-26 12:38:51:235
16.5359;-4.6373;3.1819;7.6585;-5.6649;-2.3298;3.1601;4.3051;4.8175;-0.4295;-0.4817;1.0525;4793.0;-33.36;13.82;-25.54;267.98;29.0;-100.78;5.0;983.35;65.411;35.95633;-83.92514;791.0;NaN;;5.54;12.226105;264.4;0 / 19;223519;2022-10-26 12:38:51:736
6.1744;-5.5173;-2.0949;9.7848;-0.2167;0.6166;-2.8686;-7.4491;-2.0485;-0.6572;-0.3512;0.8818;5176.0;-33.17;9.86;-24.58;301.64;-5.21;-83.97;5.0;983.42;68.746;35.95633;-83.92514;791.0;NaN;;5.54;12.226105;264.4;0 / 19;224018;2022-10-26 12:38:52:235
16.0884;-2.6372;2.7066;8.1252;-5.1903;-1.7925;5.2289;4.0073;4.139;-0.6593;-0.1095;0.6479;3560.0;-35.18;12.9;-22.99;261.59;31.96;-102.44;5.0;983.34;59.863;35.956326;-83.92516;791.6;NaN;;5.44;12.226105;268.7;15 / 19;224518;2022-10-26 12:38:52:735
9.507;-5.7733;0.1842;9.7612;-0.9424;0.0191;-4.0737;-6.9747;-2.1968;-1.0972;-0.7536;1.8832;4662.0;-34.8;10.16;-23.98;306.08;-8.59;-85.4;5.0;983.42;70.723;35.956326;-83.92516;791.6;NaN;;5.44;12.226105;268.7;15 / 19;225019;2022-10-26 12:38:53:236
16.9346;-7.2864;1.7824;7.1373;-6.413;-2.0256;7.8205;6.2893;6.0408;1.8906;0.5669;-3.5228;2942.0;-31.69;19.54;-18.9;266.59;40.84;-105.84;5.0;983.35;67.696;35.956326;-83.92518;792.54;NaN;;4.97;12.226105;262.2;15 / 19;225517;2022-10-26 12:38:53:734
11.5624;-7.3786;0.3676;9.7423;-0.9652;-0.5716;-3.208;-7.2453;-0.2315;-1.3032;-0.398;2.6628;3461.0;-36.96;-1.84;-23.7;258.14;5.65;-93.36;5.0;983.48;61.845;35.956326;-83.92518;792.54;NaN;;4.97;12.226105;262.2;15 / 19;226018;2022-10-26 12:38:54:235
17.9378;-4.2003;1.2808;6.6908;-6.5297;-2.9609;6.7297;5.4404;3.1605;0.735;1.2859;-3.1688;2667.0;-31.61;21.73;-15.71;272.58;41.75;-113.87;5.0;983.42;64.778;35.95632;-83.92519;793.04;NaN;;5.29;12.226105;249.8;15 / 19;226519;2022-10-26 12:38:54:736
10.2766;-5.6249;-2.8561;9.7634;0.296;-0.8714;-3.2054;-7.0781;-2.9974;-1.1379;-0.1948;2.1251;3273.0;-35.57;0.38;-19.91;296.26;-17.93;-92.92;5.0;983.43;59.354;35.95632;-83.92519;793.04;NaN;;5.29;12.226105;249.8;15 / 19;227019;2022-10-26 12:38:55:236
16.6738;-6.4125;1.8984;9.4013;-2.7704;-0.3332;6.8929;-2.8359;2.4146;1.6667;1.2428;-3.036;2797.0;-33.79;16.07;-16.09;264.67;36.79;-111.71;5.0;983.37;61.364;35.95631;-83.92521;792.34;NaN;;5.18;12.226105;254.7;15 / 19;227518;2022-10-26 12:38:55:735
4.5751;2.1212;4.3502;3.7268;3.675;8.2931;1.303;-4.0104;-3.2576;1.2328;1.5117;0.9716;17805.0;-9.69;-6.47;-35.51;325.76;-22.01;-24.2;5.0;983.4;57.492;35.95631;-83.92521;792.34;NaN;;5.18;12.226105;254.7;15 / 19;228019;2022-10-26 12:38:56:236
3.9455;2.1392;8.2956;4.4084;2.5643;8.3762;-0.1825;1.7017;-0.136;-0.4944;-0.2653;0.8744;14864.0;8.19;-31.18;-32.19;223.1;-15.16;-27.76;5.0;983.42;58.431;35.956306;-83.925224;793.95;NaN;;5.54;12.226105;244.4;15 / 19;228518;2022-10-26 12:38:56:735
3.6473;2.8478;5.5543;5.1445;2.8843;7.8349;3.4986;-0.0474;1.1117;-0.2161;-0.604;-4.4896;12284.0;-3.11;-33.84;-30.69;210.74;-17.1;-33.29;5.0;983.41;62.935;35.956306;-83.925224;793.95;NaN;;5.54;12.226105;244.4;15 / 19;229018;2022-10-26 12:38:57:235
0.0586;5.2693;4.0041;0.238;7.1988;6.6551;0.0675;-0.4868;3.4008;1.0791;0.7037;-0.1909;13674.0;15.24;-19.89;-37.33;287.2;-39.33;-8.57;5.0;983.44;61.437;35.956303;-83.92524;792.41;NaN;;4.9;12.226105;263.5;14 / 19;229518;2022-10-26 12:38:57:735
-2.8896;6.7561;4.6816;0.3508;7.5991;6.1888;-1.0148;0.035;-3.042;-0.5616;-0.1966;-0.3399;9439.0;25.63;-23.92;-29.17;285.09;-54.31;-4.92;5.0;983.42;59.874;35.956303;-83.92524;792.41;NaN;;4.9;12.226105;263.5;14 / 19;230018;2022-10-26 12:38:58:235
0.9876;6.7454;3.8749;1.4878;7.5034;6.1364;-1.1189;-0.9439;2.1041;0.7592;0.098;0.8073;11257.0;22.37;-23.92;-31.18;277.22;-49.92;-13.63;5.0;983.43;61.905;35.9563;-83.925255;791.92;NaN;;4.9;12.226105;257.3;14 / 19;230519;2022-10-26 12:38:58:736
0.2934;6.0739;3.0308;1.3921;7.0674;6.6546;-0.13;-0.5982;-2.1842;-0.5898;-0.255;-0.4569;7670.0;20.89;-28.88;-27.88;266.26;-50.72;-15.49;5.0;983.38;62.046;35.9563;-83.925255;791.92;NaN;;4.9;12.226105;257.3;14 / 19;231018;2022-10-26 12:38:59:235
-0.4944;4.4961;5.8487;0.6013;7.1882;6.6436;0.9498;1.1766;1.7857;0.8731;0.5192;-0.3002;11152.0;21.45;-23.64;-31.88;283.35;-47.14;-5.17;5.0;983.41;63.979;35.9563;-83.92527;791.5;NaN;;6.26;12.226105;275.1;14 / 19;231518;2022-10-26 12:38:59:735
-2.3043;4.7545;4.8039;0.6695;5.4886;8.0992;0.4943;1.4555;-1.9221;-0.6919;0.6587;-0.9561;15760.0;23.18;-20.68;-33.11;269.87;-34.03;-4.73;5.0;983.4;63.461;35.9563;-83.92527;791.5;NaN;;6.26;12.226105;275.1;14 / 19;232018;2022-10-26 12:39:00:235
0.1735;4.6768;4.4758;-1.4357;5.1901;8.1959;0.3734;-0.7878;1.7416;0.6815;0.3786;0.6328;18707.0;29.89;-9.56;-33.81;296.83;-31.95;9.94;5.0;983.38;66.014;35.9563;-83.925285;792.64;NaN;;5.44;12.226105;266.8;14 / 19;232519;2022-10-26 12:39:00:736
-2.3079;4.2257;7.8096;0.3018;3.8926;8.996;-1.2249;1.0014;-2.0859;-0.9435;-0.4565;-1.0129;17172.0;31.61;-15.79;-30.75;271.78;-30.24;-2.62;5.0;983.43;66.133;35.9563;-83.925285;792.64;NaN;;5.44;12.226105;266.8;14 / 19;233018;2022-10-26 12:39:01:235
0.4238;3.821;4.9259;-1.9058;5.331;8.0074;1.7903;-2.106;-2.6614;0.5676;0.7129;0.4071;19162.0;29.04;-5.55;-35.87;301.0;-28.22;9.26;5.0;983.38;62.025;35.9563;-83.9253;792.92;NaN;;4.97;12.226105;270.1;14 / 19;233518;2022-10-26 12:39:01:735
-2.9698;4.282;9.7546;0.4468;3.3898;9.1913;-1.2791;1.2171;-1.9718;-0.5724;-0.4304;-0.658;19039.0;31.65;-9.67;-32.98;272.51;-20.22;-2.78;5.0;983.45;58.624;35.9563;-83.9253;792.92;NaN;;4.97;12.226105;270.1;14 / 19;234017;2022-10-26 12:39:02:234
0.431;3.0799;7.0232;-0.7065;4.6913;8.5827;1.7136;-1.0057;-2.6127;0.2723;-0.0848;-0.0197;19572.0;30.36;-3.6;-36.11;298.82;-28.58;4.71;5.0;983.4;62.469;35.956295;-83.92532;792.37;NaN;;5.33;12.226105;265.0;14 / 19;234519;2022-10-26 12:39:02:736
-2.016;1.9044;14.5597;0.9327;2.4311;9.4546;-2.3272;0.9155;-2.6233;-0.2611;0.7985;0.5806;22347.0;26.1;-3.0;-38.57;281.57;-14.35;-5.63;5.0;983.44;61.163;35.956295;-83.92532;792.37;NaN;;5.33;12.226105;265.0;14 / 19;235018;2022-10-26 12:39:03:235
0.3568;3.9467;7.8766;-1.5697;3.9659;8.8305;2.518;-0.8244;-4.2814;0.2117;0.3328;0.0945;21507.0;30.11;-1.93;-36.41;297.4;-20.46;9.47;5.0;983.41;64.152;35.956295;-83.92534;792.06;NaN;;5.26;12.226105;260.4;13 / 19;235518;2022-10-26 12:39:03:735
-3.5312;2.1631;13.3256;-0.7149;1.8186;9.61;-4.2068;-0.2087;2.933;0.2829;0.0192;0.4335;22086.0;31.35;-0.88;-35.51;280.22;-9.59;2.83;5.0;983.45;64.537;35.956295;-83.92534;792.06;NaN;;5.26;12.226105;260.4;13 / 19;236018;2022-10-26 12:39:04:235
1.579;4.6636;6.7848;-1.4897;4.3022;8.6858;1.9255;-1.3792;-2.9104;0.1644;-0.0928;0.2531;20340.0;33.32;-3.36;-33.47;297.49;-26.02;9.73;5.0;983.44;64.153;35.956295;-83.925354;793.14;NaN;;4.93;12.226105;257.4;14 / 19;236518;2022-10-26 12:39:04:735
-3.7816;-0.6751;15.478;-0.5564;1.3817;9.6929;-3.7682;0.4624;1.8139;-0.421;-0.0693;0.4891;22914.0;30.88;-1.26;-35.44;278.21;-8.29;2.49;5.0;983.44;61.837;35.956295;-83.925354;793.14;NaN;;4.93;12.226105;257.4;14 / 19;237018;2022-10-26 12:39:05:235
1.8326;3.0488;13.5972;-1.119;3.8888;8.9328;2.9579;-0.6562;-2.9113;-0.7662;-0.8776;-0.5217;20196.0;32.44;-3.13;-34.29;293.91;-23.36;7.14;5.0;983.41;62.706;35.95629;-83.92537;793.69;NaN;;4.68;12.226105;255.7;14 / 19;237518;2022-10-26 12:39:05:735
0.2106;1.7022;11.4832;-0.1564;2.522;9.4755;-1.112;-0.7535;6.0386;0.3268;0.8245;0.6935;23169.0;28.97;-0.81;-37.91;287.47;-14.9;0.95;5.0;983.43;64.795;35.95629;-83.92537;793.69;NaN;;4.68;12.226105;255.7;14 / 19;238018;2022-10-26 12:39:06:235
3.044;5.4814;9.2363;0.783;3.5143;9.1218;0.9629;0.12;3.9688;0.0609;-1.0434;-0.2242;19062.0;32.19;-11.79;-33.37;273.37;-22.88;0.43;5.0;983.46;65.533;35.956287;-83.925385;794.68;NaN;;4.97;12.226105;254.9;14 / 19;238518;2022-10-26 12:39:06:735
-0.2082;2.4503;11.1805;0.0629;2.6976;9.4281;-2.6168;0.0014;5.3843;0.2;0.1978;0.6465;21758.0;28.05;-6.07;-38.04;278.47;-15.27;-0.22;5.0;983.45;63.514;35.956287;-83.925385;794.68;NaN;;4.97;12.226105;254.9;14 / 19;239017;2022-10-26 12:39:07:234
2.837;4.9283;8.7829;1.2977;3.6999;8.9887;1.3629;0.7892;0.4397;-0.9061;-0.7098;-0.2556;18286.0;28.56;-11.47;-35.34;281.31;-29.01;-4.14;5.0;983.43;61.269;35.956284;-83.9254;796.18;NaN;;5.26;12.226105;256.2;14 / 19;239518;2022-10-26 12:39:07:735
0.4214;3.7289;11.7861;-0.2809;3.6129;9.1126;-2.1642;0.5547;3.7984;0.4025;0.1536;0.7939;19677.0;27.83;-9.0;-35.83;280.96;-21.62;1.77;5.0;983.41;60.253;35.956284;-83.9254;796.18;NaN;;5.26;12.226105;256.2;14 / 19;240019;2022-10-26 12:39:08:236
0.6272;4.6768;4.3238;0.9549;3.4083;9.1456;1.0031;1.6974;0.9079;-0.1609;-0.715;-0.4929;18238.0;28.8;-15.0;-33.21;263.45;-20.34;-5.96;5.0;983.41;61.109;35.95628;-83.92542;797.57;NaN;;5.26;12.226105;254.0;14 / 19;240517;2022-10-26 12:39:08:734
-0.4071;3.0835;4.6875;-0.7684;3.6612;9.0651;-1.9092;-0.7086;6.4923;1.0088;0.6404;0.7119;20605.0;26.1;-5.49;-38.49;294.44;-21.92;4.85;5.0;983.38;62.024;35.95628;-83.92542;797.57;NaN;;5.26;12.226105;254.0;14 / 19;241018;2022-10-26 12:39:09:235
-1.2568;3.6209;6.1528;0.1456;3.3877;9.2018;1.6467;1.1848;-0.3069;-0.7713;-0.2333;-0.6438;18337.0;30.43;-10.16;-34.33;280.54;-25.13;0.59;5.0;983.42;62.129;35.95628;-83.92544;799.18;NaN;;5.62;12.226105;257.5;14 / 19;241518;2022-10-26 12:39:09:735
-2.0686;2.7173;5.2872;-1.5357;4.3999;8.6286;0.3318;-1.4323;-2.2244;0.3586;0.9665;0.8983;20594.0;29.44;-2.21;-37.07;296.83;-21.26;6.1;5.0;983.38;66.585;35.95628;-83.92544;799.18;NaN;;5.62;12.226105;257.5;14 / 19;242019;2022-10-26 12:39:10:236
-0.5267;5.237;4.089;0.1225;3.656;9.0989;1.1649;0.629;-0.1804;-0.8136;-0.3996;-0.9386;17541.0;30.81;-14.06;-32.16;267.78;-21.89;-0.77;5.0;983.44;59.82;35.956272;-83.92545;799.51;NaN;;5.4;12.226105;255.2;13 / 19;242518;2022-10-26 12:39:10:735
-1.2652;3.2477;4.5858;-1.6901;3.5739;8.9745;0.874;-1.5275;-1.9157;0.4342;0.7391;0.3616;21249.0;29.78;-3.77;-37.05;289.28;-18.88;5.86;5.0;983.42;62.093;35.956272;-83.92545;799.51;NaN;;5.4;12.226105;255.2;13 / 19;243018;2022-10-26 12:39:11:235
0.6021;5.9842;5.1652;0.881;5.8406;7.8283;0.1028;0.1235;-2.7435;0.0575;0.5243;0.1155;18289.0;30.32;-12.73;-34.44;282.87;-36.55;-6.42;5.0;983.41;60.842;35.956272;-83.92547;799.28;NaN;;5.08;12.226105;256.9;13 / 18;243519;2022-10-26 12:39:11:736
