ACCELEROMETER X (m/s²);ACCELEROMETER Y (m/s²);ACCELEROMETER Z (m/s²);GRAVITY X (m/s²);GRAVITY Y (m/s²);GRAVITY Z (m/s²);LINEAR ACCELERATION X (m/s²);LINEAR ACCELERATION Y (m/s²);LINEAR ACCELERATION Z (m/s²);GYROSCOPE X (rad/s);GYROSCOPE Y (rad/s);GYROSCOPE Z (rad/s);LIGHT (lux);MAGNETIC FIELD X (μT);MAGNETIC FIELD Y (μT);MAGNETIC FIELD Z (μT);ORIENTATION Z (azimuth °);ORIENTATION X (pitch °);ORIENTATION Y (roll °);PROXIMITY (i);ATMOSPHERIC PRESSURE (hPa);SOUND LEVEL (dB);LOCATION Latitude : ;LOCATION Longitude : ;LOCATION Altitude ( m);LOCATION Altitude-google ( m);LOCATION Altitude-atmospheric pressure ( m);LOCATION Speed ( Kmh);LOCATION Accuracy ( m);LOCATION ORIENTATION (°);Satellites in range;Time since start in ms ;YYYY-MO-DD HH-MI-SS_SSS
-2.6384;-1.6603;7.6277;-2.593;0.2292;9.4549;1.312;-1.7989;1.9946;0.9914;0.9199;-0.5201;14695.0;-11.04;-14.89;-40.59;123.39;-1.34;15.34;5.0;982.43;56.557;35.9556;-83.929825;810.51;NaN;;3.56;12.948576;60.9;14 / 20;14;2022-10-26 13:30:03:893
-0.5231;3.4199;6.6174;-0.0545;2.5828;9.4603;0.0581;-1.7302;4.3607;0.2756;0.0777;0.0819;20005.0;-13.41;-10.39;-39.45;87.38;-15.27;0.33;5.0;982.34;59.236;35.9556;-83.929825;810.51;NaN;;3.56;12.948576;60.9;14 / 20;514;2022-10-26 13:30:04:393
5.6357;1.6364;4.3992;5.3826;3.3096;7.4996;0.3522;-0.8951;0.4559;-0.1958;-2.1325;0.634;17380.0;-25.48;-20.19;-30.09;153.62;-19.72;-35.67;5.0;982.39;55.396;35.955605;-83.92981;814.15;NaN;;5.47;12.587904;61.0;15 / 20;1014;2022-10-26 13:30:04:893
5.8223;-0.2862;1.0451;8.914;-4.0581;0.4935;0.1768;4.4302;1.106;-0.6991;0.6286;0.6694;2488.0;-39.62;-13.46;3.06;174.28;17.9;-90.76;5.0;982.38;58.457;35.955605;-83.92981;814.15;NaN;;5.47;12.587904;61.0;15 / 20;1515;2022-10-26 13:30:05:394
6.0308;-3.4427;-1.7309;9.6627;0.419;1.6208;2.4289;-6.8152;0.337;2.189;0.8952;-2.3159;2566.0;-35.36;-0.24;26.1;87.65;-2.45;-80.48;5.0;982.39;58.839;35.955627;-83.92979;815.3;NaN;;3.6;14.30738;74.3;15 / 20;2014;2022-10-26 13:30:05:893
8.9228;0.6488;-1.2269;8.5967;-4.2571;-2.0358;2.4866;4.0677;-0.0825;-0.7111;-0.4456;2.0255;2043.0;-36.69;-3.62;27.69;117.37;11.51;-97.28;5.0;982.43;58.158;35.955627;-83.92979;815.3;NaN;;3.6;14.30738;74.3;15 / 20;2514;2022-10-26 13:30:06:393
6.2007;-4.0795;-2.3378;9.6475;1.7339;0.2995;5.2079;-7.1482;0.0722;1.8561;-0.3428;-3.0403;1949.0;-29.32;5.98;35.25;73.19;-10.18;-88.22;5.0;982.42;58.435;35.955635;-83.92976;818.76;NaN;;4.43;14.931562;76.9;17 / 20;3015;2022-10-26 13:30:06:894
11.5983;0.8127;-2.272;8.6206;-3.7508;-2.7906;2.4468;4.4757;0.3285;-0.1565;-0.823;2.5871;2056.0;-35.38;-10.67;34.48;141.28;22.49;-107.94;5.0;982.45;63.629;35.955635;-83.92976;818.76;NaN;;4.43;14.931562;76.9;17 / 20;3515;2022-10-26 13:30:07:394
4.0747;-4.0735;-2.7257;9.385;2.2037;-1.799;3.5149;-7.3637;0.0106;0.9285;-0.8625;-3.2249;2042.0;-31.44;1.58;39.17;72.17;-12.99;-100.85;5.0;982.44;63.528;35.95564;-83.929726;824.57;NaN;;5.47;15.233458;80.5;17 / 20;4015;2022-10-26 13:30:07:894
13.6738;1.1791;-4.3071;7.1927;-5.7522;-3.3687;3.9037;3.8922;-1.0539;-0.5605;0.1957;4.0979;1986.0;-32.87;-6.64;39.04;116.92;8.61;-108.51;5.0;982.45;53.82;35.95564;-83.929726;824.57;NaN;;5.47;15.233458;80.5;17 / 20;4514;2022-10-26 13:30:08:393
5.4909;-5.9363;-2.9554;7.8586;5.7274;-1.2689;0.1319;-12.1984;-1.5313;1.6345;0.2691;-3.7566;2048.0;-28.57;7.2;39.23;71.36;-10.32;-93.62;5.0;982.42;64.382;35.955643;-83.92971;828.64;NaN;;5.47;13.939942;77.2;17 / 20;5014;2022-10-26 13:30:08:893
14.0127;3.9861;-0.5889;7.7743;-4.6634;-3.7396;8.9029;4.3683;0.7617;-1.7867;-0.6389;4.4141;1927.0;-35.74;-10.2;33.45;155.51;28.39;-115.69;5.0;982.46;54.021;35.955643;-83.92971;828.64;NaN;;5.47;13.939942;77.2;17 / 20;5515;2022-10-26 13:30:09:394
0.9063;-7.0579;-6.0942;7.5432;6.2507;0.4469;3.5455;-12.4242;-4.4312;2.6397;1.4582;-4.0795;2012.0;-29.96;4.59;38.33;76.49;-8.94;-87.93;5.0;982.4;63.67;35.955647;-83.929695;830.98;NaN;;4.93;13.000408;70.8;17 / 20;6014;2022-10-26 13:30:09:893
10.3699;4.8242;1.0606;8.6657;-3.1881;-3.3034;4.9232;3.8413;2.2838;-0.1694;-1.2717;1.3957;1870.0;-37.52;-20.12;26.85;160.8;18.97;-110.87;5.0;982.5;54.864;35.955647;-83.929695;830.98;NaN;;4.93;13.000408;70.8;17 / 20;6514;2022-10-26 13:30:10:393
0.0275;-4.6134;-5.406;7.7933;5.9477;0.2439;0.9568;-10.9711;-4.626;2.4383;1.3222;-3.2984;1855.0;-32.4;-6.51;34.29;89.95;-12.66;-88.81;5.0;982.41;62.136;35.955654;-83.92968;832.01;NaN;;5.11;12.544963;63.8;17 / 20;7015;2022-10-26 13:30:10:894
8.383;2.8777;2.5271;8.5469;-3.3083;-3.4894;0.357;5.8535;4.9508;-1.054;-0.3058;1.3575;1907.0;-34.91;-17.49;29.34;147.44;14.04;-107.6;5.0;982.48;57.929;35.955654;-83.92968;832.01;NaN;;5.11;12.544963;63.8;17 / 20;7515;2022-10-26 13:30:11:394
2.2265;-3.0212;-3.6727;8.6417;4.6247;-0.3227;-1.1625;-7.5916;-2.9505;2.6062;0.3818;-2.8656;2032.0;-34.76;-9.36;30.9;99.04;-6.45;-87.61;5.0;982.45;58.728;35.955666;-83.929665;830.11;NaN;;5.04;12.226105;59.2;17 / 20;8014;2022-10-26 13:30:11:893
10.9146;2.1559;2.2337;8.5451;-2.9202;-3.8242;1.1805;6.1537;4.1822;-1.5184;-0.4145;1.2435;2058.0;-33.75;-19.26;29.03;147.6;13.03;-107.23;5.0;982.49;58.334;35.955666;-83.929665;830.11;NaN;;5.04;12.226105;59.2;17 / 20;8515;2022-10-26 13:30:12:394
2.1344;-3.5264;-3.6523;8.379;5.0874;0.2857;-0.3339;-7.5313;-3.9729;0.0673;-0.6054;-0.5346;2294.0;-32.42;-16.18;28.09;85.25;-31.25;-88.05;5.0;982.46;61.959;35.955673;-83.92965;830.24;NaN;;5.11;12.226105;61.3;16 / 20;9015;2022-10-26 13:30:12:894
11.2128;4.1213;2.3868;8.0292;-3.3553;-4.5214;1.8694;8.8328;4.7278;-0.5976;-1.0804;1.1439;2366.0;-28.57;-19.87;29.83;159.86;20.01;-119.38;5.0;982.52;62.319;35.955673;-83.92965;830.24;NaN;;5.11;12.226105;61.3;16 / 20;9514;2022-10-26 13:30:13:393
1.9765;-4.3645;-3.8509;7.5606;6.2446;0.1132;1.1184;-10.0089;-3.2821;0.1434;-0.8617;-0.2075;2390.0;-29.91;-20.33;28.97;83.41;-39.55;-89.14;5.0;982.49;62.687;35.955677;-83.929634;829.19;NaN;;5.15;12.226105;65.6;17 / 20;10014;2022-10-26 13:30:13:893
20.2277;0.632;2.0471;8.4414;-2.7428;-4.1702;2.3751;6.787;4.4368;-1.1614;-0.7893;1.4876;2709.0;-29.87;-20.61;31.52;142.45;10.28;-108.01;5.0;982.55;58.389;35.955677;-83.929634;829.19;NaN;;5.15;12.226105;65.6;17 / 20;10514;2022-10-26 13:30:14:393
1.4378;-3.3793;-3.6811;8.0224;5.563;-0.9303;-6.2478;-8.6982;-2.7668;-0.3491;-0.7588;-0.252;2994.0;-33.19;-18.58;30.88;84.79;-33.39;-91.54;5.0;982.5;59.311;35.955685;-83.92962;828.76;NaN;;4.86;12.226105;70.7;17 / 20;11014;2022-10-26 13:30:14:893
10.4276;2.3557;1.2365;9.3716;-1.5846;-2.415;-0.273;6.9277;2.8107;-0.5901;-0.3623;0.7449;3553.0;-35.31;-18.04;31.52;137.79;9.3;-104.45;5.0;982.57;60.006;35.955685;-83.92962;828.76;NaN;;4.86;12.226105;70.7;17 / 20;11515;2022-10-26 13:30:15:394
8.1147;-3.7181;-1.6866;9.0557;3.7624;-0.0892;-4.3484;-5.8393;-1.9098;-0.4945;-0.4145;-0.4529;3697.0;-38.31;-14.06;29.48;89.25;-21.18;-88.5;5.0;982.53;58.74;35.95569;-83.9296;828.07;NaN;;4.97;12.226105;64.2;17 / 20;12014;2022-10-26 13:30:15:893
13.8284;-1.0499;0.3114;9.5114;-1.7208;-1.6562;-0.7395;5.2086;2.688;1.067;-0.5391;-0.5191;4496.0;-38.23;-15.79;27.77;137.72;10.11;-99.88;5.0;982.59;56.496;35.95569;-83.9296;828.07;NaN;;4.97;12.226105;64.2;17 / 20;12514;2022-10-26 13:30:16:393
10.133;-2.6492;-1.3573;9.2041;3.3697;-0.315;-3.5948;-4.6282;-1.217;8.0E-4;-0.0609;-0.8749;3678.0;-36.6;-10.56;30.02;92.23;-14.63;-91.2;5.0;982.57;62.035;35.955696;-83.92958;825.75;NaN;;4.46;12.226105;59.3;17 / 20;13014;2022-10-26 13:30:16:893
18.2767;-2.4383;-0.9721;9.6244;-0.822;-1.6926;-0.6125;3.1033;3.4182;1.5625;-0.1526;-0.1713;3968.0;-36.24;-11.1;30.13;121.11;5.06;-98.95;5.0;982.56;57.99;35.955696;-83.92958;825.75;NaN;;4.46;12.226105;59.3;17 / 20;13514;2022-10-26 13:30:17:393
9.0987;-1.0271;0.4896;9.6441;1.5895;-0.7968;-3.8455;-3.4186;-0.7962;0.2708;-0.5049;0.0282;3169.0;-36.82;-3.54;29.01;84.61;-10.11;-91.21;5.0;982.56;59.572;35.9557;-83.92957;824.0;NaN;;4.32;12.226105;55.6;17 / 20;14015;2022-10-26 13:30:17:894
8.4679;0.9912;-0.7696;9.4912;-1.8656;-1.6145;-0.9057;2.9407;0.6033;0.9666;-0.2965;-0.0212;2866.0;-35.72;4.05;28.61;98.24;10.49;-98.79;5.0;982.6;58.959;35.9557;-83.92957;824.0;NaN;;4.32;12.226105;55.6;17 / 20;14514;2022-10-26 13:30:18:393
5.3749;-1.3525;-2.4395;9.5943;1.9974;-0.3606;-2.0917;-3.6959;-1.9338;-0.3156;-0.424;0.0295;2176.0;-36.45;12.02;22.09;46.99;-11.75;-92.15;5.0;982.55;65.663;35.955708;-83.929565;825.72;NaN;;4.79;12.226105;27.5;17 / 20;15014;2022-10-26 13:30:18:893
9.5261;0.565;-0.9051;8.9764;-3.3554;-2.0824;-0.3751;3.8777;0.7998;-0.1823;-0.4174;1.2268;2306.0;-37.01;13.01;21.99;97.92;20.01;-103.06;5.0;982.58;58.834;35.955708;-83.929565;825.72;NaN;;4.79;12.226105;27.5;17 / 20;15514;2022-10-26 13:30:19:393
7.2996;-1.8876;-2.3833;9.7631;0.9219;0.0453;2.8235;-3.9496;-0.3544;0.6935;0.0204;-1.3427;2381.0;-30.11;20.38;25.26;47.89;-5.39;-89.73;5.0;982.56;68.947;35.95572;-83.929565;824.63;NaN;;4.61;12.226105;11.7;17 / 20;16014;2022-10-26 13:30:19:893
7.9017;1.9104;-0.2886;9.003;-3.2601;-2.1186;0.0412;2.7826;0.9171;-0.5015;-0.2036;1.4736;2262.0;-39.96;6.53;22.24;88.89;8.86;-99.01;5.0;982.58;63.074;35.95572;-83.929565;824.63;NaN;;4.61;12.226105;11.7;17 / 20;16514;2022-10-26 13:30:20:393
6.6401;-3.6727;-2.8537;8.9524;4.0021;-0.0867;0.508;-8.2326;-0.7249;2.5275;0.6652;-3.4839;2791.0;-26.92;18.11;30.34;59.13;1.41;-92.19;5.0;982.56;66.674;35.95573;-83.92956;824.68;NaN;;4.21;12.226105;7.1;18 / 20;17014;2022-10-26 13:30:20:893
11.8208;2.703;-2.2289;8.9177;-3.4347;-2.2016;3.4397;2.3212;-0.1471;0.6977;-1.0747;3.3155;2065.0;-39.81;3.75;22.29;134.83;20.5;-103.87;5.0;982.6;63.515;35.95573;-83.92956;824.68;NaN;;4.21;12.226105;7.1;18 / 20;17514;2022-10-26 13:30:21:393
6.4654;-4.477;-2.5774;8.5044;4.8364;0.6743;0.9143;-9.4318;-3.0401;1.9487;1.1362;-3.1599;2709.0;-26.94;22.01;28.07;49.81;-5.79;-87.82;5.0;982.59;68.192;35.955746;-83.92956;826.33;NaN;;4.57;12.226105;2.9;18 / 20;18014;2022-10-26 13:30:21:893
11.2594;3.3194;-1.6639;8.8877;-3.4731;-2.2619;4.8523;3.9915;1.4267;0.4084;-0.4145;0.6419;2217.0;-42.92;1.33;18.3;156.05;20.74;-104.28;5.0;982.61;62.626;35.955746;-83.92956;826.33;NaN;;4.57;12.226105;2.9;18 / 20;18515;2022-10-26 13:30:22:394
6.4232;-2.1452;-4.2401;9.4725;2.4867;0.5092;-0.0584;-6.725;-5.1347;1.3581;0.2006;-2.1555;2314.0;-33.0;20.42;21.86;50.48;0.16;-86.2;5.0;982.58;65.332;35.955757;-83.92956;827.54;NaN;;4.61;12.226105;345.5;18 / 20;19015;2022-10-26 13:30:22:894
8.2717;4.6373;0.0574;9.7806;-0.3244;-0.6362;-1.9276;4.7981;-0.1152;-1.5735;0.1471;0.8401;3088.0;-43.54;-4.97;24.56;97.15;-2.83;-94.04;5.0;982.63;58.523;35.955757;-83.92956;827.54;NaN;;4.61;12.226105;345.5;18 / 20;19515;2022-10-26 13:30:23:394
7.7474;-0.2381;-0.1627;9.7204;1.2969;0.0535;5.2738;-0.3451;-1.2146;-0.7003;0.278;-1.1259;3518.0;-41.89;-6.41;28.97;102.72;0.51;-91.02;5.0;982.6;56.597;35.95577;-83.929565;826.74;NaN;;4.25;12.226105;351.6;18 / 20;20016;2022-10-26 13:30:23:895
9.2172;-0.5686;-0.3879;9.5569;-1.3452;-1.7399;4.3464;0.7091;1.1792;-1.1691;-0.7043;0.9922;2944.0;-41.59;-14.83;27.15;123.44;-0.29;-96.11;5.0;982.63;55.566;35.95577;-83.929565;826.74;NaN;;4.25;12.226105;351.6;18 / 20;20516;2022-10-26 13:30:24:395
11.0393;-2.8143;-0.9697;9.4687;-1.9528;-1.6432;5.1201;3.1175;-0.602;-0.2351;1.1742;-2.417;4925.0;-40.71;-13.69;28.39;137.83;11.49;-99.84;5.0;982.64;58.767;35.955776;-83.92956;823.56;NaN;;4.79;12.226105;29.1;18 / 20;21015;2022-10-26 13:30:24:894
9.9966;-1.0893;-1.7333;9.6535;-0.604;-1.6171;4.122;-1.0562;-0.918;-0.9462;-0.7753;1.3278;4750.0;-35.98;-31.26;17.33;162.0;3.53;-99.51;5.0;982.63;61.381;35.955776;-83.92956;823.56;NaN;;4.79;12.226105;29.1;18 / 20;21516;2022-10-26 13:30:25:395
10.485;-2.2146;-1.6005;9.3036;-2.4577;-1.8903;6.172;2.0482;1.0392;1.2979;0.5856;-2.2037;5007.0;-41.98;-20.49;12.66;171.79;14.51;-101.48;5.0;982.68;59.056;35.955784;-83.92955;824.96;NaN;;4.64;12.226105;52.4;18 / 20;22014;2022-10-26 13:30:25:893
9.8614;0.0826;-2.2086;9.6525;0.6023;-1.6238;0.3035;-2.3286;-0.798;-0.4768;-0.5411;1.5525;5584.0;-37.31;-32.62;12.96;156.62;-14.9;-95.25;5.0;982.64;59.139;35.955784;-83.92955;824.96;NaN;;4.64;12.226105;52.4;18 / 20;22514;2022-10-26 13:30:26:393
14.3097;-0.3138;-1.9753;9.4771;-1.7419;-1.8224;3.0552;4.5735;0.1107;0.4068;0.1555;-0.7472;5132.0;-41.87;-27.24;14.04;175.09;16.66;-104.15;5.0;982.63;59.353;35.955784;-83.929535;826.57;NaN;;6.01;12.226105;108.1;17 / 20;23014;2022-10-26 13:30:26:893
8.8152;-2.4622;-2.1272;9.4887;2.1528;-1.2248;-1.3278;-4.9474;-0.9821;-0.7088;-0.3145;0.2622;6394.0;-36.99;-33.19;5.87;177.1;-12.68;-97.36;5.0;982.59;56.979;35.955784;-83.929535;826.57;NaN;;6.01;12.226105;108.1;17 / 20;23514;2022-10-26 13:30:27:393
13.6881;-0.7851;-0.8883;9.2283;-2.4623;-2.2238;5.579;3.0386;1.1634;-0.4622;0.9027;-0.5876;5792.0;-42.34;-26.03;5.36;193.14;21.22;-109.28;5.0;982.62;56.6;35.955772;-83.92952;828.08;NaN;;5.0;12.226105;149.7;17 / 20;24014;2022-10-26 13:30:27:893
8.1544;-2.9363;-3.28;9.1101;3.6008;-0.4584;-3.5154;-5.7667;-1.7792;-0.6458;-0.8049;2.1723;8101.0;-38.81;-29.7;1.74;179.84;-21.54;-92.88;5.0;982.59;61.09;35.955772;-83.92952;828.08;NaN;;5.0;12.226105;149.7;17 / 20;24514;2022-10-26 13:30:28:393
12.2686;-0.7887;0.0323;8.6731;-3.2654;-3.207;2.0641;5.9329;2.4788;0.3181;-0.1671;0.1025;6573.0;-42.11;-25.28;4.73;195.38;19.58;-110.83;5.0;982.61;61.74;35.95576;-83.92952;826.06;NaN;;4.32;12.226105;172.5;17 / 20;25014;2022-10-26 13:30:28:893
4.7306;-2.831;-2.4957;8.3478;5.0489;-0.9964;-1.9118;-7.614;-2.5289;0.0515;0.0308;-1.0157;7777.0;-36.47;-31.72;6.11;166.99;-25.69;-94.72;5.0;982.56;61.717;35.95576;-83.92952;826.06;NaN;;4.32;12.226105;172.5;17 / 20;25515;2022-10-26 13:30:29:394
13.1255;2.4933;2.3067;9.3489;-1.216;-2.7;-0.2718;1.2252;3.6914;-2.3064;-0.6212;1.812;7374.0;-27.6;-40.8;8.23;176.16;-3.45;-100.76;5.0;982.57;62.819;35.95575;-83.92952;826.5;NaN;;4.32;12.226105;168.2;17 / 20;26015;2022-10-26 13:30:29:894
7.2852;-3.4116;-2.8813;8.8345;3.9896;-1.4849;0.7606;-7.5271;-2.0654;1.221;0.031;-2.1442;7530.0;-41.91;-24.75;1.89;192.14;-10.7;-97.65;5.0;982.57;59.209;35.95575;-83.92952;826.5;NaN;;4.32;12.226105;168.2;17 / 20;26514;2022-10-26 13:30:30:393
9.3646;2.5798;5.0121;9.5378;-1.1676;-1.9592;2.5629;4.1225;-0.5496;-0.5719;-0.0139;0.6893;7459.0;-30.3;-38.85;3.49;184.19;6.84;-101.61;5.0;982.58;56.799;35.955734;-83.92952;823.58;NaN;;4.07;12.226105;177.3;17 / 20;27014;2022-10-26 13:30:30:893
6.7896;-3.0547;-4.1046;9.0084;3.8753;-0.0132;-2.5468;-6.3337;-3.62;1.1688;-0.2161;-1.037;10972.0;-30.45;-29.53;-5.72;201.05;-23.28;-90.08;5.0;982.57;56.203;35.955734;-83.92952;823.58;NaN;;4.07;12.226105;177.3;17 / 20;27515;2022-10-26 13:30:31:394
14.0833;0.8692;-0.9254;7.9884;-4.1752;-3.8631;2.8731;4.2324;2.6968;-4.8573;1.9704;1.1061;7567.0;-33.9;-19.69;8.57;191.55;25.2;-115.81;5.0;982.59;56.216;35.955727;-83.92952;822.12;NaN;;4.0;12.226105;164.8;17 / 20;28014;2022-10-26 13:30:31:893
6.428;-4.2975;-3.1029;8.5221;4.8315;0.4487;-0.3476;-9.4434;-3.6217;1.5502;-0.0363;-1.6328;11595.0;-39.02;-22.65;1.39;148.49;-18.09;-82.52;5.0;982.56;56.386;35.955727;-83.92952;822.12;NaN;;4.0;12.226105;164.8;17 / 20;28514;2022-10-26 13:30:32:393
17.1203;2.4;1.3669;8.2348;-3.9461;-3.5758;8.9069;5.1748;3.6223;-1.4072;0.5682;0.5035;7479.0;-38.62;-31.11;1.33;199.34;27.68;-114.84;5.0;982.58;60.03;35.95572;-83.92951;823.34;NaN;;4.03;12.226105;169.4;17 / 20;29015;2022-10-26 13:30:32:894
6.5982;-5.6237;-3.0511;8.9602;3.9096;-0.7742;-2.4234;-8.6624;-2.4661;0.537;-0.1572;-0.9998;7640.0;-34.28;-27.07;0.56;189.76;-23.5;-94.94;5.0;982.55;53.43;35.95572;-83.92951;823.34;NaN;;4.03;12.226105;169.4;17 / 20;29515;2022-10-26 13:30:33:394
15.0218;-3.0835;1.8553;8.5561;-3.7056;-3.0383;9.201;4.7022;2.8244;-1.723;1.3697;-0.5039;5571.0;-32.18;-24.43;8.83;189.46;31.75;-116.57;5.0;982.58;58.238;35.955708;-83.92951;822.39;NaN;;3.85;12.226105;169.0;17 / 20;30014;2022-10-26 13:30:33:893
11.5923;-2.1835;-4.0842;9.2787;3.1119;-0.6257;-2.3387;-7.8103;-1.3481;0.5196;-0.4805;2.2901;7589.0;-37.22;-25.89;11.25;146.27;-18.5;-93.86;5.0;982.55;64.449;35.955708;-83.92951;822.39;NaN;;3.85;12.226105;169.0;17 / 20;30514;2022-10-26 13:30:34:393
14.7452;-3.6559;-0.7014;9.2769;-2.3807;-2.1078;6.0654;4.0722;2.2511;-0.4914;1.3322;-1.5928;4440.0;-40.52;-20.18;14.83;169.5;14.05;-102.8;5.0;982.58;61.705;35.9557;-83.92951;823.21;NaN;;4.18;12.226105;145.1;17 / 20;31014;2022-10-26 13:30:34:893
11.4293;-2.6731;-5.6417;9.4881;-1.4289;-2.026;3.4081;-1.029;-2.3813;0.8301;-1.7197;2.1414;7862.0;-33.9;-32.59;8.7;165.26;-10.34;-93.49;5.0;982.55;61.482;35.9557;-83.92951;823.21;NaN;;4.18;12.226105;145.1;17 / 20;31514;2022-10-26 13:30:35:393
18.8369;-3.1926;-1.2437;8.8219;-3.1764;-2.8731;4.8447;3.8008;3.4276;0.172;0.7229;-0.9703;4516.0;-39.73;-18.34;12.99;188.88;29.76;-115.75;5.0;982.59;60.369;35.955692;-83.929504;820.76;NaN;;4.07;12.226105;147.4;17 / 20;32014;2022-10-26 13:30:35:893
9.1023;-4.1393;-1.902;9.5433;-1.1217;-1.9591;1.3075;-2.8928;-0.6485;-0.4985;-0.8912;3.2197;7769.0;-33.81;-30.99;9.15;163.25;-17.6;-95.44;5.0;982.55;60.861;35.955692;-83.929504;820.76;NaN;;4.07;12.226105;147.4;17 / 20;32514;2022-10-26 13:30:36:393
10.5018;-3.8222;-1.7166;9.2775;-2.3924;-2.0914;4.4818;2.9477;3.2199;1.6457;1.6573;-3.1911;5474.0;-42.04;-14.49;14.03;169.7;14.12;-102.7;5.0;982.57;61.194;35.955685;-83.9295;820.06;NaN;;3.89;12.226105;144.8;17 / 20;33014;2022-10-26 13:30:36:893
9.8121;-1.1623;-1.5981;9.5025;-1.3893;-1.9857;3.4958;-2.2216;-0.6428;-0.9771;-0.7875;2.5869;8162.0;-35.12;-33.21;8.87;177.5;8.14;-101.8;5.0;982.55;62.852;35.955685;-83.9295;820.06;NaN;;3.89;12.226105;144.8;17 / 20;33516;2022-10-26 13:30:37:395
12.6398;-5.9315;-2.4503;9.0211;-2.8454;-2.5873;6.3628;3.5432;5.3968;2.4705;0.8533;-3.6188;5568.0;-42.17;-12.99;13.14;177.92;16.87;-106.0;5.0;982.57;58.634;35.955673;-83.92949;820.01;NaN;;4.82;12.226105;156.8;17 / 20;34014;2022-10-26 13:30:37:893
10.2933;-1.2485;-1.6783;9.2643;-2.304;-2.2437;2.1408;-1.6804;-0.631;-0.9073;-0.689;3.1337;6611.0;-36.43;-31.42;14.01;161.33;-9.12;-98.81;5.0;982.58;56.677;35.955673;-83.92949;820.01;NaN;;4.82;12.226105;156.8;17 / 20;34514;2022-10-26 13:30:38:393
15.5402;-4.8027;1.0104;8.6379;3.8606;2.5795;6.5441;-9.0195;-1.3656;2.0641;2.8869;-4.4427;4227.0;-42.62;-11.64;16.37;155.68;5.97;-100.98;5.0;982.59;56.83;35.955666;-83.92949;818.79;NaN;;4.1;12.226105;155.1;17 / 20;35015;2022-10-26 13:30:38:894
0.3329;5.656;5.0922;1.4792;5.4285;8.0321;1.3718;-0.6631;-2.5843;0.3681;0.4005;0.1768;13650.0;-15.45;-43.44;-20.14;154.58;-33.61;-10.43;5.0;982.52;59.59;35.955666;-83.92949;818.79;NaN;;4.1;12.226105;155.1;17 / 20;35515;2022-10-26 13:30:39:394
2.4837;2.4849;1.6424;4.5631;5.6837;6.5608;-2.934;-2.082;-2.2248;1.0593;-2.4877;0.6796;13566.0;-8.25;-47.34;-28.88;204.57;-35.42;-34.82;5.0;982.53;55.663;35.95565;-83.92948;820.78;NaN;;4.39;12.226105;149.1;17 / 20;36015;2022-10-26 13:30:39:894
11.5038;-1.0666;2.345;9.3055;-2.9696;-0.8716;4.4598;-1.0068;4.0759;-1.1673;-1.3069;1.2913;8191.0;-45.73;-37.35;-15.21;201.54;17.63;-95.35;5.0;982.58;54.743;35.95565;-83.92948;820.78;NaN;;4.39;12.226105;149.1;17 / 20;36514;2022-10-26 13:30:40:393
8.3925;-3.28;-3.0368;9.781;0.6649;0.2442;0.9542;-4.9897;-0.4395;3.5088;0.2718;-2.5635;7505.0;-76.29;-2.85;1.97;61.06;-3.89;-88.57;5.0;982.56;54.495;35.95564;-83.929474;822.03;NaN;;4.03;12.226105;163.8;18 / 20;37015;2022-10-26 13:30:40:894
10.7937;-1.7716;0.4262;8.6276;-3.7534;-2.7652;0.5578;2.2463;2.1992;-1.4433;-0.5525;1.9394;7011.0;-53.81;-52.99;4.8;184.11;10.11;-99.98;5.0;982.6;55.297;35.95564;-83.929474;822.03;NaN;;4.03;12.226105;163.8;18 / 20;37516;2022-10-26 13:30:41:395
8.869;-4.0627;-2.6659;9.7793;0.1809;-0.7093;1.0435;-3.3722;0.0437;2.5319;0.3615;-2.8412;5488.0;-60.11;-32.42;5.08;187.91;18.29;-101.28;5.0;982.55;63.488;35.95563;-83.929474;820.64;NaN;;4.18;12.226105;148.1;18 / 20;38015;2022-10-26 13:30:41:894
13.5853;0.6141;-4.526;7.962;-5.0151;-2.7613;2.2086;3.6392;0.0868;-0.4167;-0.5902;3.0111;6309.0;-30.53;-41.16;10.22;174.34;11.57;-99.73;5.0;982.57;53.232;35.95563;-83.929474;820.64;NaN;;4.18;12.226105;148.1;18 / 20;38514;2022-10-26 13:30:42:393
6.7442;-3.6126;-3.8856;9.6616;1.485;-0.7866;0.4083;-5.9991;-1.124;0.1915;-0.4029;-1.61;5702.0;-41.02;-20.98;7.07;165.86;-8.71;-94.65;5.0;982.53;60.724;35.95562;-83.92947;819.62;NaN;;4.14;12.226105;159.6;18 / 20;39014;2022-10-26 13:30:42:893
12.2602;0.4585;-0.6715;7.7752;-5.0514;-3.1938;3.2914;4.0932;2.2873;-0.5369;-0.9771;2.5381;5908.0;-37.16;-34.29;9.69;185.64;31.0;-112.33;5.0;982.57;56.018;35.95562;-83.92947;819.62;NaN;;4.14;12.226105;159.6;18 / 20;39514;2022-10-26 13:30:43:393
6.0595;-4.5452;-2.2887;9.3898;2.7951;-0.4351;-0.6047;-7.0668;-1.5328;-0.1894;0.0657;-1.0397;7147.0;-38.55;-30.28;6.6;163.54;-16.56;-92.65;5.0;982.58;64.863;35.95561;-83.92947;817.63;NaN;;4.07;12.226105;160.6;18 / 20;40014;2022-10-26 13:30:43:893
12.393;2.0662;0.1579;7.4667;-5.0856;-3.8151;4.8445;4.695;3.6122;-0.7626;-1.0338;2.049;4965.0;-33.77;-37.18;10.93;177.89;19.77;-105.16;5.0;982.61;55.247;35.95561;-83.92947;817.63;NaN;;4.07;12.226105;160.6;18 / 20;40514;2022-10-26 13:30:44:393
3.839;-4.7127;-3.3266;8.7137;4.147;-1.7447;-3.9512;-8.7516;-1.3323;1.1876;-0.4818;-1.2856;6551.0;-38.64;-27.22;8.63;152.98;-18.64;-93.48;5.0;982.56;63.88;35.9556;-83.92946;818.15;NaN;;4.07;12.226105;160.8;18 / 20;41014;2022-10-26 13:30:44:893
13.0214;1.4809;0.3233;7.5276;-4.9716;-3.8455;5.1331;4.2342;2.8161;-1.4522;-0.5393;2.4991;3893.0;-32.03;-31.29;15.24;181.54;30.46;-117.06;5.0;982.61;54.804;35.9556;-83.92946;818.15;NaN;;4.07;12.226105;160.8;18 / 20;41514;2022-10-26 13:30:45:393
8.0429;-3.2967;-2.6216;9.2013;3.085;-1.4108;-1.61;-7.8089;-1.2509;0.4584;-0.2623;-1.4935;5972.0;-33.09;-29.53;7.2;173.88;-18.34;-98.72;5.0;982.59;61.276;35.95559;-83.92946;819.28;NaN;;3.96;12.226105;166.8;18 / 20;42014;2022-10-26 13:30:45:893
18.122;0.1424;0.6176;7.9078;-3.3947;-4.7025;2.2616;5.2477;1.3879;-1.8014;1.0345;0.4333;3023.0;-25.8;-33.43;15.64;179.36;20.25;-120.74;5.0;982.59;53.383;35.95559;-83.92946;819.28;NaN;;3.96;12.226105;166.8;18 / 20;42514;2022-10-26 13:30:46:393
6.3491;-3.2022;-2.3665;8.5168;4.6144;-1.5304;-2.7633;-7.7905;-1.6422;0.2405;-0.0336;-0.7739;5522.0;-28.74;-30.75;14.27;145.86;-28.07;-100.19;5.0;982.6;61.894;35.95558;-83.92945;820.93;NaN;;4.1;12.226105;160.9;18 / 20;43014;2022-10-26 13:30:46:893
12.5246;0.4107;-0.8139;8.1564;-3.5558;-4.1231;6.2156;5.1871;3.5853;-1.402;0.8343;0.5546;3422.0;-32.78;-26.19;16.05;182.96;22.23;-118.93;5.0;982.6;53.734;35.95558;-83.92945;820.93;NaN;;4.1;12.226105;160.9;18 / 20;43515;2022-10-26 13:30:47:394
6.4654;-5.4443;-3.274;9.0149;3.7662;-0.8471;-3.5725;-7.9629;-3.0381;0.7348;-0.0702;-1.2892;6552.0;-36.77;-23.47;10.86;140.91;-15.78;-91.96;5.0;982.59;62.791;35.955566;-83.92944;819.26;NaN;;4.36;12.226105;142.4;18 / 20;44014;2022-10-26 13:30:47:893
14.7751;0.4789;1.2365;8.0109;-3.7324;-4.2502;5.2282;3.2166;4.3298;-0.9714;0.2343;0.9669;3971.0;-36.73;-27.24;11.98;189.87;21.49;-118.05;5.0;982.58;54.937;35.955566;-83.92944;819.26;NaN;;4.36;12.226105;142.4;18 / 20;44515;2022-10-26 13:30:48:394
7.9675;-2.648;-0.9709;9.1612;2.9315;-1.9102;-2.8788;-6.4711;-1.6433;-0.8497;-0.0832;1.8228;5411.0;-36.94;-26.27;11.06;166.42;-17.39;-101.78;5.0;982.58;61.879;35.95556;-83.929436;821.21;NaN;;4.43;12.226105;161.2;17 / 20;45015;2022-10-26 13:30:48:894
16.4952;-1.0235;-1.5849;7.9278;-4.3972;-3.7396;5.035;5.597;1.7407;-0.994;0.0809;0.691;2734.0;-37.18;-23.89;15.51;181.9;26.64;-115.25;5.0;982.6;59.1;35.95556;-83.929436;821.21;NaN;;4.43;12.226105;161.2;17 / 20;45515;2022-10-26 13:30:49:394
6.7597;-3.9191;-1.9908;9.148;3.0947;-1.7052;-2.8176;-6.4337;0.1343;-0.2965;-0.335;1.5147;4384.0;-34.57;-24.15;18.68;131.41;-18.4;-100.56;5.0;982.59;58.849;35.955547;-83.92942;824.29;NaN;;4.18;12.226105;157.7;17 / 20;46016;2022-10-26 13:30:49:895
16.0334;-1.4833;-1.3753;7.6638;-4.758;-3.8469;3.0826;6.3406;1.704;-1.5246;0.2947;1.1079;2524.0;-33.15;-25.54;18.94;172.58;27.53;-111.47;5.0;982.59;54.976;35.955547;-83.92942;824.29;NaN;;4.18;12.226105;157.7;17 / 20;46515;2022-10-26 13:30:50:394
6.3526;-3.5097;-3.0452;9.1781;2.7873;-2.0407;-2.8936;-6.4287;-1.011;-0.4716;-0.0903;0.453;5654.0;-32.18;-27.0;15.36;146.18;-21.85;-101.67;5.0;982.57;64.512;35.955536;-83.92942;823.67;NaN;;4.72;12.226105;175.2;17 / 20;47015;2022-10-26 13:30:50:894
17.0088;-0.4908;-1.3693;7.1193;-5.363;-4.0894;4.0865;7.5375;2.2273;-0.1422;-0.8444;1.3439;2151.0;-32.51;-21.79;23.23;175.03;33.15;-119.87;5.0;982.58;61.31;35.955536;-83.92942;823.67;NaN;;4.72;12.226105;175.2;17 / 20;47515;2022-10-26 13:30:51:394
9.5596;-3.6425;-3.8402;7.7093;5.5298;-2.4816;-3.3554;-9.8982;-0.4449;0.2787;-0.6794;-0.6247;5309.0;-28.91;-29.76;23.89;109.93;-34.32;-107.84;5.0;982.59;64.624;35.95552;-83.92941;822.54;NaN;;4.93;12.226105;149.1;17 / 20;48015;2022-10-26 13:30:51:894
16.2117;4.0077;-3.189;7.6354;-2.0321;-5.8087;4.5126;5.8104;1.6074;-0.6055;0.5459;0.2223;2297.0;-24.54;-27.64;32.83;162.67;11.96;-127.26;5.0;982.59;55.727;35.95552;-83.92941;822.54;NaN;;4.93;12.226105;149.1;17 / 20;48514;2022-10-26 13:30:52:393
3.0559;-3.1591;-3.9395;6.8512;6.2175;-3.2518;-2.636;-8.813;-0.8589;0.7935;-0.417;-1.3957;4584.0;-27.53;-30.21;27.09;89.18;-39.35;-115.39;5.0;982.57;62.432;35.95551;-83.929405;822.47;NaN;;4.54;12.226105;160.7;17 / 20;49016;2022-10-26 13:30:52:895
17.5307;-1.3274;-1.2126;9.1265;-1.7945;-3.1077;7.4724;2.1933;1.1282;0.0876;0.3311;-0.264;3270.0;-34.48;-24.77;24.45;166.42;14.91;-113.62;5.0;982.58;62.108;35.95551;-83.929405;822.47;NaN;;4.54;12.226105;160.7;17 / 20;49515;2022-10-26 13:30:53:394
12.0832;-1.6436;-3.0464;9.2614;2.5903;-1.9202;-3.5223;-5.5415;-0.6815;-0.3653;-0.2501;0.4962;4645.0;-39.04;-22.11;20.14;116.59;-19.96;-100.29;5.0;982.6;57.214;35.9555;-83.9294;820.68;NaN;;4.79;12.226105;137.1;17 / 20;50014;2022-10-26 13:30:53:893
15.8022;-0.0742;-1.7094;9.3423;-1.8321;-2.3528;5.9505;1.6303;-0.2827;0.3302;0.0227;-0.3305;3151.0;-40.57;-20.03;13.39;177.48;14.73;-105.82;5.0;982.62;56.897;35.9555;-83.9294;820.68;NaN;;4.79;12.226105;137.1;17 / 20;50515;2022-10-26 13:30:54:394
11.281;-2.6121;-2.2528;9.4044;2.0242;-1.9055;-2.1206;-4.6245;-0.6939;-0.7217;-0.0621;1.3431;4219.0;-34.86;-28.46;15.11;158.52;-11.91;-101.45;5.0;982.61;56.777;35.955486;-83.92938;819.9;NaN;;4.46;12.226105;128.4;16 / 20;51015;2022-10-26 13:30:54:894
14.7248;1.0857;-0.6882;9.5644;0.4123;-2.1265;3.4849;0.9189;-0.288;0.1755;0.0444;-0.1949;4363.0;-33.92;-31.22;18.26;160.89;-2.41;-102.53;5.0;982.6;58.645;35.955486;-83.92938;819.9;NaN;;4.46;12.226105;128.4;16 / 20;51515;2022-10-26 13:30:55:394
9.7176;2.2158;-0.5794;8.8199;3.9591;-1.6446;-1.5038;-2.8996;0.0759;0.1133;-0.0552;0.2415;4733.0;-29.16;-32.48;21.45;136.61;-23.81;-100.56;5.0;982.61;58.763;35.95548;-83.929375;818.71;NaN;;4.86;12.226105;139.4;16 / 20;52015;2022-10-26 13:30:55:894
13.1988;4.5619;-0.2154;9.1315;3.4415;-0.9704;0.9892;1.7517;0.7585;0.223;0.3479;-0.0412;5180.0;-23.57;-36.96;25.16;139.05;-21.14;-97.99;5.0;982.63;57.015;35.95548;-83.929375;818.71;NaN;;4.86;12.226105;139.4;16 / 20;52515;2022-10-26 13:30:56:394
13.3268;5.2155;-1.7895;8.6488;4.536;-0.8906;2.4772;-0.4561;0.0507;-0.1215;-0.4799;0.3319;5554.0;-24.84;-34.89;25.03;127.46;-29.06;-94.84;5.0;982.6;56.558;35.955467;-83.92936;817.5;NaN;;4.43;12.226105;142.7;15 / 20;53015;2022-10-26 13:30:56:894
13.3352;4.18;0.3293;9.0743;3.6426;-0.7479;1.0997;3.637;2.5552;0.5177;0.5704;-0.9186;5672.0;-23.72;-36.28;23.08;138.69;-21.8;-94.71;5.0;982.63;55.847;35.955467;-83.92936;817.5;NaN;;4.43;12.226105;142.7;15 / 20;53515;2022-10-26 13:30:57:394
11.3468;2.0734;-2.272;8.9722;3.7957;-1.1241;0.2466;-3.3908;-1.5006;-1.2932;-1.5753;2.2072;5777.0;-21.32;-37.11;23.51;139.58;-22.77;-97.14;5.0;982.62;54.907;35.95546;-83.92935;817.63;NaN;;4.61;12.226105;122.6;13 / 20;54014;2022-10-26 13:30:57:893
13.5876;4.2437;1.282;9.6095;0.3878;-1.9175;-0.4517;4.0982;5.7048;1.5261;0.6305;-0.8316;5388.0;-28.37;-34.05;17.36;161.14;-2.27;-101.28;5.0;982.58;55.959;35.95546;-83.92935;817.63;NaN;;4.61;12.226105;122.6;13 / 20;54515;2022-10-26 13:30:58:394
15.7292;1.4234;-2.8609;9.0551;3.2326;-1.9304;-1.7688;-4.736;-2.7338;-0.6045;-0.8076;1.3484;5766.0;-25.72;-35.55;21.26;147.97;-19.25;-102.03;5.0;982.65;59.668;35.955456;-83.92934;819.3;NaN;;4.64;12.226105;111.7;13 / 20;55014;2022-10-26 13:30:58:893
17.0148;1.8446;-0.6858;9.4522;1.7733;-1.9187;6.5249;3.1411;3.0793;0.9736;0.704;-1.5668;4086.0;-30.9;-31.88;19.82;161.64;0.74;-105.85;5.0;982.61;55.515;35.955456;-83.92934;819.3;NaN;;4.64;12.226105;111.7;13 / 20;55515;2022-10-26 13:30:59:394
12.2184;8.1855;-1.8362;6.6187;7.0538;-1.6145;-1.2938;-5.4503;-0.4238;-0.0037;0.283;-0.0899;5417.0;-21.64;-36.21;22.74;104.08;-47.76;-104.17;5.0;982.63;60.184;35.95545;-83.92933;822.41;NaN;;4.75;12.226105;128.2;12 / 20;56014;2022-10-26 13:30:59:893
14.1993;10.1617;1.2305;7.6746;6.0736;-0.6186;3.7545;4.2262;1.1568;0.5573;0.2017;-0.0216;4999.0;-15.96;-39.39;26.1;129.67;-36.8;-94.28;5.0;982.63;58.688;35.95545;-83.92933;822.41;NaN;;4.75;12.226105;128.2;12 / 20;56515;2022-10-26 13:31:00:394
8.1087;6.8435;-0.5052;7.661;6.1216;0.068;0.6092;-0.8194;-0.602;-1.2157;0.8269;0.4183;5675.0;-18.64;-38.89;24.3;127.79;-38.63;-89.49;5.0;982.63;61.608;35.955433;-83.92931;823.78;NaN;;4.82;12.226105;150.5;12 / 20;57014;2022-10-26 13:31:00:893
6.4041;1.4569;13.4166;3.2621;3.4381;8.5854;2.4031;-0.9916;3.5929;0.5908;1.2732;0.4277;14806.0;-20.91;-38.91;-5.16;151.05;-20.52;-20.8;5.0;982.63;60.025;35.955433;-83.92931;823.78;NaN;;4.82;12.226105;150.5;12 / 20;57514;2022-10-26 13:31:01:393
2.8944;5.2167;6.1564;1.7422;5.296;8.0677;-0.22;-0.5435;0.8976;0.1355;-0.4945;0.0737;11926.0;-11.66;-39.21;-20.31;160.24;-32.69;-12.19;5.0;982.63;68.416;35.95542;-83.929306;825.49;NaN;;4.61;12.226105;138.7;12 / 20;58014;2022-10-26 13:31:01:893
2.6731;4.8685;7.7306;3.4065;5.1339;7.6295;0.0897;0.4696;7.2749;1.7355;-0.7587;0.8186;11524.0;-11.33;-40.73;-18.34;170.02;-25.51;-17.84;5.0;982.61;68.019;35.95542;-83.929306;825.49;NaN;;4.61;12.226105;138.7;12 / 20;58514;2022-10-26 13:31:02:393
2.6456;5.1796;6.4531;3.1536;4.9338;7.8665;-0.2959;-0.8672;2.4965;0.1366;-0.0027;-0.165;9163.0;-15.56;-41.83;-12.92;160.51;-30.01;-23.0;5.0;982.64;66.963;35.955406;-83.929306;823.68;NaN;;4.54;12.226105;158.9;11 / 20;59014;2022-10-26 13:31:02:893
0.9374;4.3095;6.853;0.3772;4.5173;8.6961;-0.2467;0.8412;5.5541;1.1611;0.3646;0.5008;11543.0;-6.52;-41.36;-20.51;167.11;-27.43;-2.48;5.0;982.64;63.021;35.955406;-83.929306;823.68;NaN;;4.54;12.226105;158.9;11 / 20;59514;2022-10-26 13:31:03:393
0.1998;2.9985;6.0751;2.2825;3.699;8.7908;0.875;0.7087;3.4439;-0.5214;-0.9154;-0.534;9463.0;-6.6;-43.72;-17.34;175.77;-22.16;-14.56;5.0;982.65;61.941;35.95539;-83.9293;825.13;NaN;;4.86;12.226105;146.3;11 / 20;60015;2022-10-26 13:31:03:894
2.5989;2.5869;4.0854;2.4315;4.4246;8.4072;0.1096;-1.0356;10.362;2.2564;0.8486;0.8666;14411.0;-10.56;-39.53;-22.33;169.81;-26.82;-16.13;5.0;982.62;62.986;35.95539;-83.9293;825.13;NaN;;4.86;12.226105;146.3;11 / 20;60515;2022-10-26 13:31:04:394
5.6931;6.8734;3.9012;4.7121;5.0407;6.9684;2.4768;2.5748;-1.2907;-0.9952;0.0725;0.1731;6301.0;-23.14;-41.64;-6.73;150.2;-30.93;-34.07;5.0;982.66;65.641;35.955383;-83.92929;824.28;NaN;;4.75;12.226105;144.0;11 / 20;61016;2022-10-26 13:31:04:895
3.2895;3.5348;2.8502;3.2206;6.8755;6.2069;0.3986;-3.2584;-1.794;0.8406;0.7881;-0.0922;7022.0;-26.91;-39.0;-10.54;131.98;-38.91;-31.2;5.0;982.65;63.687;35.955383;-83.92929;824.28;NaN;;4.75;12.226105;144.0;11 / 20;61514;2022-10-26 13:31:05:393
1.8398;4.6995;4.5176;4.7767;4.5807;7.2367;3.0601;1.5956;0.6569;-1.3961;-0.2105;-0.5601;5897.0;-28.05;-40.54;-7.26;139.43;-34.23;-36.72;5.0;982.62;60.123;35.955368;-83.92928;822.83;NaN;;4.25;12.226105;140.7;11 / 20;62015;2022-10-26 13:31:05:894
6.5216;3.0897;4.9929;5.1407;6.7631;4.8994;1.881;-2.5942;2.6829;2.1231;-0.4371;-0.2311;9075.0;-28.13;-39.53;-11.94;143.01;-32.26;-37.8;5.0;982.61;66.292;35.955368;-83.92928;822.83;NaN;;4.25;12.226105;140.7;11 / 20;62514;2022-10-26 13:31:06:393
5.1676;5.2896;3.9861;7.258;4.0344;5.2169;1.6863;1.3429;2.1619;-1.0172;0.3189;-0.1025;5446.0;-32.1;-40.87;3.0;142.38;-24.29;-54.29;5.0;982.66;62.106;35.95536;-83.929276;822.38;NaN;;4.21;12.226105;142.4;11 / 20;63015;2022-10-26 13:31:06:894
4.5607;1.4438;-1.0056;7.8932;5.0573;2.8797;0.9279;-2.5743;0.5019;1.6039;1.0307;-0.9234;6201.0;-37.29;-34.28;1.88;128.44;-31.04;-69.96;5.0;982.62;64.413;35.95536;-83.929276;822.38;NaN;;4.21;12.226105;142.4;11 / 20;63514;2022-10-26 13:31:07:393
6.4822;4.3202;1.0989;8.6149;3.9182;2.5695;2.7184;0.3301;-0.3339;-1.7436;0.3006;-0.3019;4687.0;-38.08;-32.27;14.81;123.18;-23.55;-73.39;5.0;982.68;65.327;35.955345;-83.929276;820.47;NaN;;4.68;12.226105;156.6;11 / 20;64014;2022-10-26 13:31:07:893
3.7947;1.2018;0.3425;7.1542;5.964;3.069;0.2288;-3.8567;1.5376;1.6411;0.4333;-1.0367;8454.0;-36.39;-37.33;2.7;136.93;-25.48;-63.36;5.0;982.64;62.935;35.955345;-83.929276;820.47;NaN;;4.68;12.226105;156.6;11 / 20;64514;2022-10-26 13:31:08:393
-0.4143;2.3521;1.9717;5.1506;4.1144;7.2604;1.5545;2.5675;-5.646;-3.1899;1.9397;-1.2943;6585.0;-28.91;-43.24;8.55;142.67;-30.49;-68.18;5.0;982.67;60.204;35.95533;-83.929276;820.1;NaN;;4.43;12.226105;164.1;10 / 20;65014;2022-10-26 13:31:08:893
-9.8483;-13.2084;-4.0268;4.8484;8.2447;2.165;-1.2495;-11.29;11.8806;5.9329;-0.4988;3.269;18947.0;-8.34;-29.89;-28.39;268.71;-57.22;-65.94;5.0;982.61;59.242;35.95533;-83.929276;820.1;NaN;;4.43;12.226105;164.1;10 / 20;65514;2022-10-26 13:31:09:393
5.4538;5.4909;-3.8557;9.2497;3.1364;0.8808;-3.2044;0.6634;-4.6142;-3.1626;1.7547;0.2853;3609.0;-27.04;-30.82;30.49;123.77;-18.65;-84.56;5.0;982.68;58.923;35.95531;-83.929276;819.25;NaN;;4.25;12.226105;167.3;10 / 20;66015;2022-10-26 13:31:09:894
6.3909;1.8924;-1.7489;7.3907;6.0782;2.1457;3.1027;-2.592;2.7303;1.4918;-0.2296;-1.0923;7081.0;-32.34;-39.21;1.86;137.67;-38.3;-73.81;5.0;982.64;63.147;35.95531;-83.929276;819.25;NaN;;4.25;12.226105;167.3;10 / 20;66514;2022-10-26 13:31:10:393
3.1639;5.6991;0.6272;7.7831;5.6414;1.9413;-2.9371;0.822;-0.74;-0.865;0.4947;0.1915;4781.0;-21.73;-45.62;16.22;142.91;-35.12;-76.0;5.0;982.68;54.197;35.9553;-83.92926;818.48;NaN;;4.25;12.226105;163.5;11 / 20;67015;2022-10-26 13:31:10:894
4.0591;1.6424;-2.3713;7.3118;6.517;0.486;-3.976;-4.0385;-1.9174;0.6599;-0.5423;0.1613;5314.0;-22.84;-46.18;12.06;140.86;-42.57;-77.79;5.0;982.66;57.11;35.9553;-83.92926;818.48;NaN;;4.25;12.226105;163.5;11 / 20;67516;2022-10-26 13:31:11:395
12.6302;-2.4514;3.8581;9.4243;-2.223;-1.5531;1.1835;0.0334;1.3467;-2.8488;-0.7671;3.023;4673.0;-32.23;-35.34;12.09;170.95;13.1;-99.36;5.0;982.7;54.393;35.955284;-83.92926;818.4;NaN;;4.64;12.226105;162.0;11 / 20;68015;2022-10-26 13:31:11:894
6.5623;-4.6421;-1.6663;9.2008;3.146;-1.2722;2.426;-8.2721;0.1232;2.3963;0.1031;-3.8477;4040.0;-41.94;-15.62;9.98;166.56;7.65;-96.54;5.0;982.69;61.913;35.955284;-83.92926;818.4;NaN;;4.64;12.226105;162.0;11 / 20;68514;2022-10-26 13:31:12:393
10.2945;4.5392;2.1416;9.4933;-0.2748;-2.4437;2.2902;0.71;0.3526;-2.206;-0.6212;2.4787;4401.0;-28.07;-39.26;16.39;167.94;1.61;-104.44;5.0;982.68;64.253;35.955273;-83.92926;817.37;NaN;;2.7;12.686445;165.0;11 / 20;69015;2022-10-26 13:31:12:894
8.3327;-2.3797;-2.7497;9.3756;2.8633;0.2661;0.5108;-5.609;-2.4476;1.6959;1.2111;-2.2608;6664.0;-39.41;-25.28;5.85;150.54;-16.98;-88.37;5.0;982.7;61.642;35.955273;-83.92926;817.37;NaN;;2.7;12.686445;165.0;11 / 20;69514;2022-10-26 13:31:13:393
14.4174;3.8378;-1.4127;9.0108;-2.7704;-2.7021;2.3516;1.9906;0.3773;-0.2424;-2.7213;1.1053;6873.0;-31.41;-35.87;3.51;186.69;16.41;-106.69;5.0;982.71;56.819;35.95526;-83.92926;817.32;NaN;;4.25;16.037176;168.4;15 / 20;70015;2022-10-26 13:31:13:894
3.4295;-5.3964;-5.0216;7.4292;6.3883;-0.4078;3.4667;-9.3972;-3.8426;1.7192;1.5864;-4.0769;6054.0;-36.36;-22.07;9.51;157.75;-12.64;-97.1;5.0;982.7;65.648;35.95526;-83.92926;817.32;NaN;;4.25;16.037176;168.4;15 / 20;70514;2022-10-26 13:31:14:393
12.253;6.6712;-2.1308;6.9434;-5.5914;-4.0861;5.5043;10.416;3.3969;0.6924;-0.1062;2.0021;5009.0;-26.66;-33.75;8.04;186.93;21.54;-116.9;5.0;982.71;56.621;35.95525;-83.92925;817.12;NaN;;4.75;17.875868;160.5;16 / 20;71015;2022-10-26 13:31:14:894
1.331;-6.5456;-3.2955;7.4526;6.2311;-1.3423;4.2847;-12.6325;-0.2302;3.2089;0.5084;-4.2519;5582.0;-31.8;-24.67;8.25;53.86;-39.45;-100.21;5.0;982.68;66.215;35.95525;-83.92925;817.12;NaN;;4.75;17.875868;160.5;16 / 20;71514;2022-10-26 13:31:15:393
12.1514;5.1592;0.4454;8.7198;-3.9147;-2.1933;4.0037;8.01;3.2023;-0.0294;-0.5017;2.0628;4542.0;-27.81;-33.66;16.24;168.73;23.53;-104.12;5.0;982.73;52.436;35.955223;-83.929245;817.96;NaN;;8.17;20.2891;172.9;16 / 20;72015;2022-10-26 13:31:15:894
5.8857;-3.1807;-1.4004;9.068;3.5744;-1.0798;-0.4708;-6.5091;-0.1601;-0.3567;-0.2443;-0.415;5080.0;-38.19;-25.05;12.6;136.82;-21.38;-96.79;5.0;982.7;61.542;35.955223;-83.929245;817.96;NaN;;8.17;20.2891;172.9;16 / 20;72514;2022-10-26 13:31:16:393
14.6566;3.1005;-0.9434;8.4528;-4.3145;-2.471;2.2481;7.2856;1.1142;-0.3898;-0.2341;1.7692;4192.0;-33.66;-31.03;14.93;173.71;26.1;-106.3;5.0;982.73;55.295;35.955204;-83.929245;817.84;NaN;;6.3;23.086967;179.2;16 / 20;73014;2022-10-26 13:31:16:893
5.6369;-3.4678;-1.774;8.8796;4.0111;-1.1114;-3.0372;-7.4885;-0.5929;-0.0209;-0.2954;-0.585;4713.0;-36.34;-27.71;16.58;131.61;-21.67;-95.04;5.0;982.74;63.82;35.955204;-83.929245;817.84;NaN;;6.3;23.086967;179.2;16 / 20;73514;2022-10-26 13:31:17:393
14.8002;2.8645;-1.9271;8.5549;-4.2819;-2.1562;2.2808;6.79;0.9252;0.3387;-0.5346;1.8979;4001.0;-37.12;-25.84;18.71;167.14;25.89;-104.15;5.0;982.73;52.429;35.95519;-83.929245;816.41;NaN;;4.72;25.100891;187.0;16 / 20;74014;2022-10-26 13:31:17:893
6.7705;-4.66;-1.8063;8.7066;4.4185;-0.9182;-1.8231;-7.6166;-1.4626;0.2734;-0.3721;-1.0494;4672.0;-38.42;-23.51;17.49;119.24;-20.81;-92.13;5.0;982.73;62.406;35.95519;-83.929245;816.41;NaN;;4.72;25.100891;187.0;16 / 20;74515;2022-10-26 13:31:18:394
14.6016;3.6473;-0.1196;8.1647;-4.7528;-2.6305;3.6475;6.3711;2.2141;-0.2778;0.2746;-0.3313;3492.0;-34.52;-28.48;20.06;169.22;28.99;-107.86;5.0;982.74;51.524;35.955177;-83.929245;814.65;NaN;;5.04;27.973433;181.4;16 / 19;75014;2022-10-26 13:31:18:893
3.5563;-4.0149;-2.6874;8.1176;5.3856;-1.1274;-3.1888;-9.2319;-1.4238;0.3412;-0.3297;-1.2403;4046.0;-31.13;-29.32;18.34;113.91;-33.31;-97.91;5.0;982.73;62.501;35.955177;-83.929245;814.65;NaN;;5.04;27.973433;181.4;16 / 19;75514;2022-10-26 13:31:19:393
13.9313;3.8964;-0.5303;7.9453;-5.1507;-2.5521;4.4979;6.8108;2.4023;0.421;-0.0317;-0.0356;3233.0;-27.0;-31.29;18.21;168.27;31.68;-107.81;5.0;982.73;51.717;35.95516;-83.929245;814.29;NaN;;5.08;30.059814;176.8;14 / 19;76015;2022-10-26 13:31:19:894
4.7895;-2.0052;-2.1404;7.6171;6.1653;-0.3735;-2.9351;-9.6609;-2.2123;0.7294;0.0699;-1.7062;4662.0;-28.63;-23.51;13.52;117.75;-27.92;-88.19;5.0;982.73;65.351;35.95516;-83.929245;814.29;NaN;;5.08;30.059814;176.8;14 / 19;76514;2022-10-26 13:31:20:393
11.7;2.886;1.1934;8.5191;-3.3981;-3.4711;3.0124;5.4595;4.6433;-0.0441;-0.8146;1.3213;4557.0;-23.62;-31.07;13.46;170.98;11.8;-106.42;5.0;982.74;48.897;35.955147;-83.929245;816.04;NaN;;5.08;30.039845;171.5;13 / 20;77015;2022-10-26 13:31:20:894
5.2597;-2.3545;-2.1763;9.268;3.2054;-0.0247;0.6489;-6.2423;-1.3391;0.5321;-0.1292;-1.0544;6022.0;-29.76;-22.05;7.59;144.19;-19.08;-90.15;5.0;982.71;58.476;35.955147;-83.929245;816.04;NaN;;5.08;30.039845;171.5;13 / 20;77514;2022-10-26 13:31:21:393
10.0768;2.9698;-3.5803;7.6845;-4.8381;-3.7028;6.6682;6.9296;1.5067;0.7004;-1.6262;2.0804;5989.0;-27.06;-27.13;7.43;178.98;14.02;-103.33;5.0;982.73;54.125;35.955135;-83.92923;818.02;NaN;;5.26;29.336485;148.4;11 / 20;78014;2022-10-26 13:31:21:893
6.8339;-4.0507;-3.2405;9.6613;1.4828;0.7948;6.4841;-10.4146;-1.3427;3.4301;-0.3205;-3.3581;7546.0;-35.4;-4.43;10.11;84.68;-8.7;-85.3;5.0;982.71;67.118;35.955135;-83.92923;818.02;NaN;;5.26;29.336485;148.4;11 / 20;78514;2022-10-26 13:31:22:393
5.1102;5.1245;-3.2644;8.6829;4.422;-1.1059;-2.1211;1.0721;-2.2639;0.928;0.6295;0.2007;5307.0;-22.52;-37.52;13.31;156.42;-26.8;-97.26;5.0;982.73;51.894;35.955124;-83.92922;819.97;NaN;;4.75;27.11585;151.7;10 / 20;79015;2022-10-26 13:31:22:894
4.0627;0.1579;-2.1188;8.5823;4.6069;-1.136;-3.4376;-3.3928;-1.1946;-0.2277;-0.449;0.0113;3727.0;-22.12;-29.66;22.33;126.51;-28.99;-95.81;5.0;982.77;59.022;35.955124;-83.92922;819.97;NaN;;4.75;27.11585;151.7;10 / 20;79514;2022-10-26 13:31:23:393
10.1091;0.1256;0.8174;8.9441;-2.6856;-2.9934;4.73;0.9056;3.4401;-2.1715;-0.589;2.1799;5714.0;-22.35;-23.06;21.9;154.99;15.89;-108.5;5.0;982.76;57.217;35.955124;-83.92921;813.11;NaN;;4.0;22.66381;119.4;11 / 20;80014;2022-10-26 13:31:23:893
8.8953;-2.9734;-1.9789;9.7448;1.0682;-0.2618;1.259;-4.1223;-1.3336;2.042;0.6028;-2.3873;6720.0;-25.63;-15.97;19.22;143.18;9.82;-97.56;5.0;982.73;60.237;35.955124;-83.92921;813.11;NaN;;4.0;22.66381;119.4;11 / 20;80516;2022-10-26 13:31:24:395
10.9062;-0.4765;-1.5335;9.2694;-2.2676;-2.2598;3.253;0.9764;0.7857;-0.134;-0.4089;1.3356;7057.0;-29.78;-24.34;18.88;159.96;13.37;-103.7;5.0;982.77;56.154;35.95512;-83.92919;814.35;NaN;;3.71;21.922403;142.8;11 / 20;81015;2022-10-26 13:31:24:894
11.4509;-4.3131;0.2094;9.7796;0.3597;-0.6329;4.2297;-5.6478;1.2053;0.2313;1.8965;-2.687;6511.0;-30.66;-11.12;25.54;112.25;-2.1;-93.7;5.0;982.7;60.213;35.95512;-83.92919;814.35;NaN;;3.71;21.922403;142.8;11 / 20;81514;2022-10-26 13:31:25:393
11.8005;-0.7217;-2.5319;9.6199;-0.5183;-1.8326;-1.9158;-2.2846;1.673;-0.5248;-0.0432;2.7236;5544.0;-25.65;-25.89;25.39;144.45;3.03;-100.79;5.0;982.79;52.326;35.95512;-83.929184;813.6;NaN;;3.71;18.899967;134.6;12 / 20;82015;2022-10-26 13:31:25:894
11.2977;-5.3761;-0.6547;9.781;-0.1588;-0.6902;7.0629;-4.882;0.6391;0.6854;1.5343;-3.3048;5677.0;-23.79;-9.66;33.99;133.15;25.1;-108.22;5.0;982.74;52.52;35.95512;-83.929184;813.6;NaN;;3.71;18.899967;134.6;12 / 20;82514;2022-10-26 13:31:26:393
10.6107;2.4443;-2.1715;9.5082;-1.4159;-1.9391;2.5382;2.3792;-0.4705;0.3161;-0.3661;2.503;3768.0;-29.49;-13.97;35.74;103.09;-11.01;-99.45;5.0;982.77;55.222;35.955116;-83.92917;815.2;NaN;;4.75;17.006725;97.0;12 / 20;83014;2022-10-26 13:31:26:893
9.999;-2.6073;-0.213;9.6951;-0.0746;-1.4731;5.5654;-2.4021;1.0704;1.3983;0.4255;-2.373;5856.0;-25.52;6.66;43.44;80.08;0.44;-98.64;5.0;982.79;59.129;35.955116;-83.92917;815.2;NaN;;4.75;17.006725;97.0;12 / 20;83515;2022-10-26 13:31:27:394
10.3184;1.2592;-2.569;9.4972;-1.5686;-1.8745;2.9551;1.3014;-2.2291;-0.0791;-0.3112;1.8532;3873.0;-46.37;-0.62;37.16;84.42;-4.26;-99.47;5.0;982.78;51.825;35.955112;-83.92915;817.54;NaN;;3.92;15.506734;116.1;12 / 20;84014;2022-10-26 13:31:27:893
9.8291;-0.8115;-1.7273;9.6891;-0.3443;-1.4742;5.257;0.7241;0.3484;0.8231;0.5849;-2.0976;5666.0;-51.28;15.66;34.48;61.58;2.01;-98.65;5.0;982.83;60.629;35.955112;-83.92915;817.54;NaN;;3.92;15.506734;116.1;12 / 20;84514;2022-10-26 13:31:28:393
13.7181;-1.7764;-3.0595;9.0947;-2.5881;-2.5997;2.7695;-1.5574;0.4033;-1.132;-0.2889;3.3161;5191.0;-49.57;-16.59;25.58;160.03;15.3;-105.95;5.0;982.83;64.232;35.955116;-83.92914;820.03;NaN;;5.62;14.185996;67.0;13 / 20;85015;2022-10-26 13:31:28:894
12.9042;-5.1269;-1.9379;9.6134;1.8433;-0.5953;4.7345;-7.3486;-0.6069;3.0284;1.0193;-3.6095;6290.0;-39.04;-2.34;30.38;120.91;14.03;-102.02;5.0;982.84;68.883;35.955116;-83.92914;820.03;NaN;;5.62;14.185996;67.0;13 / 20;85516;2022-10-26 13:31:29:395
10.5748;-1.573;0.0144;9.5962;-0.5338;-1.9488;3.9065;-1.5907;-0.8768;-1.6983;-0.2104;3.1957;5745.0;-32.96;-18.45;27.56;133.83;3.12;-101.48;5.0;982.78;57.517;35.95512;-83.92912;821.65;NaN;;4.0;13.242931;77.3;15 / 20;86015;2022-10-26 13:31:29:894
11.4652;-4.5069;-2.3139;9.7753;-0.1098;-0.7761;7.1031;-4.1017;0.0678;2.2133;1.5009;-3.1805;7017.0;-30.07;-7.33;28.03;143.32;21.53;-111.19;5.0;982.83;65.874;35.95512;-83.92912;821.65;NaN;;4.0;13.242931;77.3;15 / 20;86514;2022-10-26 13:31:30:393
9.4926;-0.5387;-0.6703;9.5947;0.9232;-1.8055;-0.7538;-4.4911;-0.5893;-1.5575;0.0337;2.7982;5995.0;-36.06;-15.32;26.53;119.25;-5.4;-100.66;5.0;982.82;61.036;35.95512;-83.92911;824.16;NaN;;4.25;12.685267;100.9;16 / 20;87014;2022-10-26 13:31:30:893
11.0907;-3.5946;-0.8812;9.6658;-0.7583;-1.4724;6.6498;-2.7327;0.7883;1.1385;0.6354;-2.7448;6638.0;-36.88;6.21;34.59;84.6;4.43;-98.66;5.0;982.83;63.93;35.95512;-83.92911;824.16;NaN;;4.25;12.685267;100.9;16 / 20;87514;2022-10-26 13:31:31:393
11.2223;-1.5287;-2.0746;9.4597;1.4322;-2.1526;-2.7461;-6.3441;-0.0851;-0.5294;-0.0363;3.0801;5663.0;-43.65;-15.92;36.26;108.33;-8.4;-102.82;5.0;982.79;61.828;35.955116;-83.92909;824.14;NaN;;3.96;12.226105;89.7;16 / 20;88014;2022-10-26 13:31:31:893
12.3571;-4.465;-0.1376;9.3846;-2.0109;-2.0141;6.2536;0.8156;1.3576;0.4615;0.5258;-2.4599;6253.0;-46.57;2.51;58.29;129.66;31.28;-110.93;5.0;982.84;55.409;35.955116;-83.92909;824.14;NaN;;3.96;12.226105;89.7;16 / 20;88514;2022-10-26 13:31:32:393
12.1035;-2.5271;-2.9818;9.5484;-0.6165;-2.1491;1.1637;-2.9506;-0.4558;-0.4384;-0.2573;3.1969;5873.0;-44.49;-13.13;33.13;75.89;-21.15;-101.83;5.0;982.78;62.793;35.955116;-83.92908;824.84;NaN;;4.03;12.226105;74.7;16 / 20;89014;2022-10-26 13:31:32:893
15.4935;-4.7521;-0.3508;8.8176;-3.303;-2.7404;6.7805;4.9162;3.9874;1.6811;1.5412;-3.3482;7523.0;-35.03;6.81;39.04;107.69;19.68;-107.26;5.0;982.76;51.069;35.955116;-83.92908;824.84;NaN;;4.03;12.226105;74.7;16 / 20;89514;2022-10-26 13:31:33:393
10.8775;-0.134;-3.6559;9.4267;1.1854;-2.4293;0.9202;-2.7097;-0.5848;0.29;-0.3428;1.9797;5673.0;-40.37;-7.11;31.58;61.37;-23.36;-103.38;5.0;982.83;54.673;35.95512;-83.92906;824.47;NaN;;4.21;12.226105;58.8;17 / 20;90014;2022-10-26 13:31:33:893
15.606;0.134;0.1531;9.4753;1.5611;-1.9878;6.8468;3.6222;2.495;0.7142;1.1366;-2.5607;5947.0;-37.09;2.42;38.18;73.12;-9.16;-101.85;5.0;982.83;58.408;35.95512;-83.92906;824.47;NaN;;4.21;12.226105;58.8;17 / 20;90515;2022-10-26 13:31:34:394
8.8367;4.981;-2.9028;8.4759;4.6553;-1.6304;1.5832;1.0578;0.6298;0.1458;0.0459;0.6222;4065.0;-56.16;-16.72;33.36;57.14;-28.34;-100.89;5.0;982.79;60.827;35.955124;-83.92905;828.56;NaN;;4.28;12.226105;59.7;17 / 20;91015;2022-10-26 13:31:34:894
8.8905;4.4818;-1.0881;7.9297;5.7084;-0.8391;1.7906;-1.3314;0.5446;0.8911;0.2428;-1.0938;5117.0;-59.16;-25.61;34.24;78.17;-28.04;-94.87;5.0;982.84;64.393;35.955124;-83.92905;828.56;NaN;;4.28;12.226105;59.7;17 / 20;91514;2022-10-26 13:31:35:393
11.2738;0.7433;-1.0893;9.6072;0.8328;-1.7828;3.141;-1.4913;-0.291;-1.2981;-0.229;3.5132;5422.0;-47.89;-26.29;34.59;129.77;-4.87;-100.51;5.0;982.79;65.663;35.955128;-83.92903;829.21;NaN;;4.5;12.226105;52.1;17 / 20;92014;2022-10-26 13:31:35:893
13.748;-4.4794;-0.3353;9.7652;0.4398;-0.7856;5.9792;-4.3498;1.159;1.3972;1.0839;-2.9439;7268.0;-45.21;0.02;38.49;124.27;19.06;-104.57;5.0;982.86;63.251;35.955128;-83.92903;829.21;NaN;;4.5;12.226105;52.1;17 / 20;92515;2022-10-26 13:31:36:394
10.4791;-1.4246;-3.8521;9.5077;1.3468;-1.9899;-1.1548;-5.4532;-0.5164;-1.7525;0.2425;2.6602;7629.0;-41.96;-12.86;27.32;109.96;-7.89;-101.82;5.0;982.78;65.906;35.955135;-83.92902;826.41;NaN;;4.14;12.226105;52.3;17 / 20;93015;2022-10-26 13:31:36:894
9.9129;-3.4642;-1.89;9.7357;-0.0781;-1.1752;5.0194;-2.5844;1.3409;1.4948;1.0574;-2.8149;6935.0;-38.06;3.49;27.83;83.44;0.46;-96.88;5.0;982.84;62.055;35.955135;-83.92902;826.41;NaN;;4.14;12.226105;52.3;17 / 20;93514;2022-10-26 13:31:37:393
9.5656;-0.6559;-1.7489;9.1715;-2.518;-2.3905;0.8296;1.0522;-0.3123;-1.4814;-0.0831;2.7725;7503.0;-34.33;-9.13;24.51;110.26;-3.65;-101.5;5.0;982.77;63.184;35.95514;-83.92901;825.68;NaN;;4.14;12.226105;54.5;17 / 20;94015;2022-10-26 13:31:37:894
10.3161;-4.0376;-1.4354;9.6909;-0.7396;-1.3076;6.1924;-2.29;0.7618;1.0704;1.1095;-2.6165;7652.0;-28.76;3.19;27.69;125.92;23.17;-110.25;5.0;982.83;66.437;35.95514;-83.92901;825.68;NaN;;4.14;12.226105;54.5;17 / 20;94514;2022-10-26 13:31:38:393
9.8578;-0.9111;-2.2265;8.9704;-3.2832;-2.219;2.2076;1.3414;-0.7874;-0.028;-0.5055;3.0002;7821.0;-34.39;-7.54;28.39;104.77;-3.27;-99.43;5.0;982.78;68.324;35.955143;-83.929;825.19;NaN;;4.14;12.226105;57.2;17 / 20;95014;2022-10-26 13:31:38:893
10.6167;-4.55;-1.5287;9.687;-0.7342;-1.3395;7.7077;-3.2142;-0.0661;1.9627;0.547;-3.6711;7076.0;-26.32;8.46;34.88;79.63;4.29;-97.87;5.0;982.85;63.598;35.955143;-83.929;825.19;NaN;;4.14;12.226105;57.2;17 / 20;95514;2022-10-26 13:31:39:393
11.9991;-1.4976;-1.6065;9.0243;-2.8885;-2.5276;4.297;0.0119;-0.892;-1.3261;-0.608;3.3553;7207.0;-37.76;-13.31;31.89;109.48;-5.57;-100.2;5.0;982.83;61.937;35.955147;-83.928986;826.84;NaN;;4.1;12.226105;75.7;17 / 20;96014;2022-10-26 13:31:39:893
13.9433;-6.2904;-1.5048;9.5873;-1.5583;-1.3512;7.9099;-1.7863;2.0642;3.1096;0.4996;-3.8446;6940.0;-35.62;0.11;38.1;101.29;9.14;-98.02;5.0;982.81;69.569;35.955147;-83.928986;826.84;NaN;;4.1;12.226105;75.7;17 / 20;96514;2022-10-26 13:31:40:393
11.9321;-1.9343;-1.823;9.0537;-2.7383;-2.5889;5.3786;-0.4538;-1.3859;-0.1432;-0.3932;3.4166;6263.0;-35.08;-11.42;33.84;134.37;16.21;-105.96;5.0;982.86;60.291;35.95515;-83.92898;824.29;NaN;;4.1;12.226105;87.9;18 / 20;97014;2022-10-26 13:31:40:893
10.1749;-5.892;-2.3258;9.6369;1.5685;-0.917;2.8505;-7.937;-0.6165;2.3329;0.5622;-3.6674;5958.0;-26.64;11.03;42.38;88.68;16.59;-100.11;5.0;982.85;65.19;35.95515;-83.92898;824.29;NaN;;4.1;12.226105;87.9;18 / 20;97515;2022-10-26 13:31:41:394
10.2048;1.7321;-1.3011;9.5927;-0.5138;-1.9712;4.6561;0.3731;-0.0189;-2.0096;0.6121;2.1103;5372.0;-39.96;-12.28;39.51;114.91;3.0;-101.61;5.0;982.85;56.512;35.95515;-83.92896;825.04;NaN;;3.82;12.226105;73.3;18 / 20;98014;2022-10-26 13:31:41:893
7.1931;-1.421;-2.9004;9.5413;2.0034;-1.0581;-0.7195;-3.2352;0.3522;1.8983;0.3758;-2.2624;6441.0;-38.66;-12.21;37.33;130.94;16.14;-105.98;5.0;982.85;66.05;35.95515;-83.92896;825.04;NaN;;3.82;12.226105;73.3;18 / 20;98515;2022-10-26 13:31:42:394
8.796;2.3103;0.5399;9.6271;0.0216;-1.8678;0.5188;-0.5784;0.1823;-0.4645;-0.4523;1.7028;5784.0;-28.8;-17.62;27.99;129.22;-0.13;-100.98;5.0;982.86;55.473;35.955154;-83.928955;821.57;NaN;;4.07;12.226105;93.6;18 / 20;99014;2022-10-26 13:31:42:893
6.1098;-0.8728;-2.3402;9.5636;2.1608;-0.1961;0.2523;-3.7953;-1.3252;1.108;0.677;-2.3428;5003.0;-28.31;-3.82;26.87;84.83;-12.73;-91.17;5.0;982.86;58.22;35.955154;-83.928955;821.57;NaN;;4.07;12.226105;93.6;18 / 20;99515;2022-10-26 13:31:43:394
9.5656;-1.4641;0.2477;8.5326;-3.6586;-3.1591;0.8762;2.1179;2.6614;-1.419;-0.6793;2.0837;5397.0;-32.78;-8.66;26.1;150.94;21.91;-110.32;5.0;982.86;48.792;35.95516;-83.92893;820.45;NaN;;3.85;12.226105;76.9;18 / 20;100015;2022-10-26 13:31:43:894
9.0532;-5.4479;-1.7919;9.7927;0.436;-0.2871;6.9315;-6.3387;0.3168;1.6027;2.0536;-3.482;5204.0;-26.92;2.27;33.43;117.71;21.76;-109.38;5.0;982.84;67.518;35.95516;-83.92893;820.45;NaN;;3.85;12.226105;76.9;18 / 20;100516;2022-10-26 13:31:44:395
12.7726;0.0526;-2.0495;8.7173;-3.5883;-2.7025;4.5794;2.4006;1.0812;0.0581;-1.1439;3.4496;5007.0;-40.54;-19.37;30.34;122.67;-5.14;-99.02;5.0;982.88;60.951;35.95516;-83.928925;821.52;NaN;;4.21;12.226105;95.2;18 / 20;101014;2022-10-26 13:31:44:893
7.94;-5.097;-2.4263;9.7888;0.5242;-0.2728;7.4381;-7.4408;1.6077;2.3198;0.4277;-3.5766;5759.0;-39.54;3.69;35.14;79.65;-3.06;-91.6;5.0;982.88;63.086;35.95516;-83.928925;821.52;NaN;;4.21;12.226105;95.2;18 / 20;101515;2022-10-26 13:31:45:394
13.0478;1.6998;-3.0835;8.9524;-3.0594;-2.5818;4.4357;3.8405;-0.179;0.2298;-0.8542;3.2476;5162.0;-38.06;-19.74;23.78;131.22;-6.24;-99.28;5.0;982.86;61.871;35.955166;-83.92891;821.6;NaN;;4.32;12.226105;66.6;18 / 20;102015;2022-10-26 13:31:45:894
5.9124;-4.0125;-2.8406;9.7674;0.8205;-0.3096;5.8673;-6.7758;0.9963;2.0318;0.3478;-3.0688;5186.0;-31.57;3.54;28.5;76.45;-4.8;-91.82;5.0;982.91;65.055;35.955166;-83.92891;821.6;NaN;;4.32;12.226105;66.6;18 / 20;102515;2022-10-26 13:31:46:394
11.5301;1.057;-1.4282;8.8177;-3.4656;-2.5314;4.426;2.9778;0.4989;-0.1571;-0.7985;2.9684;4934.0;-36.3;-10.63;27.17;147.51;20.69;-106.02;5.0;982.87;55.113;35.955173;-83.9289;822.53;NaN;;4.1;12.226105;47.2;18 / 20;103015;2022-10-26 13:31:46:894
8.286;-4.7752;-2.7915;8.8848;4.1186;-0.5178;0.7856;-9.5309;-1.7375;3.0735;0.0639;-3.1951;4222.0;-30.86;4.35;31.24;80.96;-1.99;-88.67;5.0;982.93;63.232;35.955173;-83.9289;822.53;NaN;;4.1;12.226105;47.2;18 / 20;103514;2022-10-26 13:31:47:393
11.1494;-0.2764;0.6141;9.2238;-2.5591;-2.1315;6.2521;0.3641;0.9677;-2.3557;-0.0627;3.2177;4121.0;-39.04;-10.09;25.86;105.54;-6.11;-99.19;5.0;982.9;59.088;35.95518;-83.928894;823.11;NaN;;4.28;12.226105;53.9;18 / 20;104014;2022-10-26 13:31:47:893
8.2657;-3.6703;-1.8948;9.7517;1.0071;-0.2469;4.2175;-5.9305;0.4185;2.3572;1.4537;-2.9224;4407.0;-30.26;0.28;36.45;134.95;25.53;-115.12;5.0;982.95;64.675;35.95518;-83.928894;823.11;NaN;;4.28;12.226105;53.9;18 / 20;104514;2022-10-26 13:31:48:393
8.5253;3.3218;-1.5179;9.6624;0.4506;-1.6142;4.751;-0.8609;1.1616;-0.6152;0.0027;1.7067;3836.0;-37.48;-14.27;28.48;119.34;-2.63;-99.48;5.0;982.92;54.413;35.955185;-83.92888;822.35;NaN;;4.93;12.226105;70.0;18 / 20;105014;2022-10-26 13:31:48:893
7.503;-0.1364;-1.6866;9.5422;1.6784;-1.5163;1.3303;-2.1429;1.033;1.1251;0.7685;-2.0033;3690.0;-34.28;-2.85;32.33;82.09;-9.85;-99.03;5.0;982.96;58.825;35.955185;-83.92888;822.35;NaN;;4.93;12.226105;70.0;18 / 20;105514;2022-10-26 13:31:49:393
6.8279;2.5283;-0.9781;9.4348;-0.0185;-2.6749;-2.3528;3.1036;1.8219;-0.9049;-0.4208;1.3235;3786.0;-33.56;-12.97;31.84;109.68;-6.73;-104.12;5.0;982.96;60.219;35.95519;-83.92886;823.26;NaN;;5.44;12.226105;77.2;18 / 20;106014;2022-10-26 13:31:49:893
5.959;-1.0726;-4.471;9.4209;1.9926;-1.8565;-2.136;-2.3557;-1.7482;1.0717;0.1906;-1.1163;5166.0;-32.83;-10.33;33.34;104.03;-5.13;-101.2;5.0;982.97;61.625;35.95519;-83.92886;823.26;NaN;;5.44;12.226105;77.2;18 / 20;106514;2022-10-26 13:31:50:393
10.7399;3.268;1.5646;8.7076;-3.1098;-3.2677;-0.2087;7.5667;4.8645;-0.3464;-0.5346;0.751;6379.0;-34.59;-13.13;31.26;140.51;15.55;-106.62;5.0;982.99;65.361;35.955193;-83.92885;821.49;NaN;;4.64;12.226105;94.7;18 / 20;107014;2022-10-26 13:31:50:893
5.5831;-3.0368;-5.0527;9.3478;2.3009;-1.8694;-3.5361;-5.8282;-0.062;-0.9501;-0.7193;0.6383;5686.0;-35.93;-11.64;30.81;94.79;-13.57;-101.31;5.0;982.97;70.46;35.955193;-83.92885;821.49;NaN;;4.64;12.226105;94.7;18 / 20;107514;2022-10-26 13:31:51:393
12.8097;0.2166;2.4096;9.5016;-1.3535;-2.0145;-1.5985;4.6654;3.1183;1.3862;-0.2113;0.0451;5909.0;-35.42;-12.11;32.34;123.05;5.61;-101.39;5.0;982.98;60.328;35.95519;-83.92883;820.79;NaN;;5.04;12.226105;95.4;18 / 20;108015;2022-10-26 13:31:51:894
6.7179;0.268;-4.9379;9.3803;1.8266;-2.2009;-0.5198;-7.4131;-2.6032;0.493;-0.742;1.2222;4224.0;-36.28;-2.77;31.35;77.42;-10.73;-103.2;5.0;982.97;51.883;35.95519;-83.92883;820.79;NaN;;5.04;12.226105;95.4;18 / 20;108515;2022-10-26 13:31:52:394
7.4085;-0.4346;-1.1874;9.6882;-0.3485;-1.4792;4.5028;0.0105;0.6027;-1.0548;0.5937;-0.4753;5770.0;-35.44;-3.36;32.87;99.15;2.04;-98.68;5.0;983.0;60.684;35.955193;-83.92882;821.38;NaN;;4.39;12.226105;81.3;18 / 20;109014;2022-10-26 13:31:52:893
8.9791;0.5782;-2.2373;9.4499;-1.9366;-1.766;-0.1567;2.282;-0.4125;0.469;0.031;0.4122;6824.0;-37.18;-13.11;30.9;129.13;7.83;-101.58;5.0;982.99;60.987;35.955193;-83.92882;821.38;NaN;;4.39;12.226105;81.3;18 / 20;109514;2022-10-26 13:31:53:393
6.3383;-1.5586;-2.1308;9.7331;0.332;-1.1518;2.6133;-3.9186;3.052;1.2477;0.5156;-1.2435;8272.0;-37.87;-11.02;30.39;126.72;7.21;-101.41;5.0;983.09;63.294;35.955193;-83.92881;823.54;NaN;;4.72;12.226105;89.9;18 / 20;110015;2022-10-26 13:31:53:894
8.6629;0.5614;-2.7473;8.5199;-4.1624;-2.5013;1.4106;3.6914;-0.6962;0.4476;-0.1749;1.686;6560.0;-35.08;-11.62;32.36;130.78;11.33;-103.32;5.0;983.04;58.819;35.955193;-83.92881;823.54;NaN;;4.72;12.226105;89.9;18 / 20;110516;2022-10-26 13:31:54:395
5.2418;-4.3274;-2.697;9.7374;-0.5491;-1.0258;7.5042;-5.166;0.6437;2.647;0.2209;-2.9947;6614.0;-29.72;4.95;35.96;84.56;3.21;-96.01;5.0;983.05;64.927;35.955196;-83.928795;823.71;NaN;;4.9;12.226105;85.3;18 / 20;111016;2022-10-26 13:31:54:895
11.6952;2.4622;-1.0283;8.1188;-4.9223;-2.455;3.6633;3.9544;-0.2143;-0.2412;-0.5049;3.1147;6040.0;-34.65;-6.23;33.36;141.32;30.13;-106.82;5.0;983.02;55.264;35.955196;-83.928795;823.71;NaN;;4.9;12.226105;85.3;18 / 20;111515;2022-10-26 13:31:55:394
5.1102;-4.3394;-2.394;8.5926;4.4353;-1.6327;-0.8857;-9.7267;0.053;2.6699;-0.8476;-3.1161;6570.0;-31.37;3.11;33.69;79.56;-6.29;-89.3;5.0;983.09;58.78;35.9552;-83.92878;822.57;NaN;;5.29;12.226105;71.1;16 / 20;112015;2022-10-26 13:31:55:894
12.0772;4.0352;0.1986;8.8193;-3.6954;-2.1759;2.9618;4.3901;0.3694;-0.9838;-0.3755;3.2835;5887.0;-36.13;-12.54;31.59;114.99;-0.99;-98.41;5.0;983.06;59.32;35.9552;-83.92878;822.57;NaN;;5.29;12.226105;71.1;16 / 20;112515;2022-10-26 13:31:56:394
3.3218;-5.0037;-3.9526;8.7729;4.1985;-1.2565;-1.7689;-8.4219;-1.7444;1.7734;-0.3553;-2.9635;6903.0;-34.18;-1.01;32.74;85.54;-5.74;-91.63;5.0;983.06;51.78;35.955208;-83.92876;823.04;NaN;;5.0;12.226105;60.0;16 / 20;113014;2022-10-26 13:31:56:893
12.903;3.7564;-0.2946;7.7003;-5.3612;-2.852;2.4089;4.8522;1.1462;-0.9307;-0.1044;1.1091;6517.0;-34.2;-6.04;31.69;147.47;33.14;-110.32;5.0;983.07;59.141;35.955208;-83.92876;823.04;NaN;;5.0;12.226105;60.0;16 / 20;113514;2022-10-26 13:31:57:393
3.402;-6.8423;-4.3394;8.4526;4.5415;-2.0247;0.1292;-10.4867;-0.1955;3.2965;-0.7474;-3.4698;7107.0;-32.78;-2.89;33.54;57.98;-27.59;-103.47;5.0;983.06;61.448;35.955215;-83.92875;822.13;NaN;;4.82;12.226105;60.1;17 / 20;114015;2022-10-26 13:31:57:894
12.4552;2.5005;0.4932;8.4063;-4.1997;-2.8049;3.2136;3.6591;1.5034;-0.5556;-0.7355;1.7495;6500.0;-34.91;-11.21;32.38;145.92;25.36;-108.45;5.0;983.07;51.661;35.955215;-83.92875;822.13;NaN;;4.82;12.226105;60.1;17 / 20;114514;2022-10-26 13:31:58:393
5.546;-5.3315;-2.6097;8.1514;5.0347;-2.0921;-0.3689;-10.7851;-0.2738;2.4059;-0.7706;-3.2518;7178.0;-31.56;-1.54;32.49;51.57;-30.89;-104.39;5.0;983.05;56.76;35.955223;-83.928734;822.31;NaN;;5.04;12.226105;64.2;17 / 20;115014;2022-10-26 13:31:58:893
13.4357;3.7528;0.3592;6.9579;-5.6495;-3.9801;6.5831;9.0275;4.1219;-0.3614;-1.0165;1.462;6735.0;-30.81;-2.32;30.96;138.41;29.08;-109.8;5.0;983.1;52.306;35.955223;-83.928734;822.31;NaN;;5.04;12.226105;64.2;17 / 20;115514;2022-10-26 13:31:59:393
0.5901;-7.3223;-4.8147;8.2512;4.8952;-2.0312;-1.0703;-10.8515;-0.5648;2.0736;-0.4681;-3.1937;7315.0;-28.46;4.31;32.19;72.6;-10.7;-93.48;5.0;983.09;59.086;35.95523;-83.92872;821.87;NaN;;5.11;12.226105;51.8;17 / 20;116014;2022-10-26 13:31:59:893
16.7874;1.3131;0.3197;8.0471;-4.7297;-3.0073;4.5567;8.8624;2.5591;-0.6314;-0.1451;0.4571;6874.0;-31.74;-1.52;29.74;139.35;29.86;-108.22;5.0;983.11;53.789;35.95523;-83.92872;821.87;NaN;;5.11;12.226105;51.8;17 / 20;116515;2022-10-26 13:32:00:394
11.7861;-3.7672;-0.6224;8.1273;5.2552;-1.5814;-1.905;-9.4134;-1.5081;-1.42;-0.45;2.7068;7377.0;-33.45;-2.49;27.19;47.62;-32.4;-101.01;5.0;983.07;56.36;35.95524;-83.92871;821.89;NaN;;5.18;12.226105;61.8;17 / 20;117015;2022-10-26 13:32:00:894
22.0795;-0.5243;0.5088;7.7011;-4.2747;-4.3117;6.3044;6.8133;4.7202;-0.5193;-0.7969;0.6241;6859.0;-30.04;1.22;30.21;145.72;25.84;-119.24;5.0;983.12;55.129;35.95524;-83.92871;821.89;NaN;;5.18;12.226105;61.8;17 / 20;117515;2022-10-26 13:32:01:394
18.152;-0.0754;-2.4718;8.9696;2.7186;-2.8854;-0.0379;-7.323;-0.7488;-2.0282;-1.0012;4.5978;6741.0;-29.92;-13.14;29.64;40.45;-42.05;-114.97;5.0;983.04;56.76;35.95525;-83.928696;820.53;NaN;;4.82;12.226105;53.5;17 / 20;118014;2022-10-26 13:32:01:893
19.5598;-2.2445;-3.026;8.235;-3.0393;-4.3725;7.2523;7.8866;2.0185;0.1621;-0.0641;-0.3346;5424.0;-24.02;-5.42;34.71;138.2;24.01;-120.37;5.0;983.11;55.017;35.95525;-83.928696;820.53;NaN;;4.82;12.226105;53.5;17 / 20;118515;2022-10-26 13:32:02:394
15.0805;-2.266;-3.3015;8.9742;2.3384;-3.1884;-1.2996;-7.1834;-0.1981;-1.1369;-0.5834;4.633;6344.0;-25.71;-13.59;31.01;43.14;-43.58;-118.53;5.0;983.07;56.49;35.955257;-83.92869;819.27;NaN;;4.93;12.226105;62.8;17 / 20;119015;2022-10-26 13:32:02:894
20.2409;-5.7757;-0.5949;7.914;-3.7141;-4.4435;9.163;4.913;5.7893;3.0803;1.5548;-4.0985;6549.0;-20.36;2.96;34.59;116.46;22.26;-119.31;5.0;983.08;52.114;35.955257;-83.92869;819.27;NaN;;4.93;12.226105;62.8;17 / 20;119514;2022-10-26 13:32:03:393
13.7324;-1.7548;-3.1711;9.0769;2.1238;-3.0447;-2.0892;-7.8544;-0.9234;-0.7513;-0.4862;4.0436;6854.0;-29.57;-8.68;25.22;93.66;-12.51;-108.54;5.0;983.08;57.98;35.95526;-83.92867;818.79;NaN;;4.82;12.226105;58.3;17 / 20;120015;2022-10-26 13:32:03:894
13.2873;-4.5715;-1.1671;8.5229;-3.1149;-3.7186;8.4801;6.3331;3.3496;1.6965;2.4002;-3.2941;6666.0;-23.32;3.06;28.99;113.44;18.52;-113.57;5.0;983.13;52.719;35.95526;-83.92867;818.79;NaN;;4.82;12.226105;58.3;17 / 20;120514;2022-10-26 13:32:04:393
12.4313;-0.3401;-3.1735;9.2403;1.9079;-2.6734;-0.4429;-4.3024;-0.2673;-1.0426;-0.0684;3.2592;7293.0;-29.44;-7.16;21.94;91.13;-11.22;-106.14;5.0;983.08;55.353;35.955273;-83.928665;818.48;NaN;;5.04;12.226105;43.5;17 / 20;121014;2022-10-26 13:32:04:893
14.8759;-3.1603;1.3777;9.6898;0.381;-1.4606;7.2515;-3.0316;2.3339;-0.0148;1.8387;-2.5411;6310.0;-23.14;5.98;24.77;103.38;17.65;-111.39;5.0;983.15;52.899;35.955273;-83.928665;818.48;NaN;;5.04;12.226105;43.5;17 / 20;121514;2022-10-26 13:32:05:393
10.497;-0.0395;-3.0272;9.4498;0.6907;-2.5289;-0.5749;-5.2477;-0.1482;-1.1025;0.5624;3.101;7077.0;-28.01;0.49;20.06;31.27;-25.26;-111.01;5.0;983.11;53.916;35.95528;-83.92866;818.28;NaN;;4.86;12.226105;53.6;17 / 20;122014;2022-10-26 13:32:05:893
11.9285;-4.9355;-0.4394;9.7642;0.7395;-0.5323;8.4267;-5.4216;1.3941;0.7637;2.4109;-3.2975;6076.0;-17.49;14.78;20.66;66.98;20.92;-111.95;5.0;983.13;61.524;35.95528;-83.92866;818.28;NaN;;4.86;12.226105;53.6;17 / 20;122514;2022-10-26 13:32:06:393
11.7443;1.8458;-1.9908;9.3766;2.2248;-1.8164;-1.3584;-6.3109;-0.9539;-0.2233;-0.1749;3.1589;7943.0;-32.31;-0.15;14.91;48.02;-13.11;-100.96;5.0;983.13;60.237;35.955288;-83.92864;818.11;NaN;;4.82;12.226105;43.8;17 / 20;123014;2022-10-26 13:32:06:893
10.0576;-4.0412;0.0742;9.7137;-0.812;-1.0751;9.6186;-1.3483;-0.1018;-0.9138;1.1641;-2.7318;6133.0;-18.69;21.66;17.57;38.04;4.75;-96.32;5.0;983.16;59.227;35.955288;-83.92864;818.11;NaN;;4.82;12.226105;43.8;17 / 20;123515;2022-10-26 13:32:07:394
10.4109;1.7572;-1.78;9.5121;-1.255;-2.0286;3.0205;1.1504;-0.2521;-1.2342;-0.1902;2.9161;7573.0;-35.03;4.22;16.86;37.07;-12.91;-102.05;5.0;983.13;55.793;35.9553;-83.92864;816.18;NaN;;5.0;12.226105;36.1;17 / 20;124014;2022-10-26 13:32:07:893
8.3507;-3.4175;-2.8394;9.7627;0.3221;-0.8694;7.0626;-3.7294;2.5922;0.6206;2.3288;-2.9681;6529.0;-24.32;16.73;26.08;75.9;21.9;-110.82;5.0;983.17;58.124;35.9553;-83.92864;816.18;NaN;;5.0;12.226105;36.1;17 / 20;124514;2022-10-26 13:32:08:393
10.4803;1.0606;-1.5646;9.0819;-2.5267;-2.7027;2.3851;2.2746;0.3395;-1.3306;-0.4389;2.9293;7525.0;-37.71;1.07;22.13;72.95;-4.46;-101.71;5.0;983.12;62.307;35.95531;-83.92863;816.82;NaN;;5.11;12.226105;52.5;17 / 20;125014;2022-10-26 13:32:08:893
10.7148;-5.5412;-1.1252;9.7755;0.2958;-0.7231;7.2502;-5.6692;1.2456;3.2575;-0.4217;-3.8386;7167.0;-25.11;11.55;34.63;68.8;-1.73;-94.23;5.0;983.13;60.626;35.95531;-83.92863;816.82;NaN;;5.11;12.226105;52.5;17 / 20;125515;2022-10-26 13:32:09:394
12.0939;0.5483;-2.2026;8.7097;-3.8148;-2.3997;2.9723;3.134;2.3724;0.1572;-0.8876;3.2284;6897.0;-34.87;-2.06;27.92;135.26;22.89;-105.4;5.0;983.17;54.751;35.95532;-83.92862;817.23;NaN;;4.82;12.226105;52.2;17 / 20;126015;2022-10-26 13:32:09:894
7.4623;-6.1337;-2.1236;9.7763;0.4734;-0.6081;6.6162;-7.8009;0.9608;2.2546;-0.3596;-3.8426;6438.0;-23.44;15.79;30.66;59.79;-2.77;-93.56;5.0;983.16;52.52;35.95532;-83.92862;817.23;NaN;;4.82;12.226105;52.2;17 / 20;126516;2022-10-26 13:32:10:395
7.5616;4.0077;2.6838;9.6499;-1.0352;-1.4068;1.5112;6.252;1.7517;-2.0134;-0.6955;1.5707;5469.0;-34.01;-7.13;25.61;117.65;6.06;-98.29;5.0;983.17;61.603;35.955334;-83.92861;816.1;NaN;;4.9;12.226105;37.9;16 / 20;127015;2022-10-26 13:32:10:894
5.0946;-1.6268;-3.2836;7.0227;5.6969;-3.7943;-1.0994;-7.2716;1.0421;0.7966;-0.2301;-1.8914;4102.0;-28.16;0.32;28.37;27.19;-35.52;-118.38;5.0;983.16;53.233;35.955334;-83.92861;816.1;NaN;;4.9;12.226105;37.9;16 / 20;127516;2022-10-26 13:32:11:395
8.6904;5.8534;0.4466;9.3995;-0.6276;-2.7252;0.5522;4.0038;-0.0428;-1.6607;0.0825;2.5399;3541.0;-30.62;-4.16;27.54;77.19;-11.97;-107.43;5.0;983.19;52.847;35.955345;-83.9286;816.73;NaN;;4.82;12.226105;44.4;16 / 20;128015;2022-10-26 13:32:11:894
4.8613;-2.6169;-2.7365;8.4478;4.2548;-2.5889;-1.6775;-6.2705;-0.8269;1.0678;-0.1812;-2.1076;4787.0;-24.51;5.34;29.83;63.56;-13.49;-101.96;5.0;983.16;55.025;35.955345;-83.9286;816.73;NaN;;4.82;12.226105;44.4;16 / 20;128514;2022-10-26 13:32:12:393
12.0398;3.6643;-1.4713;8.105;-4.3566;-3.3909;3.406;4.0749;1.0501;-0.9464;-0.4427;1.8509;4568.0;-25.99;4.14;29.33;125.77;26.38;-112.7;5.0;983.2;51.405;35.955357;-83.92859;816.05;NaN;;4.79;12.226105;38.2;17 / 20;129014;2022-10-26 13:32:12:893
4.3573;-4.8589;-3.4187;8.2324;4.7425;-2.4304;0.9591;-9.8527;0.1452;2.3658;-0.3;-3.6817;5510.0;-20.57;7.91;34.71;52.06;-28.92;-106.45;5.0;983.19;53.491;35.955357;-83.92859;816.05;NaN;;4.79;12.226105;38.2;17 / 20;129514;2022-10-26 13:32:13:393
11.062;4.5595;0.0826;7.149;-5.4873;-3.8669;4.4888;7.3738;3.2853;-0.5878;-0.9063;2.3121;4517.0;-31.88;-2.76;31.03;130.79;21.1;-107.59;5.0;983.22;51.85;35.955368;-83.92857;816.11;NaN;;4.9;12.226105;47.1;17 / 20;130014;2022-10-26 13:32:13:893
3.2309;-5.5603;-2.9195;8.404;4.8972;-1.2492;2.0731;-10.5294;-0.4101;2.5878;0.3301;-3.9733;6036.0;-20.79;7.59;32.14;73.16;-2.84;-94.53;5.0;983.19;54.426;35.955368;-83.92857;816.11;NaN;;4.9;12.226105;47.1;17 / 20;130514;2022-10-26 13:32:14:393
12.0601;3.9742;-1.9175;7.4724;-5.5507;-3.086;5.851;7.1706;1.6645;0.2271;-0.5001;2.6237;5121.0;-22.71;-1.01;24.39;120.29;17.34;-106.68;5.0;983.21;54.48;35.95538;-83.928566;815.0;NaN;;4.79;12.226105;47.4;17 / 20;131014;2022-10-26 13:32:14:893
5.1712;-4.1154;-2.5208;9.0781;3.4493;-1.3644;1.9213;-9.5336;0.2644;0.6181;-0.218;-1.8374;5438.0;-17.25;13.24;24.6;48.86;-20.59;-98.55;5.0;983.18;53.152;35.95538;-83.928566;815.0;NaN;;4.79;12.226105;47.4;17 / 20;131514;2022-10-26 13:32:15:393
12.4744;5.243;-0.4262;8.7804;-3.336;-2.819;3.177;7.6399;1.4953;-0.4528;-0.3721;1.7583;4860.0;-32.94;10.22;28.24;104.21;19.89;-107.8;5.0;983.22;54.763;35.95539;-83.92856;812.26;NaN;;4.86;12.226105;39.0;17 / 20;132014;2022-10-26 13:32:15:893
6.3826;-2.9949;-2.0124;8.812;3.7788;-2.0591;2.5424;-6.677;1.0932;0.5262;-0.1448;-1.8894;4839.0;-33.94;16.16;29.64;35.46;-22.66;-103.15;5.0;983.21;55.756;35.95539;-83.92856;812.26;NaN;;4.86;12.226105;39.0;17 / 20;132514;2022-10-26 13:32:16:393
11.5983;6.6568;-0.2273;9.4356;-0.7616;-2.5613;0.9957;5.2898;4.3657;-0.5249;-0.5133;1.6452;5070.0;-38.14;-9.08;25.5;129.21;4.45;-105.19;5.0;983.25;54.305;35.9554;-83.92854;812.55;NaN;;4.86;12.226105;49.5;17 / 20;133014;2022-10-26 13:32:16:893
6.6305;-1.1384;-2.9853;9.3329;2.759;-1.2066;-3.3159;-2.6144;-2.9763;-0.5601;-0.5414;-0.0476;6162.0;-29.31;-0.49;24.39;65.96;-16.34;-97.37;5.0;983.22;59.564;35.9554;-83.92854;812.55;NaN;;4.86;12.226105;49.5;17 / 20;133514;2022-10-26 13:32:17:393
10.9409;1.9259;1.1085;8.1774;-4.1271;-3.5025;2.3047;4.5624;3.4528;-1.0438;-0.9198;2.0629;6644.0;-27.53;3.96;24.38;101.24;13.14;-102.23;5.0;983.25;52.209;35.955406;-83.928535;810.53;NaN;;5.04;12.226105;59.2;17 / 20;134016;2022-10-26 13:32:17:895
5.2669;-3.7768;-2.8729;8.7094;3.9588;-2.155;-3.0664;-7.444;-0.814;1.4495;-0.543;-2.0669;7142.0;-24.43;9.83;32.79;63.79;-11.45;-95.11;5.0;983.24;54.45;35.955406;-83.928535;810.53;NaN;;5.04;12.226105;59.2;17 / 20;134515;2022-10-26 13:32:18:394
11.4389;3.201;1.6388;8.6252;-3.4296;-3.1644;5.3195;6.6137;5.3291;0.6139;-0.2599;-0.1795;7109.0;-40.41;2.31;32.98;131.53;20.47;-110.15;5.0;983.28;53.463;35.95542;-83.92852;810.11;NaN;;4.97;12.226105;44.0;16 / 20;135015;2022-10-26 13:32:18:894
6.0523;-5.5005;-3.8151;8.5829;3.7362;-2.9231;-2.4452;-6.9921;-0.6657;1.1034;-0.872;-1.7494;8450.0;-38.12;0.96;30.53;42.84;-22.39;-108.81;5.0;983.25;61.136;35.95542;-83.92852;810.11;NaN;;4.97;12.226105;44.0;16 / 20;135515;2022-10-26 13:32:19:394
16.8138;-2.1452;3.0464;7.9578;-3.9327;-4.1687;5.9072;4.5328;7.8796;-0.0818;-0.7445;0.1263;7819.0;-36.96;-3.56;28.46;157.22;24.68;-115.31;5.0;983.26;53.334;35.955433;-83.92851;809.93;NaN;;5.22;12.226105;52.3;16 / 20;136015;2022-10-26 13:32:19:894
2.1511;-5.2705;-4.0436;8.1994;4.876;-2.2726;-1.0745;-9.4325;-1.4626;1.8238;-0.6344;-2.4993;8294.0;-33.26;-3.97;29.87;77.58;-15.75;-95.64;5.0;983.24;57.107;35.955433;-83.92851;809.93;NaN;;5.22;12.226105;52.3;16 / 20;136514;2022-10-26 13:32:20:393
16.1626;-1.6484;4.4877;7.2089;-3.9153;-5.3733;5.253;4.8959;8.0951;-1.9822;-0.1035;1.3894;7229.0;-29.53;-6.67;31.41;155.1;24.53;-121.17;5.0;983.28;53.826;35.95544;-83.9285;809.36;NaN;;4.86;12.226105;54.3;16 / 20;137015;2022-10-26 13:32:20:894
8.0381;-6.5336;-3.1627;8.314;4.7922;-2.0205;-2.1204;-9.9322;-1.7604;-0.6832;-0.5657;1.6281;7785.0;-30.0;-8.94;29.34;65.22;-29.25;-103.66;5.0;983.25;60.089;35.95544;-83.9285;809.36;NaN;;4.86;12.226105;54.3;16 / 20;137516;2022-10-26 13:32:21:395
16.9262;1.3573;1.8517;7.5349;-4.1204;-4.7349;4.3103;6.485;6.5343;-1.5228;-0.2672;1.5365;7429.0;-26.63;-4.39;32.36;148.02;24.84;-122.15;5.0;983.31;52.334;35.95545;-83.92848;810.29;NaN;;5.18;12.226105;65.0;15 / 20;138015;2022-10-26 13:32:21:894
7.7414;-7.022;-1.5754;8.5943;4.267;-2.025;-0.9614;-8.5631;-0.8765;-0.8844;-0.1553;0.54;8013.0;-28.33;-6.38;30.84;68.1;-25.79;-103.26;5.0;983.28;57.502;35.95545;-83.92848;810.29;NaN;;5.18;12.226105;65.0;15 / 20;138514;2022-10-26 13:32:22:393
19.2365;-1.2855;-0.8931;5.44;-6.6492;-4.7291;6.1496;9.5027;0.1622;-1.9168;0.6087;2.1201;7317.0;-22.18;3.66;32.42;156.69;42.69;-131.0;5.0;983.26;50.693;35.955452;-83.928474;807.72;NaN;;4.9;12.226105;62.7;14 / 20;139014;2022-10-26 13:32:22:893
4.1919;-5.1018;-1.7871;8.1011;4.7089;-2.8931;-6.96;-10.3616;-0.6323;-0.8381;0.0485;0.233;7894.0;-24.77;-1.84;34.18;57.5;-28.7;-109.65;5.0;983.25;55.707;35.955452;-83.928474;807.72;NaN;;4.9;12.226105;62.7;14 / 20;139514;2022-10-26 13:32:23:393
19.5479;-1.0439;2.5642;6.7959;-5.6293;-4.2775;6.6767;9.6343;3.5344;-1.5558;-0.1264;1.8257;7042.0;-26.78;-1.28;32.14;133.84;30.14;-111.15;5.0;983.29;50.408;35.95546;-83.92846;807.2;NaN;;5.44;12.226105;69.0;14 / 20;140014;2022-10-26 13:32:23:893
8.5134;-5.2537;-1.9343;8.389;2.6068;-4.3589;-8.5426;-11.6303;2.7782;0.8103;-1.5326;2.1016;7740.0;-27.99;-0.45;32.1;43.2;-33.75;-111.26;5.0;983.28;60.277;35.95546;-83.92846;807.2;NaN;;5.44;12.226105;69.0;14 / 20;140515;2022-10-26 13:32:24:394
24.5372;0.7816;-3.1244;7.3746;-5.4724;-3.4406;6.0495;10.6177;2.0755;0.9134;0.1684;-4.4302;6916.0;-21.13;10.61;34.95;113.12;33.92;-115.01;5.0;983.28;53.353;35.955467;-83.92844;806.34;NaN;;5.15;12.226105;55.1;15 / 20;141014;2022-10-26 13:32:24:893
13.6702;-0.8306;-1.4127;7.9797;2.6172;-5.0641;-4.4297;-7.383;2.6057;0.312;-0.0517;2.144;8107.0;-31.78;0.54;30.39;33.29;-15.48;-122.4;5.0;983.26;55.042;35.955467;-83.92844;806.34;NaN;;5.15;12.226105;55.1;15 / 20;141514;2022-10-26 13:32:25:393
9.3419;-1.1168;-1.1061;9.4958;2.247;-0.9757;2.637;-3.068;0.7243;1.5729;0.719;-2.4396;6652.0;-29.66;9.32;29.12;73.9;3.72;-100.01;5.0;983.31;52.709;35.955475;-83.92843;807.35;NaN;;5.15;12.226105;47.8;15 / 19;142015;2022-10-26 13:32:25:894
12.1155;-0.4286;1.8817;8.5425;-4.2429;-2.2789;3.9773;1.8448;0.9244;-1.9997;-0.1513;3.607;6370.0;-35.53;9.34;18.41;55.96;0.03;-97.28;5.0;983.32;50.995;35.955475;-83.92843;807.35;NaN;;5.15;12.226105;47.8;15 / 19;142515;2022-10-26 13:32:26:394
10.0481;-6.4496;-2.0028;8.4774;4.8287;-0.9941;2.1211;-10.7481;-0.2124;2.8525;0.2493;-4.0104;6761.0;-19.18;25.65;28.74;47.09;-2.13;-90.81;5.0;983.31;56.518;35.955486;-83.92841;807.91;NaN;;4.79;12.226105;42.3;15 / 19;143015;2022-10-26 13:32:26:894
14.6267;1.7154;2.1954;8.433;-3.8647;-3.181;3.8697;2.8776;2.5078;-0.3399;-0.4616;0.8372;5978.0;-47.66;2.76;34.97;141.41;23.21;-110.67;5.0;983.32;54.812;35.955486;-83.92841;807.91;NaN;;4.79;12.226105;42.3;15 / 19;143515;2022-10-26 13:32:27:394
9.2773;-3.6954;-3.7971;8.4416;4.7134;-1.6414;-0.7175;-9.3034;-2.0859;1.9562;-0.458;-2.1897;7332.0;-44.77;-6.49;35.38;53.34;-28.73;-101.0;5.0;983.3;54.89;35.955498;-83.928406;808.79;NaN;;5.22;12.226105;50.7;15 / 19;144014;2022-10-26 13:32:27:893
12.5545;2.8968;2.077;9.3129;-2.0819;-2.2598;0.8101;3.3629;2.6408;1.3493;-0.8347;0.8435;6566.0;-40.35;-16.99;31.71;140.7;12.26;-103.64;5.0;983.3;51.192;35.955498;-83.928406;808.79;NaN;;5.22;12.226105;50.7;15 / 19;144514;2022-10-26 13:32:28:393
6.798;-4.847;-2.8454;9.0517;3.106;-2.1423;-0.1322;-7.3616;-0.3859;0.962;-0.1246;-1.2805;6583.0;-32.89;-6.71;28.52;74.69;-18.46;-103.32;5.0;983.29;51.224;35.95551;-83.92839;809.42;NaN;;5.62;12.226105;46.2;15 / 19;145015;2022-10-26 13:32:28:894
15.1355;4.2221;-1.8829;8.3373;-3.4539;-3.838;8.6679;5.4014;0.3604;-1.5338;0.0802;1.3156;6464.0;-23.14;-5.01;26.81;131.18;20.53;-109.68;5.0;983.29;50.664;35.95551;-83.92839;809.42;NaN;;5.62;12.226105;46.2;15 / 19;145515;2022-10-26 13:32:29:394
6.7454;-1.6149;-1.1767;8.4992;3.5377;-3.379;-0.8337;-7.8926;0.2701;-0.5281;-0.2385;-0.6548;7177.0;-18.02;-3.04;28.73;75.84;-17.65;-110.19;5.0;983.28;51.858;35.955517;-83.92838;811.27;NaN;;4.79;12.226105;59.5;15 / 19;146014;2022-10-26 13:32:29:893
16.0956;1.0343;-2.1535;7.8828;-5.1015;-2.8296;7.7933;5.0536;-0.3425;-0.2896;0.1458;0.7139;6724.0;-14.7;4.69;30.49;108.35;29.47;-110.06;5.0;983.3;55.58;35.955517;-83.92838;811.27;NaN;;4.79;12.226105;59.5;15 / 19;146514;2022-10-26 13:32:30:393
9.7307;-1.9295;-2.9746;9.1639;3.4694;-0.3949;0.879;-8.0561;-3.3532;0.013;-0.3428;1.0558;7986.0;-23.04;-0.3;29.34;72.97;-20.72;-92.47;5.0;983.26;52.03;35.955524;-83.92837;810.64;NaN;;5.0;12.226105;43.2;14 / 19;147014;2022-10-26 13:32:30:893
14.7117;-1.914;1.689;8.3786;-3.721;-3.4818;9.9369;5.7207;0.6753;-1.5025;0.1971;0.8874;7804.0;-23.14;-4.01;28.61;131.68;22.3;-112.57;5.0;983.26;53.755;35.955524;-83.92837;810.64;NaN;;5.0;12.226105;43.2;14 / 19;147514;2022-10-26 13:32:31:393
12.7343;-2.4897;-2.8884;9.51;-0.6259;-2.3107;-1.3166;-3.0529;-1.3918;-1.2409;-0.5257;2.3697;8563.0;-23.19;-0.13;27.75;77.14;-11.69;-99.01;5.0;983.24;51.136;35.955532;-83.92836;810.87;NaN;;4.86;12.226105;50.8;14 / 19;148014;2022-10-26 13:32:31:893
15.3796;-0.9434;1.573;8.1266;-3.9018;-3.8607;8.0993;3.0025;2.6508;-1.5499;1.1911;0.869;8184.0;-20.74;1.71;32.25;126.8;25.27;-120.15;5.0;983.27;54.265;35.955532;-83.92836;810.87;NaN;;4.86;12.226105;50.8;14 / 19;148514;2022-10-26 13:32:32:393
8.3148;2.3868;1.4414;7.7577;1.9725;5.6655;-2.2179;-2.8393;-2.4035;-1.3423;1.4023;1.0997;9850.0;-30.06;-10.26;16.69;96.86;-18.4;-63.22;5.0;983.23;56.276;35.95554;-83.92835;812.13;NaN;;4.72;12.226105;49.2;14 / 19;149015;2022-10-26 13:32:32:894
4.4004;-1.5299;9.7487;5.1937;-1.7054;8.1417;0.1726;-0.6148;5.3315;1.36;0.5755;0.4436;17029.0;-27.96;-10.72;-7.88;127.15;10.02;-32.53;5.0;983.23;52.975;35.95554;-83.92835;812.13;NaN;;4.72;12.226105;49.2;14 / 19;149514;2022-10-26 13:32:33:393
4.5488;-0.8163;7.8766;7.2774;-1.649;6.3632;-0.3298;-2.0904;5.2855;-0.6652;-1.2266;0.0748;19608.0;-25.99;-4.44;-10.05;131.03;9.68;-48.83;5.0;983.27;51.807;35.955547;-83.92834;811.32;NaN;;5.11;12.226105;33.2;14 / 19;150015;2022-10-26 13:32:33:894
4.5009;-3.5228;7.0196;5.5382;-3.0782;7.4849;1.58;-4.255;8.7734;2.8147;1.6852;1.4959;15913.0;-29.44;-2.06;-5.25;112.86;18.29;-36.5;5.0;983.22;51.784;35.955547;-83.92834;811.32;NaN;;5.11;12.226105;33.2;14 / 19;150515;2022-10-26 13:32:34:394
1.2867;2.4479;7.5942;1.0758;1.8585;9.5686;0.4552;0.6823;0.462;-0.1717;-2.0318;-0.6499;41393.0;-21.88;-2.32;-23.66;81.05;-10.92;-6.41;5.0;983.17;52.17;35.95556;-83.92833;810.63;NaN;;5.47;12.226105;34.6;13 / 19;151014;2022-10-26 13:32:34:893
2.1511;-0.4071;7.5437;1.9028;0.9011;9.578;2.0089;-1.3853;0.4101;0.7028;1.2157;0.5875;27216.998;-25.78;-5.62;-21.51;109.33;-0.21;-20.22;5.0;983.22;51.261;35.95556;-83.92833;810.63;NaN;;5.47;12.226105;34.6;13 / 19;151515;2022-10-26 13:32:35:394
0.1783;1.8099;4.9989;2.9387;0.4331;9.346;1.1393;-0.3513;3.9017;-0.2397;0.0587;-0.9936;33719.0;-26.79;-7.37;-21.07;103.48;-3.96;-13.26;5.0;983.19;53.919;35.955566;-83.928314;809.32;NaN;;4.64;12.226105;42.5;13 / 19;152015;2022-10-26 13:32:35:894
2.6563;0.1448;8.3471;1.9802;2.2205;9.3445;1.2957;-2.0854;1.7056;1.4153;0.435;0.2519;26266.0;-24.43;-6.56;-18.99;106.72;-3.31;-14.22;5.0;983.14;51.342;35.955566;-83.928314;809.32;NaN;;4.64;12.226105;42.5;13 / 19;152515;2022-10-26 13:32:36:394
1.9487;1.4761;6.6185;3.2644;0.0628;9.2472;0.8836;-2.2931;7.1591;-0.3806;0.7924;-0.6895;29894.0;-25.44;-5.19;-20.53;106.21;-0.37;-19.44;5.0;983.18;57.612;35.955578;-83.92831;808.3;NaN;;4.79;12.226105;43.8;14 / 19;153015;2022-10-26 13:32:36:894
1.1432;-0.3712;9.6936;1.718;0.771;9.6242;-0.0046;-1.028;-0.5504;1.1365;-0.1269;0.8892;26087.0;-23.62;-1.42;-21.62;86.99;-4.51;-10.12;5.0;983.17;51.739;35.955578;-83.92831;808.3;NaN;;4.79;12.226105;43.8;14 / 19;153515;2022-10-26 13:32:37:394
-1.5215;0.1998;9.8662;-3.5121;-0.4137;9.1468;1.8499;0.5432;0.5226;0.3861;0.4135;0.1727;39935.0;-16.72;2.78;-25.31;86.74;4.94;16.1;5.0;983.17;51.312;35.955585;-83.92829;807.75;NaN;;4.93;12.226105;45.4;14 / 19;154014;2022-10-26 13:32:37:893
-3.7385;0.3903;6.7968;-4.3731;0.6985;8.7498;-3.7142;-2.3377;2.8443;0.3531;0.0276;1.2952;48963.0;-3.34;11.64;-29.19;48.75;-4.08;26.56;5.0;983.16;52.769;35.955585;-83.92829;807.75;NaN;;4.93;12.226105;45.4;14 / 19;154515;2022-10-26 13:32:38:394
0.6918;3.0464;8.6725;-1.3039;1.858;9.5403;-0.2385;-1.1485;2.0171;0.2369;-0.7847;0.3447;53873.996;-1.57;11.53;-36.28;29.28;-9.19;12.51;5.0;983.22;54.805;35.955593;-83.92828;808.44;NaN;;4.97;12.226105;41.1;13 / 19;155015;2022-10-26 13:32:38:894
-1.7429;0.7074;6.3909;-2.5503;0.9443;9.422;-1.5373;-0.48;5.803;0.6123;0.636;0.272;45348.0;-15.13;7.22;-35.98;67.41;-5.53;15.15;5.0;983.16;56.041;35.955593;-83.92828;808.44;NaN;;4.97;12.226105;41.1;13 / 19;155515;2022-10-26 13:32:39:394
-1.1707;1.8039;5.3545;-3.166;0.72;9.2535;1.3533;-0.766;2.5125;0.2056;0.1906;-0.4845;50496.0;-10.91;1.37;-34.39;81.15;-4.4;17.56;5.0;983.21;60.322;35.955605;-83.92827;807.93;NaN;;4.86;12.226105;42.5;14 / 19;156014;2022-10-26 13:32:39:893
-2.3809;0.4729;7.1082;-3.2795;1.1162;9.1744;-2.6883;-0.8483;4.167;0.8985;0.5829;0.0347;49297.0;-4.41;1.35;-29.85;73.69;-6.54;19.67;5.0;983.16;57.296;35.955605;-83.92827;807.93;NaN;;4.86;12.226105;42.5;14 / 19;156514;2022-10-26 13:32:40:393
-2.9423;-0.5937;9.009;-2.7386;-0.1595;9.4151;-0.5152;-0.5022;2.9164;-0.3344;-0.3473;-1.253;59429.0;1.82;0.53;-31.48;85.7;0.93;16.22;5.0;983.16;59.032;35.955612;-83.92825;809.1;NaN;;5.36;12.226105;46.3;14 / 19;157015;2022-10-26 13:32:40:894
-1.0917;1.6041;6.8471;-1.6593;3.7473;8.9093;0.2739;-1.8865;1.8381;0.7087;1.0856;0.7988;49971.0;-6.34;0.13;-35.78;41.31;-16.85;4.84;5.0;983.18;57.784;35.955612;-83.92825;809.1;NaN;;5.36;12.226105;46.3;14 / 19;157515;2022-10-26 13:32:41:394
-0.9039;2.7066;5.747;-1.4155;2.2597;9.4372;1.369;0.5796;1.5139;-0.3242;0.1846;-0.7494;50970.0;-6.04;-2.94;-38.79;45.94;-16.77;3.73;5.0;983.19;62.846;35.95562;-83.928246;809.08;NaN;;5.04;12.226105;54.2;14 / 19;158014;2022-10-26 13:32:41:893
-1.6256;1.5096;5.4347;-2.2408;2.2961;9.267;-0.3481;-1.692;-1.5426;0.2989;0.6432;0.7459;52273.0;-7.16;2.49;-41.1;59.79;-9.79;11.07;5.0;983.15;54.963;35.95562;-83.928246;809.08;NaN;;5.04;12.226105;54.2;14 / 19;158515;2022-10-26 13:32:42:394
-1.8817;2.5005;5.6764;-1.9498;1.4636;9.4988;-0.0387;-0.6375;0.6755;-0.1023;0.1981;-0.8019;51724.0;-5.85;3.04;-43.46;58.01;-8.58;11.6;5.0;983.17;54.8;35.955627;-83.92823;809.06;NaN;;5.58;12.226105;57.4;14 / 19;159014;2022-10-26 13:32:42:893
-1.3262;1.762;6.7825;-3.1188;3.3453;8.6748;0.5552;-1.7647;-0.8107;0.4925;0.7031;0.8494;55867.0;-5.61;-0.08;-44.74;56.62;-19.95;19.77;5.0;983.17;54.903;35.955627;-83.92823;809.06;NaN;;5.58;12.226105;57.4;14 / 19;159515;2022-10-26 13:32:43:394
-4.3394;3.2859;6.9631;-3.3793;0.316;9.2006;0.5908;3.2698;-4.7289;-0.5049;-0.2495;-1.0132;65738.0;-0.17;-3.06;-45.32;74.65;-10.38;21.76;5.0;983.17;55.292;35.95563;-83.928215;808.57;NaN;;4.93;12.226105;56.4;14 / 19;160015;2022-10-26 13:32:43:894
-0.2982;2.4586;5.0228;-2.9963;3.1633;8.7856;0.4922;-2.9945;-0.2299;0.7972;0.7863;1.5817;60976.0;-3.99;2.19;-45.99;50.21;-18.82;18.83;5.0;983.16;60.8;35.95563;-83.928215;808.57;NaN;;4.93;12.226105;56.4;14 / 19;160514;2022-10-26 13:32:44:393
-4.3478;1.9896;6.9476;-2.3194;0.5651;9.5117;-0.3605;1.6941;-3.5669;-0.1277;-0.5865;-1.4388;60836.0;0.08;0.04;-49.5;69.81;-7.02;18.37;5.0;983.12;58.71;35.95564;-83.92821;810.04;NaN;;5.26;12.226105;50.0;14 / 19;161014;2022-10-26 13:32:44:893
-0.3102;1.4928;3.4845;-3.3762;2.7025;8.8016;1.2863;-3.2391;0.4986;0.451;-0.0087;0.4736;59470.004;-5.48;-2.68;-50.32;67.2;-16.0;20.99;5.0;983.11;58.488;35.95564;-83.92821;810.04;NaN;;5.26;12.226105;50.0;14 / 19;161515;2022-10-26 13:32:45:394
-2.7724;1.561;7.2206;-1.8297;0.2784;9.6304;-0.7648;1.1193;-3.9515;0.1399;-0.4642;-1.5095;61208.0;-1.74;-8.1;-48.94;110.38;-2.73;16.14;5.0;983.13;65.694;35.955647;-83.92819;809.68;NaN;;4.97;12.226105;51.8;15 / 19;162015;2022-10-26 13:32:45:894
0.5004;3.2154;5.2944;-2.1157;2.9415;9.1127;1.5787;-1.9204;-0.2618;0.2393;0.1015;0.6209;54745.996;-13.74;-13.46;-43.37;91.93;-17.45;13.07;5.0;983.19;60.803;35.955647;-83.92819;809.68;NaN;;4.97;12.226105;51.8;15 / 19;162515;2022-10-26 13:32:46:394
-4.52;0.376;11.1637;-1.5674;0.3714;9.6734;0.0593;2.2135;-3.901;-0.357;-0.1144;-0.836;58607.0;-10.44;-9.88;-42.94;116.76;-2.17;9.2;5.0;983.2;60.244;35.955654;-83.92818;810.24;NaN;;5.83;12.226105;57.0;16 / 19;163014;2022-10-26 13:32:46:893
0.1172;2.1153;7.9029;-1.6717;2.7366;9.2675;1.2256;-1.0039;-4.439;0.3323;-0.3125;0.5204;57796.0;-8.79;-7.27;-42.9;74.28;-16.2;10.23;5.0;983.19;53.68;35.955654;-83.92818;810.24;NaN;;5.83;12.226105;57.0;16 / 19;163514;2022-10-26 13:32:47:393
-7.1369;-1.3143;10.8559;-3.0435;-1.2569;9.2373;-0.1696;1.7766;-2.4358;0.1038;0.0197;0.4846;59547.0;-4.5;-4.97;-41.91;118.96;6.41;18.0;5.0;983.19;53.118;35.95566;-83.92816;810.76;NaN;;4.93;12.226105;67.9;16 / 19;164014;2022-10-26 13:32:47:893
-1.3358;2.2732;10.8918;-0.5247;1.0983;9.7308;-0.1886;1.4927;-4.9545;-1.0953;-1.5506;0.1592;57915.0;-3.06;-1.71;-39.6;68.28;-10.65;14.19;5.0;983.21;57.154;35.95566;-83.92816;810.76;NaN;;4.93;12.226105;67.9;16 / 19;164514;2022-10-26 13:32:48:393
-1.6854;1.8147;10.6418;-0.6586;0.8582;9.7468;-1.4611;-1.3945;-0.9893;1.7031;0.1193;0.594;48048.0;-11.76;-0.04;-37.16;77.68;-5.02;3.87;5.0;983.2;65.169;35.95567;-83.92815;810.08;NaN;;5.54;12.226105;52.9;16 / 19;165014;2022-10-26 13:32:48:893
-2.7628;6.0643;6.4881;-1.8248;4.4098;8.567;1.5115;-1.3749;-0.4645;0.6872;0.4591;0.3738;51048.0;-14.14;-11.34;-38.46;75.53;-26.72;12.02;5.0;983.23;66.782;35.95567;-83.92815;810.08;NaN;;5.54;12.226105;52.9;16 / 19;165514;2022-10-26 13:32:49:393
-3.0703;3.9897;7.1249;-1.6087;3.7875;8.9015;-1.4025;0.348;-1.4612;0.1455;-0.1551;0.3777;57072.0;-9.28;-10.61;-41.74;77.32;-21.45;12.59;5.0;983.16;64.182;35.955677;-83.92813;811.51;NaN;;5.15;12.226105;53.2;16 / 19;166014;2022-10-26 13:32:49:893
-0.2958;4.6421;5.6142;-0.9114;4.4557;8.6883;0.8889;-0.6462;-3.0282;0.3379;-0.0347;0.4419;56005.0;-12.34;-9.92;-41.91;59.79;-27.02;5.99;5.0;983.21;64.348;35.955677;-83.92813;811.51;NaN;;5.15;12.226105;53.2;16 / 19;166514;2022-10-26 13:32:50:393
-2.8382;4.3322;10.6286;-1.0433;3.4259;9.1294;-0.7739;0.7024;-1.7495;-0.334;0.0705;-0.2072;54137.996;-16.44;-9.08;-40.73;71.54;-22.4;5.55;5.0;983.2;64.936;35.955685;-83.92812;812.18;NaN;;5.04;12.226105;45.5;16 / 19;167015;2022-10-26 13:32:50:894
0.2632;4.7198;6.5157;-0.607;4.5876;8.6462;0.188;-1.2903;1.0031;-0.1364;-0.0206;0.0296;53793.0;-15.32;-8.4;-38.78;58.99;-27.89;4.02;5.0;983.22;56.835;35.955685;-83.92812;812.18;NaN;;5.04;12.226105;45.5;16 / 19;167515;2022-10-26 13:32:51:394
-2.205;3.3876;8.2561;-0.9994;3.2383;9.2025;-0.7796;0.0723;-1.8945;-0.5589;0.0412;-0.8041;53123.0;-13.59;-6.43;-38.36;60.03;-23.7;3.53;5.0;983.21;60.074;35.955696;-83.9281;813.89;NaN;;5.0;12.226105;42.8;16 / 19;168015;2022-10-26 13:32:51:894
0.1842;4.0938;6.3359;-0.4888;4.0912;8.8991;-0.074;0.4386;-0.7898;0.4156;0.0654;0.495;50742.0;-11.92;-2.85;-36.51;48.46;-24.66;3.14;5.0;983.17;56.307;35.955696;-83.9281;813.89;NaN;;5.0;12.226105;42.8;16 / 19;168516;2022-10-26 13:32:52:395
-0.5925;3.3601;5.7147;-0.5886;3.8683;8.9922;2.4889;-0.0091;0.3071;0.1071;-0.2418;-1.1539;50472.0;-9.45;-1.48;-37.26;40.36;-23.23;3.74;5.0;983.2;57.339;35.955704;-83.92809;812.98;NaN;;4.64;12.226105;39.2;16 / 19;169014;2022-10-26 13:32:52:893
-0.5698;4.0854;5.8187;9.0E-4;4.6925;8.6111;-1.5174;-1.3915;0.1442;0.2325;0.4463;0.5043;52739.0;-10.71;-4.18;-39.36;37.76;-26.88;-0.14;5.0;983.18;61.711;35.955704;-83.92809;812.98;NaN;;4.64;12.226105;39.2;16 / 19;169514;2022-10-26 13:32:53:393
0.2898;4.6062;6.0308;0.0316;4.1039;8.9066;0.329;-0.9849;3.5632;-0.2318;0.1383;-0.1223;52151.0;-10.2;-5.64;-42.32;34.89;-25.39;-1.56;5.0;983.18;58.331;35.95571;-83.928085;812.44;NaN;;4.54;12.226105;48.3;16 / 19;170014;2022-10-26 13:32:53:893
-0.699;3.3565;8.9815;-0.7982;4.7445;8.5454;-0.2986;-0.8165;0.6084;0.3337;0.38;0.7465;35920.0;-9.79;-7.03;-43.89;48.1;-25.77;5.0;5.0;983.17;62.357;35.95571;-83.928085;812.44;NaN;;4.54;12.226105;48.3;16 / 19;170514;2022-10-26 13:32:54:393
-0.9589;3.8797;5.2597;-0.6544;4.5372;8.6692;-0.4114;-1.271;3.6561;-0.1205;0.3007;-0.8999;35992.0;-7.01;-10.58;-42.52;46.07;-27.56;4.32;5.0;983.18;61.209;35.95572;-83.92808;812.44;NaN;;4.61;12.226105;36.0;17 / 19;171015;2022-10-26 13:32:54:894
-1.9271;3.0655;5.388;-2.3407;4.766;8.2448;-0.1812;-0.4933;-0.3633;0.4095;0.3848;0.0471;37865.0;-7.95;-8.34;-37.99;61.75;-29.08;15.85;5.0;983.15;56.116;35.95572;-83.92808;812.44;NaN;;4.61;12.226105;36.0;17 / 19;171515;2022-10-26 13:32:55:394
-3.1005;2.4251;5.0755;-4.4051;3.4004;8.0748;0.9712;-1.0074;-0.9225;0.6795;-0.2343;-0.6707;53526.0;-1.09;-6.19;-37.31;76.7;-18.43;28.74;5.0;983.18;52.229;35.95573;-83.92807;813.92;NaN;;4.64;12.226105;30.0;17 / 19;172016;2022-10-26 13:32:55:895
-3.0799;1.9415;6.932;-3.5812;3.8587;8.2738;-0.7567;-0.3612;-1.7018;0.059;-0.1072;0.6189;64227.0;1.01;-1.84;-37.97;49.66;-23.17;23.4;5.0;983.17;54.854;35.95573;-83.92807;813.92;NaN;;4.64;12.226105;30.0;17 / 19;172514;2022-10-26 13:32:56:393
-3.2381;4.1812;4.8565;-2.4699;3.2283;8.9246;1.6887;0.5684;-0.7896;0.1568;-0.0194;-0.7827;66651.0;-0.51;-2.7;-41.49;46.34;-19.97;14.4;5.0;983.2;54.961;35.955746;-83.92806;815.68;NaN;;4.75;12.226105;25.9;17 / 19;173014;2022-10-26 13:32:56:893
-0.5949;3.1256;4.3992;-1.9261;4.4285;8.5351;0.2381;-1.0273;1.1209;0.6945;0.6917;0.269;63489.996;-6.79;-3.47;-42.77;46.3;-26.85;12.72;5.0;983.14;52.531;35.955746;-83.92806;815.68;NaN;;4.75;12.226105;25.9;17 / 19;173514;2022-10-26 13:32:57:393
-1.707;3.8593;6.3814;-2.0676;3.3391;8.9859;0.8866;0.9021;-1.0682;-0.1781;0.0157;-0.763;67089.0;-5.34;-7.37;-43.72;53.49;-22.69;10.99;5.0;983.19;55.927;35.955753;-83.928055;817.21;NaN;;5.11;12.226105;39.3;17 / 19;174015;2022-10-26 13:32:57:894
-1.5048;3.4845;4.8769;-1.9112;4.1015;8.7003;-0.7546;-1.1908;0.1619;0.3905;0.5698;0.4768;63967.0;-9.41;-5.08;-42.81;55.86;-24.72;12.39;5.0;983.18;56.558;35.955753;-83.928055;817.21;NaN;;5.11;12.226105;39.3;17 / 19;174514;2022-10-26 13:32:58:393
-1.9499;4.4423;5.2155;-2.1955;3.4098;8.9288;2.2023;0.7613;-0.7619;-0.1541;0.4269;-0.5106;66415.0;-6.24;-5.61;-44.02;61.87;-20.35;13.81;5.0;983.17;53.063;35.955765;-83.92805;814.33;NaN;;4.93;12.226105;27.1;18 / 19;175015;2022-10-26 13:32:58:894
-1.1192;3.6763;4.7115;-2.2119;4.4608;8.4486;1.0107;-1.4815;-1.7698;0.3935;0.3305;0.2323;63571.0;-5.23;-2.81;-45.69;44.67;-24.43;12.94;5.0;983.18;53.925;35.955765;-83.92805;814.33;NaN;;4.93;12.226105;27.1;18 / 19;175515;2022-10-26 13:32:59:394
-1.6807;3.7959;5.0492;-1.8753;3.4766;8.9759;1.9232;0.8645;-0.2893;-0.3132;-0.3606;-0.3655;63976.0;-6.04;-4.39;-47.38;49.46;-21.44;11.02;5.0;983.18;53.887;35.955776;-83.92804;814.51;NaN;;5.04;12.226105;43.7;18 / 19;176014;2022-10-26 13:32:59:893
-0.4501;3.4343;4.0161;-1.9383;4.5862;8.4487;1.22;-1.4626;-2.5622;0.5468;0.5311;0.522;62973.0;-11.02;-3.56;-49.44;53.35;-23.71;10.79;5.0;983.17;53.328;35.955776;-83.92804;814.51;NaN;;5.04;12.226105;43.7;18 / 19;176515;2022-10-26 13:33:00:394
-2.3043;4.107;8.4607;-2.2032;3.4049;8.9288;1.9156;-0.3955;0.7826;-0.5437;-0.3209;-0.5463;64550.004;-10.93;-4.05;-52.26;60.93;-20.32;13.86;5.0;983.18;56.866;35.955784;-83.928024;813.77;NaN;;4.97;12.226105;50.4;18 / 19;177014;2022-10-26 13:33:00:893
-1.5586;3.0165;4.8051;-1.89;4.3661;8.5753;0.4312;-1.5561;-2.4778;0.5078;0.2865;0.3542;63505.996;-12.79;-3.9;-55.03;52.12;-26.44;12.43;5.0;983.16;55.144;35.955784;-83.928024;813.77;NaN;;4.97;12.226105;50.4;18 / 19;177515;2022-10-26 13:33:01:394
-2.473;3.6595;6.5719;-2.0362;2.6021;9.2333;-0.3561;1.1174;-2.5532;-0.3883;-0.4934;-0.0599;62916.0;-12.79;-5.83;-55.99;69.66;-17.72;14.37;5.0;983.14;55.952;35.95579;-83.92802;811.66;NaN;;4.68;12.226105;58.1;18 / 19;178014;2022-10-26 13:33:01:893
-0.9649;3.6233;5.4622;-1.9417;4.0133;8.7346;0.284;-1.3718;-2.0943;0.5408;0.2705;0.6807;61872.0;-12.99;-3.69;-56.21;54.73;-24.16;12.53;5.0;983.21;61.279;35.95579;-83.92802;811.66;NaN;;4.68;12.226105;58.1;18 / 19;178514;2022-10-26 13:33:02:393
-5.54;2.2481;11.0728;-2.665;1.9371;9.2367;0.5048;1.9219;-1.8916;-0.355;-0.0231;-0.331;61528.0;-9.24;-4.11;-57.19;71.22;-13.28;15.6;5.0;983.17;58.094;35.9558;-83.928;812.93;NaN;;4.86;12.226105;46.6;18 / 19;179015;2022-10-26 13:33:02:894
-1.5168;3.4175;9.2554;-2.531;3.7282;8.7101;0.7175;-1.5228;-1.9488;-0.4216;-0.5567;-0.2375;63457.0;-2.66;-6.47;-58.16;51.24;-22.34;16.2;5.0;983.21;69.597;35.9558;-83.928;812.93;NaN;;4.86;12.226105;46.6;18 / 19;179514;2022-10-26 13:33:03:393
-1.7836;3.6138;9.8471;-1.9885;2.4838;9.2762;0.4993;1.2055;-2.0587;-0.0608;-0.7328;-0.1143;60667.0;-0.66;-10.74;-55.71;82.77;-13.86;16.36;5.0;983.19;71.774;35.95581;-83.92799;813.71;NaN;;4.97;12.226105;43.1;17 / 19;180014;2022-10-26 13:33:03:893
-2.333;4.2365;9.9452;-1.938;3.8948;8.7889;0.8884;-1.7199;-2.1454;-0.4134;-0.21;-0.4153;66570.0;-1.2;-13.82;-46.93;64.49;-23.4;12.44;5.0;983.21;64.285;35.95581;-83.92799;813.71;NaN;;4.97;12.226105;43.1;17 / 19;180515;2022-10-26 13:33:04:394
-1.2879;3.7959;10.5796;-1.9403;2.6671;9.2354;1.0566;0.6693;-0.212;-0.0228;-0.2953;-0.3971;65570.0;0.86;-11.12;-39.73;89.07;-15.78;11.87;5.0;983.22;66.29;35.95582;-83.92798;812.96;NaN;;5.11;12.226105;62.9;17 / 19;181015;2022-10-26 13:33:04:894
-1.8039;2.9076;10.4827;-2.6308;2.9881;8.9622;1.8124;0.0552;1.6287;0.1382;-0.1756;-1.058;68667.0;4.2;-7.24;-38.25;46.26;-19.37;15.3;5.0;983.23;54.865;35.95582;-83.92798;812.96;NaN;;5.11;12.226105;62.9;17 / 19;181514;2022-10-26 13:33:05:393
-3.5432;4.2497;10.6071;-3.7701;3.0966;8.5069;-0.6672;-0.058;0.9593;0.3891;0.1906;0.2743;72307.0;3.28;-8.19;-40.97;83.62;-13.75;22.98;5.0;983.18;51.679;35.955826;-83.92796;813.31;NaN;;5.26;12.226105;77.6;17 / 19;182014;2022-10-26 13:33:05:893
-2.7281;4.4734;7.7713;-3.6568;3.1321;8.5433;0.4094;-0.3879;4.0837;0.0909;-0.1756;-0.9815;81253.0;5.01;-14.83;-45.99;78.44;-22.73;25.15;5.0;983.18;53.222;35.955826;-83.92796;813.31;NaN;;5.26;12.226105;77.6;17 / 19;182515;2022-10-26 13:33:06:394
-1.4904;1.7728;9.9547;-2.0617;2.843;9.1563;-4.405;2.014;-0.0012;0.4155;-0.0334;0.4768;74656.0;-5.17;-17.29;-49.95;98.77;-16.85;12.69;5.0;983.17;51.452;35.95583;-83.92794;812.93;NaN;;5.4;12.226105;94.4;17 / 19;183014;2022-10-26 13:33:06:893
-2.551;2.2911;7.2218;-2.9333;2.0202;9.137;-0.3465;-0.9724;1.0813;-1.0336;0.332;-0.6834;66161.0;-15.54;-22.33;-50.87;112.13;-11.89;17.8;5.0;983.18;52.517;35.95583;-83.92794;812.93;NaN;;5.4;12.226105;94.4;17 / 19;183515;2022-10-26 13:33:07:394
-3.4319;2.7437;5.3821;-2.8289;2.7928;8.9648;-1.0121;-1.0704;-3.0342;0.4192;0.1729;0.7565;70654.0;-13.65;-19.52;-55.52;106.7;-12.41;16.84;5.0;983.19;54.664;35.955826;-83.927925;812.64;NaN;;5.33;12.226105;92.5;17 / 19;184014;2022-10-26 13:33:07:893
-5.412;3.1077;4.2508;-5.5824;3.972;7.0164;0.0447;-1.2256;-1.2338;0.6341;1.0283;0.5514;79440.0;-12.08;-28.74;-51.39;108.01;-23.89;38.51;5.0;983.18;59.031;35.955826;-83.927925;812.64;NaN;;5.33;12.226105;92.5;17 / 19;184514;2022-10-26 13:33:08:393
4.252;4.7605;3.4798;-0.7728;5.0361;8.3792;1.0729;-0.3534;-3.0756;0.454;-1.0625;0.6834;67708.0;-15.43;-39.99;-37.73;126.9;-30.19;14.13;5.0;983.19;63.119;35.95583;-83.92791;812.28;NaN;;5.9;12.226105;85.4;17 / 19;185014;2022-10-26 13:33:08:893
-6.7585;-2.1751;15.0936;-0.786;-0.1857;9.7733;0.2649;4.2268;-6.0897;-0.1514;0.3929;1.5464;43584.0;-32.23;-30.49;-34.03;131.46;1.09;4.6;5.0;983.23;60.937;35.95583;-83.92791;812.28;NaN;;5.9;12.226105;85.4;17 / 19;185515;2022-10-26 13:33:09:394
5.0121;3.2357;6.8399;-0.9189;2.8853;9.3274;5.3063;-0.3673;-3.3407;-0.1123;-0.8311;0.4836;64918.004;-25.91;-19.67;-42.0;103.58;-17.68;13.05;5.0;983.19;63.564;35.95583;-83.92789;811.78;NaN;;5.4;12.226105;85.7;17 / 19;186014;2022-10-26 13:33:09:893
0.5518;-3.772;15.0721;0.7221;-0.1935;9.7781;-4.9454;-4.9641;10.6657;0.968;-0.111;1.2432;37201.0;-28.28;-9.98;-39.24;122.23;5.89;-7.51;5.0;983.21;53.083;35.95583;-83.92789;811.78;NaN;;5.4;12.226105;85.7;17 / 19;186515;2022-10-26 13:33:10:394
2.6133;-1.2592;8.1652;-0.8367;1.3448;9.6779;6.0875;1.1413;-5.8248;-2.7082;0.067;-1.8726;61312.0;-16.56;-17.16;-36.77;120.78;-7.88;4.94;5.0;983.21;61.099;35.955833;-83.92787;812.34;NaN;;6.3;12.226105;56.2;17 / 19;187015;2022-10-26 13:33:10:894
-0.4956;-1.5885;9.5871;-1.7964;2.0152;9.4277;-1.8375;-5.4293;5.3399;1.9468;1.0262;2.1782;46050.0;-9.11;-10.29;-34.99;101.27;-11.86;10.79;5.0;983.22;52.324;35.955833;-83.92787;812.34;NaN;;6.3;12.226105;56.2;17 / 19;187514;2022-10-26 13:33:11:393
-1.5359;1.5;10.3077;0.232;2.6581;9.4367;2.244;0.0138;-2.1372;0.0251;-0.4118;-0.6469;68491.0;-6.36;-16.58;-31.07;76.4;-34.76;10.49;5.0;983.21;64.853;35.95584;-83.92786;811.41;NaN;;5.26;12.226105;61.0;17 / 19;188014;2022-10-26 13:33:11:893
2.1835;-0.274;7.302;-0.4902;4.964;8.4433;0.4491;-5.8171;3.4998;2.4084;1.5309;2.1564;43735.0;-14.42;-11.77;-31.41;112.68;-11.74;-2.26;5.0;983.13;51.779;35.95584;-83.92786;811.41;NaN;;5.26;12.226105;61.0;17 / 19;188514;2022-10-26 13:33:12:393
2.1811;5.1784;7.3164;2.2233;4.2381;8.5595;2.604;0.5437;3.9831;-1.0042;-2.087;-0.7448;56797.0;-18.99;-20.06;-30.69;105.83;-25.61;-14.56;5.0;983.18;55.382;35.95585;-83.92784;811.27;NaN;;5.08;12.226105;65.8;17 / 19;189015;2022-10-26 13:33:12:894
4.4124;1.992;2.5244;1.9955;4.899;8.2576;1.0719;-1.9294;0.3164;0.7131;1.1534;0.2857;24818.0;-34.78;-21.73;-22.07;98.41;-29.97;-13.59;5.0;983.13;60.969;35.95585;-83.92784;811.27;NaN;;5.08;12.226105;65.8;17 / 19;189515;2022-10-26 13:33:13:394
5.5998;-1.8817;11.3827;9.2303;-1.7037;2.8407;-3.4803;-0.3537;6.9062;-2.9108;-2.0725;-0.7757;20385.0;-38.44;-26.17;-13.44;159.56;5.11;-55.31;5.0;983.21;56.799;35.955856;-83.927826;810.84;NaN;;5.87;12.226105;50.4;16 / 19;190014;2022-10-26 13:33:13:893
6.1481;-0.9003;-0.3867;7.1221;1.206;6.6326;0.3808;-2.2495;-5.7858;2.0983;1.3807;-0.209;14459.0;-37.24;-33.6;4.84;136.88;-7.06;-47.04;5.0;983.22;57.086;35.955856;-83.927826;810.84;NaN;;5.87;12.226105;50.4;16 / 19;190514;2022-10-26 13:33:14:393
13.0274;0.0455;4.7617;9.1081;-3.5832;-0.611;-0.3741;3.9802;2.4998;-0.77;-1.4214;1.4821;12665.0;-37.63;-20.66;23.55;132.6;10.77;-81.51;5.0;983.26;58.45;35.955864;-83.92781;808.75;NaN;;5.15;12.226105;52.4;15 / 19;191014;2022-10-26 13:33:14:893
8.0991;-4.6612;-0.3927;8.1898;2.3729;4.8443;0.3191;-4.9472;-4.581;-0.6601;-0.6278;-0.6613;11686.0;-37.71;-11.31;25.86;98.13;-14.0;-59.4;5.0;983.19;57.244;35.955864;-83.92781;808.75;NaN;;5.15;12.226105;52.4;15 / 19;191515;2022-10-26 13:33:15:394
13.4082;0.0993;7.558;9.3915;-2.1277;-1.8556;2.5123;2.1544;5.8233;-2.1774;-1.8299;0.1728;11635.0;-44.77;-16.95;14.61;144.91;12.21;-85.9;5.0;983.27;55.682;35.95587;-83.9278;807.36;NaN;;5.76;12.226105;57.3;15 / 19;192015;2022-10-26 13:33:15:894
8.3124;-0.6918;1.2532;8.017;1.4151;5.4677;-1.216;-3.5959;-5.5398;-0.6477;-0.5563;0.3661;12099.0;-38.01;-22.2;18.73;113.75;-14.18;-51.17;5.0;983.23;55.457;35.95587;-83.9278;807.36;NaN;;5.76;12.226105;57.3;15 / 19;192514;2022-10-26 13:33:16:393
16.8485;-3.2907;5.9267;9.414;-2.4739;-1.1948;0.0017;1.9069;6.9954;-0.2667;-0.9589;0.5379;12402.0;-35.27;-25.03;11.36;168.95;14.61;-97.23;5.0;983.26;57.738;35.95588;-83.92779;805.52;NaN;;5.76;12.226105;48.9;16 / 19;193015;2022-10-26 13:33:16:894
9.8638;-4.9893;-1.2556;8.8507;0.0279;4.223;-1.0578;-3.73;-4.6859;-0.0339;-0.5806;0.2263;12199.0;-36.81;-15.86;17.94;116.33;-0.16;-64.49;5.0;983.24;53.766;35.95588;-83.92779;805.52;NaN;;5.76;12.226105;48.9;16 / 19;193514;2022-10-26 13:33:17:393
18.7194;-2.004;9.1669;8.2588;-4.9158;-1.9488;2.8588;3.8027;6.7459;1.5677;2.2945;-1.0171;11236.0;-36.07;-6.19;27.23;129.86;25.12;-92.52;5.0;983.25;57.605;35.95589;-83.92777;804.82;NaN;;6.48;12.226105;50.7;16 / 19;194014;2022-10-26 13:33:17:893
9.5871;-4.5679;-0.2321;9.1714;0.3582;3.4536;-3.0388;-5.9067;-5.8316;-0.7421;-1.653;0.8489;11522.0;-46.31;-4.05;21.53;88.04;-12.12;-55.97;5.0;983.21;56.218;35.95589;-83.92777;804.82;NaN;;6.48;12.226105;50.7;16 / 19;194515;2022-10-26 13:33:18:394
16.1471;-7.2577;3.8892;8.12;-4.9276;-2.4404;6.6885;0.7993;8.8347;3.3979;2.205;-1.3552;10154.0;-47.87;7.41;34.22;139.52;30.16;-106.73;5.0;983.28;61.842;35.9559;-83.92776;804.58;NaN;;5.9;12.226105;49.2;15 / 19;195014;2022-10-26 13:33:18:893
10.4683;-2.9255;1.689;9.3489;-0.0049;2.9611;-3.0596;-4.5514;-4.3745;-1.8919;-1.4966;1.7946;10834.0;-59.36;-18.83;3.54;131.34;0.03;-72.43;5.0;983.27;53.783;35.9559;-83.92776;804.58;NaN;;5.9;12.226105;49.2;15 / 19;195514;2022-10-26 13:33:19:393
11.5146;-5.103;5.0898;9.2436;-1.0288;3.1093;2.6989;-4.1348;2.0317;2.6813;1.5706;-0.9752;10046.0;-59.57;-18.71;7.33;167.16;18.63;-88.6;5.0;983.26;54.617;35.95591;-83.92774;804.98;NaN;;5.51;12.226105;51.2;15 / 19;196015;2022-10-26 13:33:19:894
11.0979;-2.4383;0.9147;9.2471;-1.8901;2.6625;-2.9191;-2.3744;-0.7197;-0.751;-1.4235;3.1714;11657.0;-44.02;-36.3;11.29;152.06;11.11;-73.94;5.0;983.27;55.843;35.95591;-83.92774;804.98;NaN;;5.51;12.226105;51.2;15 / 19;196514;2022-10-26 13:33:20:393
9.7235;-6.7956;0.7624;9.2286;-1.2171;3.0858;3.6183;-6.8909;1.5635;4.3579;0.6603;-2.0424;7857.0;-40.11;-25.14;27.92;144.57;28.8;-88.5;5.0;983.24;55.279;35.955917;-83.927734;804.16;NaN;;5.62;12.226105;52.7;15 / 19;197014;2022-10-26 13:33:20:893
7.6672;-5.0587;1.5383;8.9393;-3.3117;2.3003;-0.3661;-4.2892;-1.0221;-2.0318;-1.2679;3.0448;9759.0;-46.16;-3.17;27.49;112.52;19.74;-75.57;5.0;983.24;55.437;35.955917;-83.927734;804.16;NaN;;5.62;12.226105;52.7;15 / 19;197514;2022-10-26 13:33:21:393
9.0174;-9.0879;-0.2261;9.2123;-2.6794;2.0309;1.1089;-8.8231;-1.566;4.0097;-0.0687;-3.07;5481.0;-33.41;6.96;44.57;115.33;42.24;-95.39;5.0;983.24;55.64;35.95593;-83.92773;803.7;NaN;;5.65;12.226105;46.7;15 / 19;198015;2022-10-26 13:33:21:894
13.2299;-0.9577;3.134;7.9308;-5.7432;-0.5367;2.8007;3.2238;1.9602;-1.3594;-0.5485;1.8988;10139.0;-49.43;5.29;21.69;116.31;22.25;-84.69;5.0;983.26;54.826;35.95593;-83.92773;803.7;NaN;;5.65;12.226105;46.7;15 / 19;198514;2022-10-26 13:33:22:393
7.2111;-5.024;-0.6308;9.0917;-2.8868;2.2753;0.0582;-2.5568;0.2674;2.6082;0.6404;-1.4727;8476.0;-44.44;14.61;27.39;84.27;17.12;-75.95;5.0;983.23;56.04;35.955936;-83.92771;804.79;NaN;;5.54;12.226105;50.5;15 / 19;199015;2022-10-26 13:33:22:894
9.2423;-2.0853;1.0092;8.2177;-5.3335;-0.44;-0.9299;3.2241;1.0403;-1.9215;-0.338;1.4981;10885.0;-44.96;0.21;8.18;167.25;32.95;-93.07;5.0;983.24;57.678;35.955936;-83.92771;804.79;NaN;;5.54;12.226105;50.5;15 / 19;199515;2022-10-26 13:33:23:394
6.9607;-4.8027;0.2429;9.0844;-2.0672;3.0611;-0.5588;-3.9409;-2.4997;1.3303;0.6224;-0.7448;10106.0;-33.45;4.22;15.51;117.69;24.97;-85.5;5.0;983.21;57.244;35.955944;-83.927704;804.73;NaN;;5.33;12.226105;42.9;15 / 19;200015;2022-10-26 13:33:23:894
7.424;0.006;4.6828;8.5903;-4.6965;0.5656;-2.6117;3.361;3.078;-0.9684;-1.2842;1.2215;11745.0;-29.42;4.09;8.33;106.99;18.91;-75.14;5.0;983.24;57.537;35.955944;-83.927704;804.73;NaN;;5.33;12.226105;42.9;15 / 19;200514;2022-10-26 13:33:24:393
6.4738;-5.3797;-1.6053;9.383;-0.3623;2.828;-2.688;-3.9716;-1.912;0.0441;0.0558;-0.8584;10579.0;-32.36;10.54;19.39;69.85;2.12;-73.23;5.0;983.2;57.339;35.955956;-83.92769;804.16;NaN;;5.51;12.226105;38.7;15 / 19;201014;2022-10-26 13:33:24:893
13.104;-0.2815;0.6894;7.1599;-6.5487;-1.4215;1.7969;2.2701;3.1213;-0.3858;-1.1644;2.143;9738.0;-45.15;4.5;22.5;154.36;41.9;-101.23;5.0;983.25;61.164;35.955956;-83.92769;804.16;NaN;;5.51;12.226105;38.7;15 / 19;201514;2022-10-26 13:33:25:393
7.3905;-6.1696;0.0455;8.5255;1.3753;4.647;-0.2093;-7.032;-5.5186;0.5682;1.291;-1.777;10136.0;-43.37;8.14;30.34;83.0;5.15;-69.69;5.0;983.19;56.891;35.955963;-83.92768;802.82;NaN;;5.4;12.226105;50.1;15 / 19;202015;2022-10-26 13:33:25:894
11.3396;-1.4163;6.3706;9.004;-3.8031;0.7971;-0.2128;3.0169;3.0434;-1.7999;-0.9777;1.6395;11190.0;-48.0;-1.54;1.05;165.59;22.82;-84.94;5.0;983.24;59.825;35.955963;-83.92768;802.82;NaN;;5.4;12.226105;50.1;15 / 19;202514;2022-10-26 13:33:26:393
5.5603;-7.6552;-0.0861;9.0441;0.8176;3.7022;-1.1079;-5.9483;-3.4623;0.9567;-0.2099;-1.3143;10825.0;-36.68;16.03;4.22;54.85;5.56;-66.99;5.0;983.21;64.776;35.955975;-83.92767;803.19;NaN;;5.47;12.226105;42.4;16 / 19;203014;2022-10-26 13:33:26:893
12.915;-1.2102;4.6062;7.728;-6.031;-0.2746;3.0828;3.1995;4.1389;-0.273;-0.1107;0.5136;9297.0;-34.05;17.21;4.74;153.5;37.95;-92.03;5.0;983.26;58.858;35.955975;-83.92767;803.19;NaN;;5.47;12.226105;42.4;16 / 19;203515;2022-10-26 13:33:27:394
6.7896;-5.9782;0.4466;9.3882;2.0652;1.9408;-1.3837;-7.6765;-3.5742;1.1401;-1.4406;-1.5906;10525.0;-35.38;21.08;11.79;48.72;0.13;-68.8;5.0;983.2;65.535;35.955982;-83.927666;803.99;NaN;;5.04;12.226105;41.2;17 / 19;204015;2022-10-26 13:33:27:894
14.5011;-1.7656;2.1655;7.0421;-6.5253;-2.0002;10.9461;5.7253;1.9036;-1.2297;-0.5428;0.0822;7580.0;-43.82;12.26;13.65;164.37;46.93;-98.89;5.0;983.22;57.04;35.955982;-83.927666;803.99;NaN;;5.04;12.226105;41.2;17 / 19;204514;2022-10-26 13:33:28:393
6.4546;-6.4125;-0.7098;9.6418;1.6683;-0.65;-3.2459;-7.2337;-2.5716;-0.3277;-1.5173;-1.2088;9759.0;-38.64;15.08;24.98;45.82;-9.79;-93.86;5.0;983.23;58.425;35.955994;-83.92765;805.26;NaN;;5.04;12.226105;42.5;17 / 19;205015;2022-10-26 13:33:28:894
17.2472;-0.4968;2.5845;7.4521;-6.0914;-1.879;6.3189;4.6344;3.6388;-0.7581;0.3867;0.948;7805.0;-36.96;11.53;21.64;142.86;38.4;-104.15;5.0;983.23;59.127;35.955994;-83.92765;805.26;NaN;;5.04;12.226105;42.5;17 / 19;205514;2022-10-26 13:33:29:393
5.0348;-4.9642;-1.2066;9.7706;0.7281;0.4202;-2.2437;-6.4353;-2.0332;-0.3141;-0.36;1.2181;9930.0;-34.41;17.01;18.56;57.21;6.21;-87.09;5.0;983.2;61.227;35.956005;-83.92764;801.08;NaN;;5.22;12.226105;39.5;18 / 19;206015;2022-10-26 13:33:29:894
17.3237;-1.8362;0.516;7.6832;-6.034;-0.8546;6.1979;6.7306;1.8708;0.0142;-0.1632;0.6517;7120.0;-35.38;13.09;14.29;137.67;36.12;-96.48;5.0;983.25;56.889;35.956005;-83.92764;801.08;NaN;;5.22;12.226105;39.5;18 / 19;206514;2022-10-26 13:33:30:393
5.5974;-6.4953;-1.9415;9.5584;1.922;1.0547;-2.535;-6.6436;-2.4184;-1.2541;-0.3307;1.5196;9876.0;-37.69;6.13;11.72;51.01;-11.3;-83.7;5.0;983.21;63.495;35.956017;-83.927635;804.37;NaN;;5.11;12.226105;37.0;18 / 19;207015;2022-10-26 13:33:30:894
15.9183;-2.7999;2.3701;8.1056;-5.4751;-0.7019;4.7393;6.244;2.2044;-0.1889;-0.0382;0.5328;7182.0;-34.44;3.98;17.38;139.53;33.94;-94.95;5.0;983.25;56.293;35.956017;-83.927635;804.37;NaN;;5.11;12.226105;37.0;18 / 19;207514;2022-10-26 13:33:31:393
9.8411;-7.3714;-0.1184;9.7563;0.9364;0.3278;-0.5479;-7.2801;-0.5334;-0.893;-0.2437;0.0011;9154.0;-33.24;2.57;18.3;69.59;-7.79;-87.08;5.0;983.24;58.943;35.956024;-83.92763;804.94;NaN;;5.15;12.226105;41.9;18 / 19;208014;2022-10-26 13:33:31:893
16.7611;1.2305;1.8805;9.0694;-3.6899;-0.5485;3.2628;5.4202;2.9347;-0.0144;-0.2789;0.9117;7106.0;-29.14;-7.84;20.63;134.35;22.1;-93.46;5.0;983.22;57.575;35.956024;-83.92763;804.94;NaN;;5.15;12.226105;41.9;18 / 19;208515;2022-10-26 13:33:32:394
10.8847;-0.1161;-0.8632;9.7447;1.0569;-0.3081;-0.982;-3.3013;0.5903;-1.0781;0.3838;0.6787;8332.0;-19.28;2.44;23.1;74.44;-11.05;-94.68;5.0;983.23;63.174;35.956036;-83.92761;803.28;NaN;;5.29;12.226105;31.7;18 / 19;209014;2022-10-26 13:33:32:893
11.336;0.4561;0.62;9.7836;0.5895;-0.3219;2.3131;2.1318;1.3909;1.1566;0.2302;-0.8511;7740.0;-15.66;11.16;24.54;63.89;-3.45;-91.88;5.0;983.23;61.614;35.956036;-83.92761;803.28;NaN;;5.29;12.226105;31.7;18 / 19;209514;2022-10-26 13:33:33:393
10.6119;2.1906;-0.3042;9.7202;1.2988;0.0419;2.7792;1.2367;1.4762;-0.2491;-0.2553;0.6635;7840.0;-27.36;13.07;16.03;41.55;-12.35;-89.28;5.0;983.22;59.374;35.956047;-83.927605;804.48;NaN;;5.72;12.226105;38.8;18 / 19;210014;2022-10-26 13:33:33:893
10.2993;1.0355;0.0323;9.6803;1.3352;0.8243;2.1573;-0.936;2.0725;1.2406;0.0047;-0.1877;9141.0;-28.46;11.03;3.6;23.72;-5.22;-86.05;5.0;983.2;58.332;35.956047;-83.927605;804.48;NaN;;5.72;12.226105;38.8;18 / 19;210514;2022-10-26 13:33:34:393
9.5429;1.8613;1.4892;9.6147;1.3748;1.3555;2.7213;0.6064;-0.2261;-0.9621;0.5637;-0.0601;8041.0;-26.85;2.42;1.95;45.3;-8.06;-81.98;5.0;983.21;59.597;35.956055;-83.9276;803.06;NaN;;5.22;12.226105;37.8;18 / 19;211014;2022-10-26 13:33:34:893
7.4982;2.7197;0.3197;9.0756;3.5276;1.1665;1.5574;-1.1597;-0.4534;0.1035;0.1708;-0.2756;8656.0;-23.94;-13.41;2.48;125.96;-21.08;-82.68;5.0;983.22;61.46;35.956055;-83.9276;803.06;NaN;;5.22;12.226105;37.8;18 / 19;211514;2022-10-26 13:33:35:393
4.9869;1.9896;3.1268;9.147;2.6864;2.2992;2.6412;1.53;1.877;-0.9775;1.0108;-0.3561;10034.0;-33.36;-15.64;13.14;107.21;-17.82;-75.72;5.0;983.22;57.871;35.956062;-83.92759;802.27;NaN;;5.51;12.226105;41.2;18 / 19;212015;2022-10-26 13:33:35:894
2.8633;0.3329;-1.3298;8.1377;3.44;4.2562;1.388;-2.9826;-3.3583;0.8579;0.2186;-1.2571;10223.0;-53.1;5.89;5.93;56.0;-13.47;-68.59;5.0;983.22;62.053;35.956062;-83.92759;802.27;NaN;;5.51;12.226105;41.2;18 / 19;212514;2022-10-26 13:33:36:393
8.3471;2.3833;4.2437;8.2533;2.3192;4.7617;2.6175;0.5059;1.1538;0.4392;0.3903;0.061;11077.0;-49.14;-0.69;-16.24;44.13;-13.68;-60.02;5.0;983.2;60.25;35.956078;-83.92758;802.4;NaN;;5.18;12.226105;39.0;18 / 19;213014;2022-10-26 13:33:36:893
8.8439;2.6324;4.4507;8.4632;2.1395;4.4685;1.2242;0.3308;-0.1824;0.0757;0.0626;0.1574;10401.0;-49.27;1.52;-16.78;30.84;-12.6;-62.17;5.0;983.21;58.907;35.956078;-83.92758;802.4;NaN;;5.18;12.226105;39.0;18 / 19;213514;2022-10-26 13:33:37:393
4.9606;2.0291;2.7963;8.0306;1.9913;5.2645;-1.4947;-0.4679;-1.532;0.3091;0.4026;-0.1902;10431.0;-43.44;6.62;-18.32;23.89;-9.54;-59.34;5.0;983.21;59.371;35.95609;-83.927574;802.78;NaN;;5.0;12.226105;37.2;18 / 19;214014;2022-10-26 13:33:37:893
9.0556;3.3314;3.7313;8.4177;2.6338;4.2867;-2.8631;-1.3554;-0.4289;-0.2356;0.2356;0.2206;8021.0;-30.19;5.55;-27.11;327.27;-15.58;-63.01;5.0;983.23;59.638;35.95609;-83.927574;802.78;NaN;;5.0;12.226105;37.2;18 / 19;214514;2022-10-26 13:33:38:393
4.9618;2.9088;2.697;7.9809;3.3919;4.5794;-1.6387;-0.5692;-1.4446;0.0873;0.1355;-0.3452;10093.0;-28.95;-7.97;-26.27;296.42;-17.64;-59.84;5.0;983.23;61.542;35.956097;-83.92757;802.8;NaN;;5.26;12.226105;38.5;18 / 19;215015;2022-10-26 13:33:38:894
5.5627;3.1412;4.4818;7.1596;3.9348;5.4247;1.2268;-0.1912;0.5843;0.2207;0.1901;-0.1825;10570.0;-34.71;-12.96;-19.33;57.01;-23.66;-52.85;5.0;983.21;60.182;35.956097;-83.92757;802.8;NaN;;5.26;12.226105;38.5;18 / 19;215515;2022-10-26 13:33:39:394
4.0878;3.4666;3.7146;6.8692;4.2805;5.5373;-1.0276;-0.7335;-1.8142;-0.5769;0.5757;-0.5609;11361.0;-33.82;-10.65;-19.59;23.42;-25.11;-55.29;5.0;983.2;59.53;35.95611;-83.92755;804.71;NaN;;5.18;12.226105;42.4;18 / 19;216015;2022-10-26 13:33:39:894
3.8545;3.9108;3.9323;5.7031;4.7041;6.4434;-1.8024;-1.5851;-0.6161;0.5935;0.1188;-0.1105;14191.0;-27.39;-7.54;-21.96;33.65;-25.89;-42.21;5.0;983.18;60.876;35.95611;-83.92755;804.71;NaN;;5.18;12.226105;42.4;18 / 19;216514;2022-10-26 13:33:40:393
3.4893;3.3362;5.7637;4.4958;3.4312;8.0116;1.99;0.4544;-2.2127;-0.8322;1.0339;-1.0278;16242.0;-14.46;-3.26;-30.28;344.21;-20.48;-29.3;5.0;983.17;60.51;35.95612;-83.92754;805.81;NaN;;5.36;12.226105;40.0;18 / 19;217015;2022-10-26 13:33:40:894
0.9829;-0.4298;9.9799;2.4964;-0.1752;9.482;-0.6576;-1.2226;0.8707;0.0421;-0.8738;0.2516;43208.0;7.8;7.01;-26.42;294.64;1.02;-14.75;5.0;983.2;58.961;35.95612;-83.92754;805.81;NaN;;5.36;12.226105;40.0;18 / 19;217514;2022-10-26 13:33:41:393
-0.2022;4.6911;5.3976;1.1311;4.9085;8.4141;1.3603;-0.5575;-1.5748;0.0883;0.2214;-0.0892;44685.0;1.89;3.6;-31.28;336.86;-23.1;-8.69;5.0;983.16;58.388;35.956127;-83.927536;805.31;NaN;;5.44;12.226105;42.2;18 / 19;218015;2022-10-26 13:33:41:894
0.1053;4.1034;7.3726;0.3664;4.2306;8.8396;0.0892;-0.0397;-0.6847;-0.0375;0.2361;0.2329;52865.0;0.09;-13.69;-34.48;318.51;-26.03;-3.45;5.0;983.18;58.507;35.956127;-83.927536;805.31;NaN;;5.44;12.226105;42.2;18 / 19;218515;2022-10-26 13:33:42:394
-0.4226;4.0926;6.4965;0.0557;4.2091;8.8572;0.2625;-0.4286;-1.1086;-0.0131;0.0559;-0.0641;55588.0;-5.89;-12.13;-38.98;44.2;-25.42;-0.36;5.0;983.16;59.355;35.956135;-83.92753;804.98;NaN;;5.29;12.226105;34.6;18 / 19;219016;2022-10-26 13:33:42:895
-0.5088;4.3143;8.1772;-0.0347;4.3793;8.7744;-0.2447;-0.4391;-1.9655;0.0066;0.0728;0.2512;59748.0;-8.38;-13.95;-38.59;59.12;-26.52;0.23;5.0;983.15;58.835;35.956135;-83.92753;804.98;NaN;;5.29;12.226105;34.6;18 / 19;219515;2022-10-26 13:33:43:394
-0.0108;4.1501;9.0425;-0.1908;4.1542;8.8813;-0.4452;-0.1755;-2.241;-0.1542;0.0576;0.0517;57840.0;-10.03;-9.11;-38.23;50.58;-25.51;0.03;5.0;983.18;59.749;35.956146;-83.92752;804.69;NaN;;5.4;12.226105;38.3;18 / 19;220014;2022-10-26 13:33:43:893
-0.425;6.0033;5.4682;-0.1693;5.403;8.1823;1.1479;-1.4946;-1.3087;0.2639;0.4327;-0.0555;60867.0;-5.49;-10.03;-39.54;23.14;-33.43;1.19;5.0;983.17;58.498;35.956146;-83.92752;804.69;NaN;;5.4;12.226105;38.3;18 / 19;220515;2022-10-26 13:33:44:394
-1.4653;2.4957;9.0353;-0.7699;2.0599;9.5569;-1.0427;1.22;-3.4872;-0.5908;-1.3777;-0.3442;66790.0;1.82;-5.85;-39.82;58.05;-15.33;13.52;5.0;983.16;58.838;35.956158;-83.927505;804.52;NaN;;5.36;12.226105;38.0;18 / 19;221014;2022-10-26 13:33:44:893
-3.1149;0.8501;10.0935;-4.0548;0.7273;8.8994;1.0128;-0.3176;-2.7387;0.5335;1.2237;-0.2249;23648.0;3.43;-2.08;-38.83;86.89;-4.25;24.5;5.0;983.22;59.803;35.956158;-83.927505;804.52;NaN;;5.36;12.226105;38.0;18 / 19;221514;2022-10-26 13:33:45:393
-7.034;-0.2815;10.145;-4.5951;1.2754;8.569;0.5696;-0.2722;-1.5298;-0.3512;-0.2259;-0.1566;20730.0;11.85;1.88;-35.51;43.24;-7.47;28.2;5.0;983.18;59.965;35.95617;-83.9275;803.61;NaN;;5.29;12.226105;38.5;18 / 19;222014;2022-10-26 13:33:45:893
-4.8613;1.6998;8.1194;-5.143;2.545;7.9526;1.8624;0.0181;-1.939;0.441;-0.1148;-0.673;21042.0;14.06;3.21;-32.29;23.83;-12.18;31.07;5.0;983.2;60.626;35.95617;-83.9275;803.61;NaN;;5.29;12.226105;38.5;18 / 19;222514;2022-10-26 13:33:46:393
-3.6197;1.3011;13.3747;-2.3142;2.8042;9.1078;-3.3752;-0.6948;-0.0579;0.7246;-3.1275;-0.2389;4037.0;11.7;3.23;-31.35;29.85;-10.28;29.92;5.0;983.18;62.472;35.956177;-83.92749;804.39;NaN;;5.36;12.226105;41.1;18 / 19;223014;2022-10-26 13:33:46:893
-1.3418;3.2991;9.0257;-1.1925;3.7103;8.999;-0.0642;-0.3652;-0.7454;0.1784;-0.1028;0.2431;501.0;-2.19;0.41;-35.74;26.6;-22.23;7.55;5.0;983.17;59.704;35.956177;-83.92749;804.39;NaN;;5.36;12.226105;41.1;18 / 19;223514;2022-10-26 13:33:47:393
-1.4294;4.2664;9.6565;-0.7075;3.7285;9.0426;-0.6513;0.7564;-1.2515;-0.3228;0.0473;0.1819;21270.0;-3.3;-2.23;-39.58;24.95;-23.74;5.13;5.0;983.13;61.053;35.956184;-83.927475;804.76;NaN;;5.65;12.226105;39.4;18 / 19;224015;2022-10-26 13:33:47:894
-0.6691;3.3398;8.6617;-0.8382;3.6897;9.0473;0.3103;-0.9229;-1.1019;0.192;0.3253;0.4388;15600.0;-0.47;-3.64;-42.9;17.74;-22.1;5.29;5.0;983.19;59.941;35.956184;-83.927475;804.76;NaN;;5.65;12.226105;39.4;18 / 19;224514;2022-10-26 13:33:48:393
-0.5638;3.2752;8.2681;-0.6471;3.1022;9.2805;-0.6826;-0.5286;0.362;0.2906;-0.2272;0.1341;17689.0;1.37;-7.56;-44.31;18.08;-18.44;3.99;5.0;983.26;64.202;35.956196;-83.92747;804.66;NaN;;5.4;12.226105;40.7;17 / 19;225014;2022-10-26 13:33:48:893
0.1878;2.4514;11.3109;-0.0338;2.5563;9.4676;0.0365;0.1333;-2.6319;-0.076;0.3448;0.2986;23873.0;-6.49;-8.87;-44.79;62.91;-15.96;1.5;5.0;983.2;62.806;35.956196;-83.92747;804.66;NaN;;5.4;12.226105;40.7;17 / 19;225514;2022-10-26 13:33:49:393
-0.0084;2.4467;7.8251;-0.5676;1.2954;9.7041;-0.5729;0.4063;-2.6318;-0.8167;0.5592;-0.1177;35968.0;-7.59;-7.42;-44.25;85.51;-9.99;1.29;5.0;983.18;62.979;35.956203;-83.92746;804.05;NaN;;5.33;12.226105;37.9;17 / 19;226014;2022-10-26 13:33:49:893
-7.1871;-1.4186;5.6512;-4.1003;0.0234;8.9083;-0.0468;-0.8784;-6.3255;1.633;2.5187;-0.9981;54625.996;2.55;5.42;-40.28;82.69;3.94;34.77;5.0;983.16;63.412;35.956203;-83.92746;804.05;NaN;;5.33;12.226105;37.9;17 / 19;226514;2022-10-26 13:33:50:393
-4.6349;-0.7325;8.4356;-3.4243;-0.7128;9.1617;-0.0367;0.8829;-2.2169;0.1947;-0.3563;0.0825;68238.0;4.22;-0.3;-40.33;105.4;4.17;20.49;5.0;983.2;65.116;35.956215;-83.92744;803.66;NaN;;5.11;12.226105;47.1;17 / 19;227014;2022-10-26 13:33:50:893
-2.1069;1.6615;5.4873;-3.5777;1.3332;9.0329;1.4494;-0.2286;-3.7983;-0.2085;-0.648;-0.3151;66470.0;1.56;4.48;-38.27;53.84;-7.81;21.61;5.0;983.2;61.981;35.956215;-83.92744;803.66;NaN;;5.11;12.226105;47.1;17 / 19;227514;2022-10-26 13:33:51:393
-4.8147;-0.8776;9.8363;-3.4087;-0.884;9.1526;0.5519;1.5623;-3.4375;-0.5626;-0.1438;-0.4387;61744.0;4.91;11.01;-34.89;43.84;5.17;20.43;5.0;983.16;63.193;35.956223;-83.92743;804.57;NaN;;5.29;12.226105;42.7;17 / 19;228014;2022-10-26 13:33:51:893
-0.1687;-0.7612;11.068;-1.0637;1.3729;9.6516;-0.5502;-1.0244;-2.7478;-0.3483;-0.679;-0.5303;56861.0;3.66;9.19;-34.87;2.74;-5.07;7.46;5.0;983.18;61.895;35.956223;-83.92743;804.57;NaN;;5.29;12.226105;42.7;17 / 19;228514;2022-10-26 13:33:52:393
-3.3422;-1.6687;13.5577;-2.1399;-0.4587;9.5593;-0.1743;0.8919;1.6101;-0.4768;-0.4061;-0.361;50109.0;-5.61;2.29;-40.95;82.52;0.79;7.17;5.0;983.21;65.396;35.95623;-83.92742;803.82;NaN;;5.18;12.226105;39.1;17 / 19;229014;2022-10-26 13:33:52:893
-1.7082;-1.2197;12.2004;-2.2208;1.9601;9.3486;0.6727;-1.4082;-4.6373;-0.883;-0.7777;-0.7832;67788.0;-3.3;3.23;-44.31;49.05;-11.53;13.36;5.0;983.2;66.112;35.95623;-83.92742;803.82;NaN;;5.18;12.226105;39.1;17 / 19;229514;2022-10-26 13:33:53:393
-2.2636;-0.7947;10.5269;-1.7159;-0.2348;9.6525;-0.7245;0.0474;0.5432;0.0209;-0.3012;0.4996;51559.0;-3.19;12.69;-43.29;37.21;0.41;8.93;5.0;983.18;62.081;35.956245;-83.92741;804.09;NaN;;5.58;12.226105;41.2;17 / 19;230014;2022-10-26 13:33:53:893
-0.2369;1.427;10.0421;-1.9768;2.4901;9.277;-0.0305;-1.5674;-3.3679;0.3791;-1.1979;-3.0E-4;66659.0;8.34;12.15;-40.03;1.34;-14.71;12.03;5.0;983.18;64.027;35.956245;-83.92741;804.09;NaN;;5.58;12.226105;41.2;17 / 19;230514;2022-10-26 13:33:54:393
-4.654;-0.7528;12.1633;-2.2026;0.234;9.5532;-0.9955;0.5769;0.3706;-0.2661;0.0142;0.657;59147.0;2.93;14.53;-47.14;25.37;-1.37;12.98;5.0;983.19;66.86;35.956257;-83.9274;804.77;NaN;;5.4;12.226105;37.5;17 / 19;231015;2022-10-26 13:33:54:894
-1.063;0.9027;10.9795;-1.5259;0.8619;9.6488;0.3582;0.3167;-0.0684;-0.0968;-0.859;0.1152;65473.0;18.09;11.63;-61.48;355.38;-12.18;14.61;5.0;983.21;61.373;35.956257;-83.9274;804.77;NaN;;5.4;12.226105;37.5;17 / 19;231516;2022-10-26 13:33:55:395
-4.8015;-1.512;12.1478;-2.1195;-0.7991;9.5415;0.3737;1.9174;-0.4962;0.3728;0.4823;0.4242;52140.0;16.18;6.41;-71.16;327.94;0.88;10.29;5.0;983.17;67.356;35.956264;-83.92739;804.75;NaN;;5.33;12.226105;38.5;17 / 19;232016;2022-10-26 13:33:55:895
-0.6428;0.7516;7.2948;-1.3196;0.5675;9.7009;0.4489;0.1079;-2.5479;-0.4528;-0.6418;-1.1968;53246.0;22.2;4.01;-67.67;305.22;-0.62;12.5;5.0;983.17;54.686;35.956264;-83.92739;804.75;NaN;;5.33;12.226105;38.5;17 / 19;232516;2022-10-26 13:33:56:395
-2.4108;-1.276;11.464;-0.9286;-1.4156;9.6594;-0.1788;1.9586;-3.0762;-0.4763;0.164;-0.3473;43908.0;18.77;0.62;-59.46;239.71;8.3;5.49;5.0;983.17;56.742;35.956276;-83.927376;803.0;NaN;;5.22;12.226105;36.8;17 / 19;233016;2022-10-26 13:33:56:895
-0.504;-0.1795;11.6222;-0.8706;1.4759;9.6558;1.3864;0.1859;-4.3434;-0.7684;-0.331;-0.9283;55349.0;16.26;-6.98;-51.0;274.73;-8.66;5.15;5.0;983.17;58.458;35.956276;-83.927376;803.0;NaN;;5.22;12.226105;36.8;17 / 19;233515;2022-10-26 13:33:57:394
-5.7159;0.2189;10.5748;-2.9454;-0.1314;9.353;1.1337;2.4036;-4.0996;-0.7863;1.1947;0.2741;57801.0;11.78;-12.6;-44.49;172.59;0.77;17.48;5.0;983.13;57.429;35.956284;-83.92737;801.79;NaN;;5.36;12.226105;38.1;18 / 19;234015;2022-10-26 13:33:57:894
-0.1531;2.0327;10.6849;-2.1229;2.0804;9.3453;-0.3023;-0.2215;-3.8511;-0.3943;-0.6409;-0.6335;69912.0;11.83;-11.81;-36.66;193.82;-12.46;16.76;5.0;983.14;55.663;35.956284;-83.92737;801.79;NaN;;5.36;12.226105;38.1;18 / 19;234514;2022-10-26 13:33:58:393
-0.1579;1.4043;10.9639;-1.1683;0.1034;9.7363;-2.0757;-0.0675;2.1443;-0.3637;0.2443;0.1749;54648.0;3.49;-8.79;-30.96;179.83;1.27;5.58;5.0;983.16;57.707;35.956295;-83.92736;801.37;NaN;;5.18;12.226105;41.8;18 / 19;235014;2022-10-26 13:33:58:893
-1.8314;1.5933;6.3838;-3.2732;2.4836;8.9044;0.5291;-1.4004;-2.6181;0.5177;-0.1446;-0.1998;69263.0;7.48;-0.64;-25.2;20.2;-14.67;20.18;5.0;983.19;58.377;35.956295;-83.92736;801.37;NaN;;5.18;12.226105;41.8;18 / 19;235515;2022-10-26 13:33:59:394
-5.6369;-0.1208;14.9824;-3.5847;-0.3488;9.1213;-3.0158;0.3486;1.5265;-0.2119;-0.3126;0.6706;66719.0;13.33;6.96;-24.19;330.88;1.74;21.2;5.0;983.15;54.972;35.956303;-83.927345;800.42;NaN;;5.26;12.226105;37.3;18 / 19;236014;2022-10-26 13:33:59:893
-1.8458;1.6819;8.9061;-3.0246;3.0242;8.8248;1.7333;-0.8416;-3.6749;-0.1422;-0.3538;-0.5736;72861.0;20.31;11.03;-25.03;331.31;-17.96;18.92;5.0;983.2;58.906;35.956303;-83.927345;800.42;NaN;;5.26;12.226105;37.3;18 / 19;236514;2022-10-26 13:34:00:393
-2.2887;0.9434;11.9189;-2.8722;-0.1533;9.3754;-2.7205;-0.8986;2.5894;0.246;0.0139;0.2937;56243.0;18.39;16.82;-26.74;330.61;0.9;17.03;5.0;983.2;55.175;35.956318;-83.92734;801.18;NaN;;5.15;12.226105;43.9;18 / 19;237014;2022-10-26 13:34:00:893
-5.2621;-2.7377;17.5798;-2.5521;0.0695;9.4685;-0.1442;0.3462;-0.4807;-0.4986;-0.637;-1.0264;69370.0;18.64;10.13;-32.18;338.61;-12.9;19.84;5.0;983.23;55.025;35.956318;-83.92734;801.18;NaN;;5.15;12.226105;43.9;18 / 19;237516;2022-10-26 13:34:01:395
-2.916;0.9027;16.5924;-3.1329;0.3283;9.2869;-1.963;-0.2053;1.1555;0.1035;-0.4731;0.7858;60305.0;12.3;8.94;-33.23;346.3;-0.13;16.37;5.0;983.21;59.193;35.956326;-83.92733;801.53;NaN;;5.04;12.226105;47.2;18 / 19;238015;2022-10-26 13:34:01:894
-5.0049;-1.3226;16.159;-2.2424;0.794;9.5137;-0.3059;0.0391;0.3144;-0.8089;-0.7742;-0.7201;65586.0;8.19;5.83;-32.29;6.93;-13.59;16.91;5.0;983.24;55.265;35.956326;-83.92733;801.53;NaN;;5.04;12.226105;47.2;18 / 19;238514;2022-10-26 13:34:02:393
-2.6767;-1.0726;17.1909;-2.7225;0.9538;9.3728;-1.103;0.1689;0.4525;0.3612;-0.0277;1.027;54693.0;0.28;9.06;-35.14;38.61;-5.58;16.2;5.0;983.24;56.4;35.956337;-83.927315;800.52;NaN;;4.9;12.226105;47.1;18 / 19;239015;2022-10-26 13:34:02:894
-3.3171;1.0881;10.887;-2.3795;0.8236;9.4779;0.1526;0.6;-0.1561;-1.4653;-0.7046;-1.2956;57790.004;1.44;6.88;-39.84;40.54;-4.82;14.09;5.0;983.25;61.426;35.956337;-83.927315;800.52;NaN;;4.9;12.226105;47.1;18 / 19;239514;2022-10-26 13:34:03:393
-3.6763;1.0714;10.0493;-3.1303;0.3478;9.2871;-0.2953;0.6848;0.5634;0.3367;0.429;1.0047;46311.0;-2.4;8.81;-40.16;54.89;-2.03;18.63;5.0;983.22;55.574;35.956345;-83.92731;800.17;NaN;;5.0;12.226105;34.4;17 / 19;240015;2022-10-26 13:34:03:894
-4.7955;-2.3043;16.7456;-2.5615;1.1243;9.3992;-0.2848;0.4422;-1.2855;-0.8921;-0.4487;-0.7106;28280.998;0.86;11.74;-42.52;33.25;-10.7;18.55;5.0;983.25;55.001;35.956345;-83.92731;800.17;NaN;;5.0;12.226105;34.4;17 / 19;240514;2022-10-26 13:34:04:393
-2.1344;2.2863;13.6164;-2.7727;0.8948;9.3639;-0.4568;0.4925;1.6819;0.0376;0.3183;0.7592;21268.0;1.78;14.19;-46.46;37.03;-1.93;17.19;5.0;983.25;56.754;35.956356;-83.9273;800.25;NaN;;5.22;12.226105;30.1;18 / 19;241014;2022-10-26 13:34:04:893
-4.7533;-1.2126;15.4528;-2.731;1.6356;9.2756;-0.0994;0.2737;-2.1654;-0.7922;-0.162;-0.8772;37498.0;8.06;7.46;-49.01;22.19;-9.6;16.41;5.0;983.25;57.448;35.956356;-83.9273;800.25;NaN;;5.22;12.226105;30.1;18 / 19;241514;2022-10-26 13:34:05:393
-4.5775;-0.8378;14.1335;-3.0243;1.0781;9.2662;0.0286;0.9303;1.1321;0.0925;0.0588;-0.126;19478.0;5.72;7.31;-49.29;43.05;-3.85;18.15;5.0;983.26;57.499;35.956367;-83.927284;799.62;NaN;;4.9;12.226105;39.0;18 / 19;242014;2022-10-26 13:34:05:893
-5.0599;-1.4856;15.1582;-2.5702;1.9091;9.2693;0.6876;0.5624;-2.5064;-0.7452;0.0218;-1.1414;23147.0;5.76;2.16;-52.78;34.45;-11.23;15.5;5.0;983.29;55.585;35.956367;-83.927284;799.62;NaN;;4.9;12.226105;39.0;18 / 19;242515;2022-10-26 13:34:06:394
-3.4989;-0.9386;13.1184;-2.6922;0.9138;9.3855;-1.2412;-0.1445;2.3238;0.0858;-0.0571;0.1881;18912.0;-1.26;-0.06;-55.52;73.08;-5.35;16.01;5.0;983.24;57.354;35.956375;-83.92728;799.45;NaN;;5.11;12.226105;35.6;17 / 19;243015;2022-10-26 13:34:06:894
-5.042;-1.5096;15.9386;-2.4239;0.5718;9.4852;-1.4977;-0.363;2.5212;-0.5722;-0.1564;-0.7306;20401.0;-3.56;-4.95;-54.21;83.88;-7.68;14.77;5.0;983.28;57.406;35.956375;-83.92728;799.45;NaN;;5.11;12.226105;35.6;17 / 19;243514;2022-10-26 13:34:07:393
-2.2457;2.0638;12.2375;-2.7309;0.6832;9.3939;-1.0901;0.3493;1.751;-0.1915;-0.177;-0.1381;16986.0;-7.54;-5.02;-52.93;94.76;-3.62;17.26;5.0;983.28;56.141;35.956383;-83.92727;800.0;NaN;;5.15;12.226105;32.6;18 / 19;244015;2022-10-26 13:34:07:894
-2.4048;-0.6954;11.5122;-1.9408;0.0509;9.6126;-0.4963;0.9845;0.4877;-0.1915;0.0547;-0.2051;22544.0;-10.41;-8.42;-49.99;94.65;-7.71;12.31;5.0;983.28;61.967;35.956383;-83.92727;800.0;NaN;;5.15;12.226105;32.6;18 / 19;244515;2022-10-26 13:34:08:394
-2.144;-1.0977;17.9713;-2.0069;0.1032;9.5985;-1.6965;-0.1637;1.8369;-0.1554;-0.8428;-0.0434;22209.0;-13.71;-9.17;-43.22;110.89;-0.6;11.81;5.0;983.27;57.39;35.956394;-83.92726;799.74;NaN;;5.0;12.226105;36.3;18 / 19;245014;2022-10-26 13:34:08:893
