sep=;
ACCELEROMETER X (m/s²);ACCELEROMETER Y (m/s²);ACCELEROMETER Z (m/s²);GRAVITY X (m/s²);GRAVITY Y (m/s²);GRAVITY Z (m/s²);LINEAR ACCELERATION X (m/s²);LINEAR ACCELERATION Y (m/s²);LINEAR ACCELERATION Z (m/s²);GYROSCOPE X (rad/s);GYROSCOPE Y (rad/s);GYROSCOPE Z (rad/s);LIGHT (lux);MAGNETIC FIELD X (μT);MAGNETIC FIELD Y (μT);MAGNETIC FIELD Z (μT);ORIENTATION Z (azimuth °);ORIENTATION X (pitch °);ORIENTATION Y (roll °);PROXIMITY (i);ATMOSPHERIC PRESSURE (hPa);SOUND LEVEL (dB);LOCATION Latitude : ;LOCATION Longitude : ;LOCATION Altitude ( m);LOCATION Altitude-google ( m);LOCATION Altitude-atmospheric pressure ( m);LOCATION Speed ( Kmh);LOCATION Accuracy ( m);LOCATION ORIENTATION (°);Satellites in range;Time since start in ms ;YYYY-MO-DD HH-MI-SS_SSS
-4.483;0.6823;14.2759;-1.6877;0.5556;9.6443;-0.4393;2.0798;-1.3014;-2.3852;1.2245;0.9288;4630.0;-12.47;-15.36;-39.98;124.5;-3.25;9.93;2.0;990.49;49.669;35.955223;-83.92885;828.63;NaN;;4.46;12.58299;80.1;17 / 19;24;2022-10-23 14:06:40:700
2.278;1.5048;3.6329;1.0554;0.1226;9.7489;-1.5196;1.133;-4.2012;-1.1175;-1.2186;0.2121;74679.0;-7.54;-12.83;-41.38;106.75;-12.25;9.44;2.0;990.44;57.322;35.955223;-83.92885;828.63;NaN;;4.46;12.58299;80.1;17 / 19;524;2022-10-23 14:06:41:200
9.7056;1.209;4.3394;8.8214;-2.2542;-3.6431;3.8198;0.5813;7.3593;-0.3283;-1.8195;0.4155;9662.0;-34.22;-17.78;-11.57;225.46;13.29;-112.44;2.0;990.52;51.33;35.955223;-83.92883;827.22;NaN;;4.68;12.226105;86.9;17 / 19;1025;2022-10-23 14:06:41:701
3.9802;-2.6599;-3.7947;8.1205;5.4754;0.4986;-2.2983;-8.4621;-4.6233;2.6482;0.6761;-3.0355;11126.0;-38.31;-15.0;27.45;75.07;-33.94;-86.49;2.0;990.5;57.611;35.955223;-83.92883;827.22;NaN;;4.68;12.226105;86.9;17 / 19;1524;2022-10-23 14:06:42:200
11.1745;3.6461;0.9577;7.6482;-3.7855;-4.8317;4.6761;3.0196;0.8248;-0.9147;-1.3146;2.1706;8666.0;-31.48;-11.23;34.05;155.92;22.71;-122.28;2.0;990.52;50.772;35.955223;-83.92882;830.14;NaN;;5.4;12.226105;82.3;17 / 21;2025;2022-10-23 14:06:42:701
-1.4282;-6.2414;-3.5456;6.943;5.9254;-3.5853;0.7485;-10.9207;-1.0864;1.2684;-0.7683;-2.5138;9869.0;-30.43;-1.93;37.91;80.04;-13.62;-96.28;2.0;990.52;55.196;35.955223;-83.92882;830.14;NaN;;5.4;12.226105;82.3;17 / 21;2524;2022-10-23 14:06:43:200
11.0261;3.8677;0.2177;7.057;-4.1621;-5.3895;5.2484;8.0939;4.2965;-1.0646;-0.8629;2.1737;7762.0;-27.04;-5.85;39.68;143.23;26.11;-123.23;2.0;990.56;53.011;35.95523;-83.9288;825.91;NaN;;5.15;12.226105;58.5;17 / 21;3024;2022-10-23 14:06:43:700
0.1687;-5.3462;-3.6389;6.7892;5.9528;-3.8263;0.7829;-11.5002;-0.8022;1.8965;-1.712;-2.1359;9548.0;-31.8;-4.46;35.98;32.6;-37.37;-119.41;2.0;990.5;57.345;35.95523;-83.9288;825.91;NaN;;5.15;12.226105;58.5;17 / 21;3524;2022-10-23 14:06:44:200
11.828;2.1679;-0.3389;8.0736;-3.6276;-4.2222;2.0967;5.7306;3.1505;-2.0104;0.1119;2.9034;7293.0;-31.26;-4.76;38.31;137.84;21.71;-117.61;2.0;990.57;50.999;35.95524;-83.92879;831.11;NaN;;5.0;12.226105;52.0;17 / 21;4024;2022-10-23 14:06:44:700
3.4319;-2.7221;-2.971;9.0191;3.4607;-1.6879;-0.2616;-7.8856;-1.4248;1.5929;-0.5098;-2.2113;9652.0;-35.16;-1.22;33.43;62.82;-20.66;-100.6;2.0;990.56;61.116;35.95524;-83.92879;831.11;NaN;;5.0;12.226105;52.0;17 / 21;4523;2022-10-23 14:06:45:199
11.9848;1.4091;-2.5391;7.1149;-4.8301;-4.7136;3.9199;4.7319;1.6953;-1.1962;-0.164;1.3239;8254.0;-33.92;-5.96;34.78;136.35;18.17;-113.14;2.0;990.56;50.644;35.95525;-83.92878;831.6;NaN;;4.86;12.226105;55.6;17 / 21;5023;2022-10-23 14:06:45:699
2.5953;-3.3924;-4.0017;9.5158;2.3703;-0.0361;2.6394;-8.1944;-2.5946;2.0876;0.7938;-3.2069;10046.0;-34.18;-1.14;33.58;77.87;-13.99;-90.22;2.0;990.54;61.543;35.95525;-83.92878;831.6;NaN;;4.86;12.226105;55.6;17 / 21;5523;2022-10-23 14:06:46:199
14.2974;1.9558;-1.1647;6.6945;-4.8513;-5.2743;8.1659;3.5484;3.4497;-1.1132;-1.2219;2.4892;10239.0;-35.98;-11.72;29.94;177.81;29.65;-128.23;2.0;990.6;52.561;35.955254;-83.92876;829.52;NaN;;4.79;12.226105;58.9;17 / 21;6024;2022-10-23 14:06:46:700
1.5778;-4.8087;-3.6799;7.7013;5.9864;-1.0114;0.6629;-12.5331;-4.1445;3.4838;1.1159;-4.2723;10838.0;-34.46;-1.84;33.81;80.38;-12.46;-91.65;2.0;990.55;61.773;35.955254;-83.92876;829.52;NaN;;4.79;12.226105;58.9;17 / 21;6525;2022-10-23 14:06:47:201
11.5804;3.8174;0.6332;8.7853;-2.7618;-3.3705;5.8883;4.9331;0.9683;-1.0794;-0.7512;2.4052;9954.0;-34.8;-19.05;27.24;157.21;16.36;-110.99;2.0;990.62;51.281;35.955257;-83.92875;831.81;NaN;;4.9;12.226105;63.0;17 / 21;7024;2022-10-23 14:06:47:700
4.7091;-2.9961;-3.475;9.3214;2.9907;-0.5816;-1.7771;-6.0716;-4.4009;3.3415;0.2533;-2.5669;9807.0;-37.07;-4.33;28.73;73.28;-17.76;-93.57;2.0;990.59;61.031;35.955257;-83.92875;831.81;NaN;;4.9;12.226105;63.0;17 / 21;7524;2022-10-23 14:06:48:200
11.584;3.8689;1.8888;8.1014;-3.594;-4.1978;3.4856;4.2417;2.3931;-1.113;-0.6486;1.9532;10257.0;-37.31;-14.38;26.04;140.41;6.45;-105.12;2.0;990.62;53.722;35.955265;-83.928734;831.6;NaN;;4.64;12.226105;61.4;17 / 21;8024;2022-10-23 14:06:48:700
1.8482;-3.9419;-4.1405;8.3736;4.9577;-1.2144;-2.3607;-8.6985;-3.3942;0.7584;-0.8226;-1.0196;10343.0;-34.54;-5.31;29.78;84.43;-12.4;-91.73;2.0;990.58;61.392;35.955265;-83.928734;831.6;NaN;;4.64;12.226105;61.4;17 / 21;8524;2022-10-23 14:06:49:200
12.6888;3.1783;-0.1484;6.9682;-4.2715;-5.4193;5.9014;7.2405;5.2378;-0.9776;-1.0562;2.339;10084.0;-33.09;-12.84;29.91;162.23;22.81;-120.29;2.0;990.6;52.177;35.955273;-83.92872;831.94;NaN;;4.79;12.226105;60.3;16 / 21;9024;2022-10-23 14:06:49:700
6.0799;-4.3837;-4.2891;8.6122;4.6546;-0.5796;1.3341;-10.4293;-2.9858;1.379;0.3206;-2.6868;12031.0;-33.09;-7.91;29.61;71.0;-28.34;-93.85;2.0;990.57;64.111;35.955273;-83.92872;831.94;NaN;;4.79;12.226105;60.3;16 / 21;9525;2022-10-23 14:06:50:201
11.834;5.1879;-0.3281;7.6611;-4.4966;-4.1544;5.571;7.9967;2.8808;-0.1713;-0.9008;2.8578;10578.0;-30.06;-12.32;30.23;157.62;27.29;-118.47;2.0;990.61;53.428;35.955276;-83.92871;832.0;NaN;;4.9;12.226105;59.5;16 / 21;10024;2022-10-23 14:06:50:700
5.7147;-3.5743;-3.4199;9.1385;3.493;-0.676;0.436;-8.2846;-1.3315;1.4074;0.2382;-2.3725;11404.0;-32.16;-2.27;29.98;93.28;-0.79;-96.2;2.0;990.6;59.489;35.955276;-83.92871;832.0;NaN;;4.9;12.226105;59.5;16 / 21;10525;2022-10-23 14:06:51:201
11.3731;3.7875;0.3497;6.3957;-5.5899;-4.9008;7.4815;6.4916;1.9978;-1.3796;0.1728;1.1001;9928.0;-30.6;-10.03;28.65;150.07;22.71;-113.54;2.0;990.67;52.522;35.955284;-83.9287;831.6;NaN;;4.86;12.226105;58.8;16 / 21;11024;2022-10-23 14:06:51:700
6.6832;-5.6824;-3.7469;9.1848;3.2478;-1.1231;3.6295;-10.5901;-0.8694;4.1121;-0.8908;-3.9937;11715.0;-29.83;-4.09;28.82;73.91;-19.34;-96.97;2.0;990.63;62.133;35.955284;-83.9287;831.6;NaN;;4.86;12.226105;58.8;16 / 21;11525;2022-10-23 14:06:52:201
12.2112;1.4163;-2.1667;7.9418;-4.0581;-4.0781;3.5003;4.6049;0.1841;-1.8109;-0.2929;2.3605;9724.0;-25.99;-6.62;31.69;142.97;24.44;-117.18;2.0;990.67;47.868;35.95529;-83.92869;830.7;NaN;;4.86;12.226105;56.4;16 / 21;12024;2022-10-23 14:06:52:700
6.312;-4.2951;-3.0153;8.7811;4.1664;-1.3053;-2.333;-8.4855;-1.4819;3.2528;0.7177;-3.5026;10314.0;-28.03;-1.39;29.01;85.66;-5.83;-94.01;2.0;990.61;60.774;35.95529;-83.92869;830.7;NaN;;4.86;12.226105;56.4;16 / 21;12524;2022-10-23 14:06:53:200
11.3312;1.1994;-2.199;8.2547;-4.2031;-3.2194;5.2059;2.4429;-0.4765;0.0405;-0.7421;2.1484;10494.0;-28.35;-8.42;25.03;149.54;25.38;-111.31;2.0;990.65;50.917;35.9553;-83.92868;829.46;NaN;;4.86;12.226105;58.2;16 / 21;13023;2022-10-23 14:06:53:699
6.9153;-4.2676;-2.8334;9.4466;2.5303;-0.7282;1.3606;-7.9737;-0.5239;2.5311;-0.2376;-3.1022;7426.0;-22.91;6.06;26.94;64.03;-14.95;-94.41;2.0;990.66;55.996;35.9553;-83.92868;829.46;NaN;;4.86;12.226105;58.2;16 / 21;13525;2022-10-23 14:06:54:201
10.0863;0.3377;-1.914;9.2817;-1.5407;-2.7652;5.9486;-0.517;0.1307;-0.6118;-0.7704;2.9682;11937.0;-25.91;-4.09;23.94;119.86;9.04;-106.59;2.0;990.65;48.128;35.955307;-83.928665;830.35;NaN;;5.0;12.226105;51.6;16 / 21;14024;2022-10-23 14:06:54:700
7.6181;-4.0615;-4.5129;9.5811;1.7503;-1.1439;3.507;-6.9483;-1.3451;3.1294;-0.1307;-3.4756;9628.0;-21.3;3.58;26.21;94.99;12.03;-104.98;2.0;990.66;48.051;35.955307;-83.928665;830.35;NaN;;5.0;12.226105;51.6;16 / 21;14524;2022-10-23 14:06:55:200
11.3874;0.9769;-3.384;8.2408;-3.2996;-4.1681;3.0918;3.8997;1.0479;-0.8918;-0.5966;3.0694;11836.0;-23.79;-4.69;24.19;110.69;2.51;-105.61;2.0;990.66;48.546;35.95531;-83.92866;830.62;NaN;;4.1;12.226105;51.6;15 / 21;15024;2022-10-23 14:06:55:700
11.9345;-3.9156;-2.5232;9.786;0.3855;-0.5051;6.5522;-5.9318;-0.7341;3.1267;1.302;-3.1988;10462.0;-18.75;0.86;26.55;86.04;-2.25;-92.95;2.0;990.63;48.28;35.95531;-83.92866;830.62;NaN;;4.1;12.226105;51.6;15 / 21;15523;2022-10-23 14:06:56:199
10.8942;2.3569;-2.0889;9.2352;-1.6229;-2.8718;3.8518;2.5841;0.8118;-0.4139;-0.31;2.6125;13207.0;-27.24;-6.88;23.57;129.65;9.53;-107.27;2.0;990.64;52.288;35.95532;-83.92864;830.16;NaN;;4.54;12.226105;51.9;16 / 21;16023;2022-10-23 14:06:56:699
8.3889;-2.8214;-1.7261;9.5813;-0.7748;-1.9415;8.1631;-0.8925;-1.4286;0.423;1.7313;-2.0167;8613.0;-21.66;7.11;29.87;100.23;18.65;-112.23;2.0;990.67;51.65;35.95532;-83.92864;830.16;NaN;;4.54;12.226105;51.9;16 / 21;16524;2022-10-23 14:06:57:200
9.9236;4.4495;-1.5359;9.5175;-0.0568;-2.3632;2.7877;2.3148;2.0713;-0.0611;-0.2284;0.9276;12773.0;-31.48;-1.84;28.26;76.69;-11.01;-102.06;2.0;990.67;50.062;35.95533;-83.92863;828.61;NaN;;4.64;12.226105;55.8;17 / 21;17024;2022-10-23 14:06:57:700
6.7394;-0.5112;-0.1591;9.6105;1.9256;-0.3175;8.9209;-2.2719;-1.3272;0.1087;1.7518;-1.3458;11159.0;-30.84;0.0;29.85;77.77;-11.32;-91.89;2.0;990.7;51.52;35.95533;-83.92863;828.61;NaN;;4.64;12.226105;55.8;17 / 21;17524;2022-10-23 14:06:58:200
9.2076;0.0766;0.8163;8.9271;-1.9851;-3.5407;5.747;-0.6287;1.4281;-0.688;-2.1445;0.8852;12931.0;-34.14;-6.75;28.5;136.91;11.68;-111.63;2.0;990.7;47.09;35.955338;-83.92862;827.09;NaN;;4.61;12.226105;59.7;17 / 21;18024;2022-10-23 14:06:58:700
7.3295;-3.8797;-4.3896;9.2756;3.1604;-0.3803;2.3003;-7.3085;-2.5925;3.3028;2.1079;-2.8095;13347.0;-26.66;-6.04;37.65;104.79;4.91;-99.14;2.0;990.65;48.345;35.955338;-83.92862;827.09;NaN;;4.61;12.226105;59.7;17 / 21;18524;2022-10-23 14:06:59:200
10.82;0.9027;-1.1803;9.3663;-0.5113;-2.8602;4.4349;0.0202;-0.6097;-0.7371;-1.2748;2.8667;12872.0;-33.64;-13.8;30.23;130.69;2.99;-106.98;2.0;990.68;52.011;35.95534;-83.9286;825.57;NaN;;4.79;12.226105;60.1;17 / 21;19024;2022-10-23 14:06:59:700
10.4659;-2.8322;-3.7134;9.4101;2.6243;-0.8563;2.7827;-5.5754;-1.001;2.9718;0.0689;-3.5451;11977.0;-28.33;-2.59;36.81;80.94;-15.52;-95.2;2.0;990.67;60.007;35.95534;-83.9286;825.57;NaN;;4.79;12.226105;60.1;17 / 21;19524;2022-10-23 14:07:00:200
11.6498;0.5171;-1.9044;9.4659;-0.6154;-2.4875;3.345;-0.692;0.7834;-0.1865;-1.1266;2.8097;12802.0;-32.31;-12.17;31.84;122.31;3.6;-104.72;2.0;990.68;54.671;35.95535;-83.92859;823.86;NaN;;4.68;12.226105;54.8;17 / 21;20024;2022-10-23 14:07:00:700
9.0257;-3.7493;-3.5755;9.6488;1.5962;-0.7227;3.8756;-6.0455;-1.2714;2.3528;0.4835;-3.3392;11637.0;-30.49;-0.13;34.8;108.54;12.85;-105.86;2.0;990.67;52.07;35.95535;-83.92859;823.86;NaN;;4.68;12.226105;54.8;17 / 21;20524;2022-10-23 14:07:01:200
10.5257;0.7146;-2.9495;8.5968;-3.0847;-3.5707;2.5915;4.173;-0.1877;0.428;-1.3499;2.914;11721.0;-32.64;-10.37;29.4;117.61;0.22;-105.1;2.0;990.69;60.813;35.955357;-83.92858;822.85;NaN;;4.64;12.226105;45.9;17 / 21;21024;2022-10-23 14:07:01:700
7.4922;-5.7242;-5.7984;9.4794;0.8415;-2.3673;8.1969;-6.9641;2.8922;5.1478;-1.5005;-5.1003;11141.0;-27.34;4.28;34.24;75.3;-4.92;-104.02;2.0;990.68;50.176;35.955357;-83.92858;822.85;NaN;;4.64;12.226105;45.9;17 / 21;21524;2022-10-23 14:07:02:200
9.3156;4.1847;-2.3629;9.3916;-0.244;-2.8124;1.8216;3.9764;-0.4913;-1.4186;0.9574;2.686;10967.0;-28.18;-2.94;33.96;99.05;1.43;-106.67;2.0;990.7;56.86;35.955364;-83.92857;821.89;NaN;;4.79;12.226105;40.4;17 / 21;22024;2022-10-23 14:07:02:700
10.1414;0.6882;-6.8961;9.0014;2.3164;-3.1271;8.4819;-2.4143;3.3093;5.1323;-0.6264;-3.4657;10711.0;-29.78;1.54;31.88;90.0;2.97;-108.46;2.0;990.7;52.144;35.955364;-83.92857;821.89;NaN;;4.79;12.226105;40.4;17 / 21;22525;2022-10-23 14:07:03:201
1.0546;4.7055;6.1421;2.1595;3.0004;9.0832;0.4052;1.5733;-3.3159;0.0299;0.2793;0.3026;49495.0;-33.34;-4.05;-9.13;88.53;-15.95;-14.11;2.0;990.65;50.106;35.955376;-83.92856;821.72;NaN;;4.64;12.226105;44.0;16 / 21;23024;2022-10-23 14:07:03:700
0.6703;3.0212;5.2789;2.3775;2.7017;9.1224;1.3386;0.2718;3.8018;-0.2588;1.3132;-0.204;74060.0;-26.27;-1.69;-32.61;62.72;-15.99;-14.61;2.0;990.7;48.92;35.955376;-83.92856;821.72;NaN;;4.64;12.226105;44.0;16 / 21;23524;2022-10-23 14:07:04:200
3.0344;3.7588;7.7629;4.3049;2.4204;8.4723;0.0225;-0.3751;4.3037;0.1757;-0.2063;-0.2307;9683.0;-30.92;-6.49;-27.64;75.7;-14.29;-26.94;2.0;990.68;49.197;35.955383;-83.92855;821.49;NaN;;4.97;12.226105;33.7;16 / 21;24024;2022-10-23 14:07:04:700
2.4275;3.5515;6.4113;2.9321;2.2587;9.0814;1.194;-0.3216;1.511;-0.5728;0.5943;-0.0911;9822.0;-34.33;-6.77;-23.08;84.36;-14.8;-24.07;2.0;990.66;49.07;35.955383;-83.92855;821.49;NaN;;4.97;12.226105;33.7;16 / 21;24524;2022-10-23 14:07:05:200
2.4036;1.7189;8.7075;3.3157;-0.6064;9.2092;1.3125;-2.3811;6.6099;0.4359;-1.1316;-0.0541;26612.0;-29.21;-3.88;-28.82;109.8;3.54;-19.8;2.0;990.68;52.469;35.955395;-83.92854;820.95;NaN;;4.36;12.226105;43.1;16 / 21;25024;2022-10-23 14:07:05:700
2.1081;0.492;7.0412;3.0095;-0.0295;9.3334;-0.0757;-1.9856;1.5085;1.0573;-0.1771;0.1659;9317.0;-34.89;0.54;-24.84;88.0;0.17;-17.87;2.0;990.71;50.703;35.955395;-83.92854;820.95;NaN;;4.36;12.226105;43.1;16 / 21;25524;2022-10-23 14:07:06:200
2.636;2.4275;7.2135;3.6798;-0.5406;9.074;2.2959;-1.2117;3.1159;0.171;-0.2811;0.3476;8866.0;-35.38;-5.08;-26.46;107.27;3.16;-22.07;2.0;990.71;53.201;35.955402;-83.928535;822.18;NaN;;4.43;12.226105;50.2;16 / 20;26025;2022-10-23 14:07:06:701
3.335;0.3365;8.2083;2.9946;0.8594;9.2986;2.4385;-2.3973;3.5815;0.7746;0.5025;0.0128;9163.0;-37.09;-5.62;-24.84;99.65;-2.68;-21.77;2.0;990.71;50.043;35.955402;-83.928535;822.18;NaN;;4.43;12.226105;50.2;16 / 20;26525;2022-10-23 14:07:07:201
4.0687;0.6284;9.8471;3.6212;0.2564;9.11;0.5002;-0.8045;2.9044;-0.8679;0.1822;0.087;8830.0;-33.13;-8.17;-28.5;109.2;-1.31;-21.01;2.0;990.74;48.925;35.955414;-83.92853;821.71;NaN;;4.43;12.226105;49.1;16 / 20;27024;2022-10-23 14:07:07:700
4.5799;-2.0351;12.1681;2.6909;0.3879;9.4222;3.6796;-1.8161;5.3795;0.5271;0.8971;-0.1636;8821.0;-34.26;-3.82;-27.02;95.87;-2.27;-15.94;2.0;990.74;49.749;35.955414;-83.92853;821.71;NaN;;4.43;12.226105;49.1;16 / 20;27525;2022-10-23 14:07:08:201
4.835;1.063;10.7267;4.1518;0.4185;8.8745;-0.0662;-2.9454;7.3103;-1.4598;-1.2305;-0.2701;9020.0;-33.11;-6.51;-28.13;106.43;-2.45;-25.07;2.0;990.71;50.054;35.95542;-83.92851;822.65;NaN;;4.72;12.226105;49.3;16 / 20;28024;2022-10-23 14:07:08:700
2.3964;0.8198;8.3471;3.0858;1.9635;9.099;1.5479;-0.5187;1.8745;0.2033;0.7958;-0.1263;9407.0;-37.03;-5.72;-25.39;92.8;-7.42;-20.03;2.0;990.73;49.85;35.95542;-83.92851;822.65;NaN;;4.72;12.226105;49.3;16 / 20;28523;2022-10-23 14:07:09:199
4.2748;1.4414;9.6039;3.2034;0.5914;9.2498;2.0068;-0.7822;3.8742;-0.2014;-0.0643;0.5172;9251.0;-34.73;-9.26;-29.83;90.18;-12.95;-16.7;2.0;990.72;50.96;35.95543;-83.928505;823.49;NaN;;4.54;12.226105;49.1;16 / 20;29024;2022-10-23 14:07:09:700
4.3825;-0.778;10.9543;3.5778;0.747;9.1001;-1.9895;-0.318;1.6237;0.0479;-0.7175;0.2074;8986.0;-36.19;-5.01;-29.78;94.71;-4.37;-21.46;2.0;990.74;51.66;35.95543;-83.928505;823.49;NaN;;4.54;12.226105;49.1;16 / 20;29524;2022-10-23 14:07:10:200
7.7749;0.632;14.7679;4.1851;2.1035;8.6157;-0.6042;0.4127;-0.0766;-0.9482;0.0819;-0.313;9530.0;-35.98;-10.89;-28.63;95.14;-12.39;-25.91;2.0;990.75;51.665;35.955437;-83.9285;822.8;NaN;;4.57;12.226105;47.1;16 / 20;30023;2022-10-23 14:07:10:699
2.9698;0.4394;8.123;3.8353;1.5792;8.8863;5.0799;-1.6535;6.6157;0.1481;-0.6888;0.5518;9578.0;-36.6;-11.77;-25.22;105.82;-8.19;-25.65;2.0;990.73;53.343;35.955437;-83.9285;822.8;NaN;;4.57;12.226105;47.1;16 / 20;30524;2022-10-23 14:07:11:200
4.969;2.2839;14.9716;3.1413;4.8055;7.9505;-0.2342;-1.1749;-0.2307;-0.7642;-0.9412;-0.1999;29712.998;-32.85;-12.58;-26.47;73.01;-29.34;-21.56;2.0;990.77;54.403;35.955444;-83.92848;823.14;NaN;;4.28;12.226105;49.8;16 / 19;31024;2022-10-23 14:07:11:700
5.1927;5.1532;15.9051;2.777;4.0692;8.4794;-1.1523;3.0283;-0.4984;-0.5266;-0.052;-0.3855;47851.0;-30.3;-15.75;-25.89;91.21;-24.52;-18.13;2.0;990.74;53.279;35.955444;-83.92848;823.14;NaN;;4.28;12.226105;49.8;16 / 19;31524;2022-10-23 14:07:12:200
16.1363;-7.4958;7.4551;4.2395;3.8192;7.9756;-2.1355;-2.667;-6.3006;-3.0035;-3.313;-0.0013;28616.0;-32.94;-15.09;-21.39;91.67;-22.92;-27.99;2.0;990.73;50.581;35.955452;-83.928474;822.59;NaN;;3.85;12.226105;52.2;16 / 19;32024;2022-10-23 14:07:12:700
16.8353;-5.4263;5.7362;8.28;-5.0022;-1.6091;2.9204;3.9839;8.3385;2.1803;0.2863;-0.5699;12330.0;-39.06;-5.89;8.33;185.58;28.25;-104.98;2.0;990.79;51.377;35.955452;-83.928474;822.59;NaN;;3.85;12.226105;52.2;16 / 19;32524;2022-10-23 14:07:13:200
5.219;-6.0093;-4.0651;8.8109;3.9184;-1.7844;-5.3976;-7.5626;-1.3741;1.5893;-1.5186;-0.9748;14157.0;-37.82;-2.16;19.52;46.36;-31.61;-91.06;2.0;990.77;62.672;35.955456;-83.92846;821.29;NaN;;4.39;12.226105;72.2;15 / 19;33023;2022-10-23 14:07:13:699
15.3018;-0.5207;2.7568;7.1917;-5.0035;-4.4062;6.2847;7.9513;5.8783;-0.1497;0.9864;-0.3959;10000.0;-27.47;2.89;32.72;142.0;30.68;-121.49;2.0;990.78;49.804;35.955456;-83.92846;821.29;NaN;;4.39;12.226105;72.2;15 / 19;33524;2022-10-23 14:07:14:200
2.3378;-5.2801;-2.1105;8.0932;5.0591;-2.2531;-6.3449;-9.3439;-0.1759;1.0167;-0.5459;-1.8345;15316.0;-32.53;-4.35;29.48;48.33;-31.06;-105.56;2.0;990.79;58.807;35.95546;-83.92845;820.03;NaN;;4.28;12.226105;58.0;15 / 19;34024;2022-10-23 14:07:14:700
14.9489;-0.5949;0.1974;7.0148;-5.7823;-3.6779;7.4889;6.6186;3.5676;-0.1272;-0.1663;0.2979;9761.0;-28.56;2.01;32.59;145.07;36.13;-117.67;2.0;990.8;48.487;35.95546;-83.92845;820.03;NaN;;4.28;12.226105;58.0;15 / 19;34524;2022-10-23 14:07:15:200
2.8944;-4.1632;-2.1703;7.9232;5.2021;-2.5163;-4.1712;-9.632;-0.2622;-0.9729;-0.2159;1.0671;13429.0;-30.94;4.5;31.31;53.15;-24.45;-99.12;2.0;990.8;55.509;35.955463;-83.92844;820.47;NaN;;4.32;12.226105;50.9;14 / 19;35024;2022-10-23 14:07:15:700
17.6073;-2.0578;0.1842;7.303;-5.7973;-3.0379;6.358;5.711;1.4247;-0.9512;0.0471;1.2984;9634.0;-29.38;6.66;32.66;132.44;36.24;-112.59;2.0;990.79;48.417;35.955463;-83.92844;820.47;NaN;;4.32;12.226105;50.9;14 / 19;35523;2022-10-23 14:07:16:199
3.3314;-4.526;-1.5502;8.4096;4.8862;-1.2546;-3.996;-9.7448;-1.4032;-0.8482;-0.3156;0.5652;14361.0;-35.93;1.01;29.04;48.41;-29.88;-98.49;2.0;990.78;56.643;35.95547;-83.92842;819.95;NaN;;4.39;12.226105;45.8;14 / 19;36023;2022-10-23 14:07:16:699
17.805;-3.5874;4.8099;7.4522;-4.5727;-4.4413;4.8924;6.8451;9.2996;-3.7846;0.9251;1.3759;10641.0;-33.62;3.32;31.56;159.89;34.78;-122.55;2.0;990.83;56.1;35.95547;-83.92842;819.95;NaN;;4.39;12.226105;45.8;14 / 19;36524;2022-10-23 14:07:17:200
3.0643;-8.3243;-3.2991;7.964;5.5768;1.282;-0.2669;-10.9719;-3.98;-0.332;-0.3086;-0.3904;15299.0;-36.73;-3.52;28.76;66.7;-34.66;-80.86;2.0;990.79;59.298;35.95548;-83.92841;818.81;NaN;;4.25;12.226105;53.3;14 / 19;37023;2022-10-23 14:07:17:699
14.0378;-0.7038;2.339;7.0182;-5.9722;-3.354;8.2204;8.526;2.6913;0.1216;0.1849;-1.4551;9856.0;-31.35;7.56;30.88;142.2;37.52;-115.54;2.0;990.82;49.358;35.95548;-83.92841;818.81;NaN;;4.25;12.226105;53.3;14 / 19;37523;2022-10-23 14:07:18:199
7.7617;-5.4538;-5.2346;7.3972;5.542;3.2769;-0.3104;-12.2781;-5.9903;0.5759;-0.8535;-0.1681;14690.0;-42.71;-2.87;22.97;69.36;-34.41;-66.11;2.0;990.77;64.153;35.955486;-83.928406;819.06;NaN;;5.04;12.226105;51.1;14 / 19;38023;2022-10-23 14:07:18:699
18.0622;-0.0395;5.1688;7.018;-4.9562;-4.728;7.641;5.2464;7.8007;1.0547;-0.0102;-0.2778;11955.0;-45.45;-5.76;29.34;168.18;27.22;-116.14;2.0;990.84;54.206;35.955486;-83.928406;819.06;NaN;;5.04;12.226105;51.1;14 / 19;38523;2022-10-23 14:07:19:199
5.7541;-6.9093;-1.8218;9.3237;2.8086;-1.162;-4.1318;-8.3537;-0.4912;-0.5207;-0.3357;-0.2485;14621.0;-39.82;-3.64;38.87;57.83;-29.88;-100.33;2.0;990.74;59.042;35.9555;-83.92839;817.93;NaN;;4.82;12.226105;51.2;14 / 19;39023;2022-10-23 14:07:19:699
15.1606;0.9338;-1.6639;7.2452;-5.3408;-3.8927;4.7614;8.1495;3.3251;0.0761;0.1832;-0.3601;9012.0;-37.69;-0.51;37.05;152.95;33.0;-118.25;2.0;990.79;61.064;35.9555;-83.92839;817.93;NaN;;4.82;12.226105;51.2;14 / 19;39524;2022-10-23 14:07:20:200
5.3219;-1.9128;-4.0113;7.696;5.1678;-3.1992;-1.1244;-8.5271;-0.1286;0.8789;-0.5105;-1.8196;15087.0;-34.71;-10.61;28.58;44.56;-31.8;-112.57;2.0;990.77;61.649;35.95551;-83.92838;815.56;NaN;;4.75;12.226105;48.2;14 / 19;40023;2022-10-23 14:07:20:699
17.2723;1.1348;1.276;6.9411;-2.7072;-6.3767;8.893;5.0418;5.8596;-1.9368;0.9765;1.032;11744.0;-27.39;-9.67;32.89;164.15;16.02;-132.57;2.0;990.83;52.428;35.95551;-83.92838;815.56;NaN;;4.75;12.226105;48.2;14 / 19;40524;2022-10-23 14:07:21:200
5.7829;-3.0045;-4.4507;8.6389;4.4091;-1.4493;-3.1413;-7.7995;-2.9589;-0.4271;-1.1003;2.3432;16504.0;-29.42;-13.5;24.38;82.99;-30.19;-91.73;2.0;990.78;61.354;35.95552;-83.928375;815.38;NaN;;4.0;12.226105;42.6;14 / 19;41023;2022-10-23 14:07:21:699
19.2796;0.3736;0.274;7.2105;-3.5619;-5.6117;6.2433;5.1868;4.9647;-1.0484;0.1662;0.6279;12015.0;-24.32;-4.69;30.45;153.89;21.3;-127.89;2.0;990.81;50.803;35.95552;-83.928375;815.38;NaN;;4.0;12.226105;42.6;14 / 19;41523;2022-10-23 14:07:22:199
6.2713;-5.3052;-4.325;8.4593;4.9584;-0.1557;-2.9109;-9.1027;-2.1766;0.5892;-1.0823;1.6568;16640.0;-30.62;-10.46;25.44;73.41;-30.37;-91.05;2.0;990.75;58.593;35.95553;-83.92837;815.12;NaN;;4.57;12.226105;44.0;14 / 19;42026;2022-10-23 14:07:22:702
19.7118;0.4729;0.8584;8.6322;-3.2383;-3.3419;5.959;4.6513;3.4877;-0.571;-0.0262;0.606;10493.0;-29.16;-2.62;27.54;146.07;24.95;-115.65;2.0;990.81;48.716;35.95553;-83.92837;815.12;NaN;;4.57;12.226105;44.0;14 / 19;42525;2022-10-23 14:07:23:201
6.4184;-3.28;-2.2804;8.8794;4.1622;0.0546;-3.0747;-7.5311;-2.198;-0.1884;-0.677;1.5226;16008.0;-30.56;-3.62;24.24;68.62;-25.11;-89.65;2.0;990.78;52.978;35.955536;-83.92836;814.78;NaN;;4.5;12.226105;39.4;14 / 19;43025;2022-10-23 14:07:23:701
12.2806;0.3389;0.7684;7.8928;-4.1335;-4.0974;3.4304;4.862;4.8066;0.5413;0.0958;-0.1483;10872.0;-27.99;2.89;27.58;137.83;24.93;-117.44;2.0;990.8;49.146;35.955536;-83.92836;814.78;NaN;;4.5;12.226105;39.4;14 / 19;43524;2022-10-23 14:07:24:200
8.4571;-4.9534;-3.0775;8.6851;4.1561;-1.8621;-1.4464;-8.1167;-0.6179;0.1767;-0.3464;-0.5337;13662.0;-28.78;-1.5;27.36;56.38;-25.07;-102.1;2.0;990.74;53.64;35.955547;-83.92835;815.25;NaN;;4.03;12.226105;41.3;14 / 19;44024;2022-10-23 14:07:24:700
16.2631;0.8246;-3.585;6.4128;-5.8709;-4.5365;5.7333;8.8145;-0.5758;-0.9271;0.3214;0.2056;9769.0;-25.76;0.45;28.52;146.18;30.33;-119.43;2.0;990.76;51.053;35.955547;-83.92835;815.25;NaN;;4.03;12.226105;41.3;14 / 19;44525;2022-10-23 14:07:25:201
2.819;-4.2796;-3.6185;8.6084;4.1172;-2.2615;-5.0327;-9.5433;-0.785;2.1664;-0.6248;-2.1923;15891.0;-23.31;1.41;26.12;53.71;-29.71;-102.87;2.0;990.75;51.824;35.95556;-83.928345;815.8;NaN;;4.75;12.226105;49.8;14 / 19;45025;2022-10-23 14:07:25:701
13.6427;-2.2744;7.7091;8.1136;-4.4689;-3.22;5.81;4.7767;4.4113;-1.8619;0.5505;-0.0677;12098.0;-25.52;3.56;22.48;135.76;27.11;-111.65;2.0;990.76;49.596;35.95556;-83.928345;815.8;NaN;;4.75;12.226105;49.8;14 / 19;45524;2022-10-23 14:07:26:200
6.2294;-4.1441;-5.4802;8.5213;4.3435;-2.1662;-3.1895;-8.7872;-0.6379;1.711;-0.3499;-1.7748;14613.0;-31.07;0.54;17.04;28.83;-26.29;-104.26;2.0;990.74;50.854;35.955566;-83.92834;816.38;NaN;;4.54;12.226105;47.2;14 / 19;46024;2022-10-23 14:07:26:700
14.5083;0.3568;0.5638;7.529;-3.7586;-5.0357;4.5714;4.1865;5.2412;-0.8451;-0.0736;1.1316;11238.0;-27.66;0.88;24.69;158.63;22.54;-123.78;2.0;990.76;53.569;35.955566;-83.92834;816.38;NaN;;4.54;12.226105;47.2;14 / 19;46525;2022-10-23 14:07:27:201
7.5066;-4.3669;-2.9554;8.7703;4.2216;-1.1962;-1.5489;-8.3627;-1.9727;0.5204;-0.4172;0.0518;13319.0;-27.04;1.28;26.51;69.57;-16.3;-94.91;2.0;990.74;51.872;35.955578;-83.92832;817.7;NaN;;4.54;12.226105;56.7;14 / 19;47024;2022-10-23 14:07:27:700
12.9664;-0.5578;1.4378;7.9709;-4.1711;-3.9035;4.1228;2.887;2.4875;-1.9082;0.0024;1.7382;10641.0;-27.43;0.66;26.59;139.45;25.17;-116.09;2.0;990.75;54.611;35.955578;-83.92832;817.7;NaN;;4.54;12.226105;56.7;14 / 19;47524;2022-10-23 14:07:28:200
5.3402;-4.4207;-3.6305;8.7889;4.2289;-1.0208;1.1648;-9.806;-0.5711;1.4678;-0.2052;-2.2766;13631.0;-26.17;0.84;25.31;58.68;-25.55;-96.63;2.0;990.71;54.003;35.955585;-83.92831;818.73;NaN;;4.61;12.226105;49.2;14 / 19;48024;2022-10-23 14:07:28:700
12.9221;0.1041;0.8824;7.2609;-5.3018;-3.9167;5.9033;4.0244;4.723;-2.4141;0.0776;2.8901;11978.0;-27.02;-2.1;23.33;132.32;20.58;-106.22;2.0;990.73;53.771;35.955585;-83.92831;818.73;NaN;;4.61;12.226105;49.2;14 / 19;48524;2022-10-23 14:07:29:200
11.8316;-9.8554;6.999;9.7458;0.0932;1.0872;1.0558;-5.6249;-1.3603;0.8196;3.5844;-1.9705;11931.0;-21.32;8.55;25.65;71.97;-0.54;-83.63;2.0;990.74;53.011;35.955593;-83.9283;821.27;NaN;;4.82;12.226105;56.0;14 / 19;49023;2022-10-23 14:07:29:699
0.5447;5.5316;5.1712;1.5098;5.5793;7.9223;-0.5839;-0.1883;-3.2798;0.249;0.0696;-0.0661;70831.0;-26.16;-5.66;-16.78;71.84;-34.68;-10.79;2.0;990.63;56.111;35.955593;-83.9283;821.27;NaN;;4.82;12.226105;56.0;14 / 19;49523;2022-10-23 14:07:30:199
5.9423;3.9838;2.2636;2.9503;7.2373;5.9235;0.0654;-2.2293;0.7359;1.2957;-1.4547;-0.2291;81830.0;-24.34;-14.21;-21.73;41.96;-47.56;-26.48;2.0;990.66;49.717;35.955605;-83.92828;825.07;NaN;;6.12;12.226105;39.0;14 / 19;50025;2022-10-23 14:07:30:701
2.6743;-0.7265;7.113;8.011;0.971;5.5723;-4.1873;-0.2455;0.8194;-2.3445;-0.3996;-0.4064;10134.0;-32.89;-7.97;-10.87;108.05;-6.87;-50.59;2.0;990.69;53.404;35.955605;-83.92828;825.07;NaN;;6.12;12.226105;39.0;14 / 19;50525;2022-10-23 14:07:31:201
4.9331;1.185;-1.4952;6.2006;3.8798;6.5322;-1.6555;-2.5066;-6.6713;1.9252;0.2605;-0.2692;9038.0;-36.62;-8.23;-7.07;93.38;-13.76;-32.68;2.0;990.67;57.301;35.955612;-83.92826;823.76;NaN;;4.64;12.226105;56.5;15 / 19;51025;2022-10-23 14:07:31:701
11.3456;0.4597;6.7753;8.6925;-1.9968;-4.0772;3.0632;0.583;6.8983;-2.0693;-1.5584;0.6102;8524.0;-35.16;-6.64;10.76;198.98;11.75;-115.13;2.0;990.74;52.128;35.955612;-83.92826;823.76;NaN;;4.64;12.226105;56.5;15 / 19;51524;2022-10-23 14:07:32:200
7.7198;-2.9758;-3.7875;7.8971;5.4125;2.1241;1.0964;-8.2214;-4.5703;3.3789;1.657;-1.9333;8855.0;-34.76;-7.91;17.25;69.48;-33.5;-74.94;2.0;990.69;59.691;35.95562;-83.92825;823.57;NaN;;4.14;12.226105;56.8;14 / 19;52024;2022-10-23 14:07:32:700
12.3476;-1.2832;3.2704;8.4731;-3.3263;-3.6487;3.7642;2.3498;4.9706;-0.4913;-1.9604;2.4821;8839.0;-36.98;-5.76;14.57;182.56;19.83;-113.3;2.0;990.72;59.955;35.95562;-83.92825;823.57;NaN;;4.14;12.226105;56.8;14 / 19;52523;2022-10-23 14:07:33:199
4.3669;-5.8319;-3.1196;7.7443;5.8337;-1.4711;2.8221;-12.9542;-0.8139;2.8651;-0.9861;-2.8911;9237.0;-30.24;5.59;27.26;72.74;-8.03;-82.19;2.0;990.69;55.775;35.955624;-83.92824;822.51;NaN;;5.08;12.226105;47.1;14 / 19;53024;2022-10-23 14:07:33:700
14.8289;1.4474;3.213;9.2665;-2.072;-2.4515;4.5877;1.7901;-0.3918;-4.257;-0.2277;3.6744;7857.0;-34.43;-4.46;27.34;125.28;12.2;-104.82;2.0;990.72;60.731;35.955624;-83.92824;822.51;NaN;;5.08;12.226105;47.1;14 / 19;53524;2022-10-23 14:07:34:200
7.9699;-3.5324;-2.4443;9.2118;3.3437;0.3642;2.004;-8.2944;-2.6182;1.6797;0.623;-2.3302;10158.0;-31.72;-2.04;31.73;75.51;-19.94;-87.74;2.0;990.73;51.116;35.95563;-83.92822;822.72;NaN;;4.68;12.226105;61.5;14 / 19;54024;2022-10-23 14:07:34:700
13.6223;-1.634;1.4354;7.7618;-4.0531;-4.4156;5.8712;2.2636;4.5454;-2.6866;-0.7994;3.6122;8945.0;-37.33;-4.65;28.69;122.84;9.64;-104.49;2.0;990.71;50.507;35.95563;-83.92822;822.72;NaN;;4.68;12.226105;61.5;14 / 19;54524;2022-10-23 14:07:35:200
8.6892;-4.7629;-2.2744;9.754;0.9531;-0.3481;4.2864;-5.9587;0.1266;3.1576;0.5104;-3.276;9650.0;-27.6;2.4;40.13;82.91;-5.58;-92.04;2.0;990.68;50.16;35.95564;-83.928215;823.73;NaN;;4.43;12.226105;52.4;14 / 19;55024;2022-10-23 14:07:35:700
10.9866;0.2788;-2.3785;9.0535;-2.7081;-2.6211;2.1088;2.8408;-0.716;-1.6573;-0.483;2.4578;9212.0;-39.79;-1.35;30.75;126.8;16.03;-106.15;2.0;990.73;52.669;35.95564;-83.928215;823.73;NaN;;4.43;12.226105;52.4;14 / 19;55524;2022-10-23 14:07:36:200
11.3097;-3.9;-1.5096;9.7876;0.3317;-0.5127;5.9374;-3.6702;1.8736;2.4101;1.4684;-3.0421;9261.0;-33.53;7.97;36.43;74.92;-1.94;-93.0;2.0;990.7;53.107;35.955647;-83.92821;824.16;NaN;;4.61;12.226105;43.5;15 / 19;56024;2022-10-23 14:07:36:700
12.5115;-0.3616;-1.7692;9.3874;-2.2366;-1.7449;5.3101;0.8925;-0.2659;-1.4607;-0.7058;2.7042;8279.0;-47.93;-5.32;22.95;81.59;-9.55;-91.94;2.0;990.72;52.653;35.955647;-83.92821;824.16;NaN;;4.61;12.226105;43.5;15 / 19;56523;2022-10-23 14:07:37:199
10.4886;-5.2513;-0.3628;9.1767;3.1851;1.3466;4.3363;-9.4251;-0.793;0.8582;2.8144;-3.2121;8503.0;-36.6;16.69;37.88;70.18;6.03;-93.89;2.0;990.7;51.792;35.955654;-83.9282;823.25;NaN;;4.64;12.226105;42.9;15 / 19;57024;2022-10-23 14:07:37:700
13.5183;0.1747;-0.1065;9.5356;-1.7971;-1.4191;3.591;-1.0083;-0.6596;-1.5353;-1.1958;3.474;8341.0;-52.8;-12.96;20.89;150.53;10.56;-98.46;2.0;990.69;51.527;35.955654;-83.9282;823.25;NaN;;4.64;12.226105;42.9;15 / 19;57524;2022-10-23 14:07:38:200
11.4556;-6.67;-0.644;9.6485;1.0979;1.3681;6.4469;-8.17;-0.7935;1.156;2.956;-2.6638;9620.0;-44.94;6.86;34.76;74.46;-6.43;-81.93;2.0;990.69;49.847;35.955666;-83.928185;824.99;NaN;;5.29;12.226105;57.8;16 / 19;58024;2022-10-23 14:07:38:700
12.253;1.3597;0.0479;9.8;0.3587;-0.0512;-0.2243;-3.7823;-2.2224;-0.8729;-1.4091;2.6766;8749.0;-47.93;-12.9;18.15;122.33;-2.1;-90.3;2.0;990.68;54.983;35.955666;-83.928185;824.99;NaN;;5.29;12.226105;57.8;16 / 19;58524;2022-10-23 14:07:39:200
12.0374;-4.3274;-0.2249;9.8062;-0.0974;0.0091;4.9863;-2.1731;1.5473;1.7622;1.566;-2.4869;9190.0;-41.21;2.29;31.5;122.78;17.61;-105.76;2.0;990.72;53.293;35.955673;-83.92817;824.2;NaN;;5.0;12.226105;43.1;16 / 19;59024;2022-10-23 14:07:39:700
15.4481;-3.2405;-2.5666;9.7135;1.3015;-0.3538;-2.2923;-4.7457;-1.7089;-0.7917;-1.5939;2.8732;9189.0;-45.19;-9.49;15.56;101.33;-7.63;-92.09;2.0;990.71;51.322;35.955673;-83.92817;824.2;NaN;;5.0;12.226105;43.1;16 / 19;59525;2022-10-23 14:07:40:201
20.3761;-7.0134;-0.9529;9.3246;-2.7027;-1.3849;8.0191;1.8629;4.6724;0.8176;2.6416;-3.2785;8778.0;-34.95;9.38;29.08;95.01;16.0;-98.45;2.0;990.73;53.243;35.95568;-83.92816;824.52;NaN;;4.54;12.226105;46.2;16 / 19;60025;2022-10-23 14:07:40:701
17.4984;-1.4569;1.6675;9.7862;-0.365;-0.5169;1.2852;-3.6526;-0.1473;-1.8461;-0.4976;2.9328;8662.0;-41.55;-7.41;20.34;61.51;-27.66;-85.68;2.0;990.69;54.231;35.95568;-83.92816;824.52;NaN;;4.54;12.226105;46.2;16 / 19;60525;2022-10-23 14:07:41:201
17.3716;-5.4203;3.3206;8.7711;-3.5573;-2.5659;4.6612;2.7668;5.9562;-0.9858;3.4587;-0.3173;10688.0;-36.28;-0.17;30.71;128.61;21.27;-106.31;2.0;990.75;53.469;35.955685;-83.92815;824.61;NaN;;5.4;12.226105;51.9;16 / 19;61024;2022-10-23 14:07:41:700
14.2543;-3.8821;0.99;9.7845;-0.5329;0.3863;-0.166;-5.2957;-2.6611;-1.8065;-1.4906;2.603;8305.0;-45.0;-8.53;16.59;121.27;3.11;-87.74;2.0;990.68;52.306;35.955685;-83.92815;824.61;NaN;;5.4;12.226105;51.9;16 / 19;61524;2022-10-23 14:07:42:200
15.4804;-1.008;0.5207;8.0051;-4.3129;-3.6726;2.9773;5.0793;6.6975;0.9312;0.4774;-0.7415;10393.0;-34.65;1.78;35.16;137.23;26.09;-114.64;2.0;990.72;49.687;35.955692;-83.92814;823.97;NaN;;4.93;12.226105;54.0;16 / 19;62024;2022-10-23 14:07:42:700
7.3522;-6.7645;-1.9729;9.4336;2.6773;-0.102;-4.2012;-6.4969;-1.605;-1.1439;-0.8715;2.8953;9294.0;-42.9;-5.81;29.46;70.35;-24.02;-86.5;2.0;990.7;52.291;35.955692;-83.92814;823.97;NaN;;4.93;12.226105;54.0;16 / 19;62524;2022-10-23 14:07:43:200
15.454;-0.8007;3.6377;8.9628;-3.2864;-2.2445;6.9084;0.8498;5.7238;-1.6494;0.8421;-0.0616;9345.0;-40.24;5.14;37.46;145.34;28.86;-117.33;2.0;990.72;50.753;35.955696;-83.92812;824.83;NaN;;5.08;12.226105;49.1;16 / 19;63024;2022-10-23 14:07:43:700
7.2135;-3.8629;-2.7843;8.8141;3.5783;-2.3827;-3.182;-6.9169;-0.4408;0.1915;-2.5364;1.7007;9180.0;-46.37;-8.64;37.29;64.43;-21.4;-105.13;2.0;990.68;53.963;35.955696;-83.92812;824.83;NaN;;5.08;12.226105;49.1;16 / 19;63524;2022-10-23 14:07:44:200
16.5745;-3.2453;0.1507;8.2698;-3.7153;-3.7386;3.9144;3.9133;4.807;-1.54;0.5253;0.8671;8535.0;-38.19;-2.59;49.43;129.07;22.26;-114.33;2.0;990.73;52.315;35.955704;-83.92811;824.5;NaN;;4.93;12.226105;44.7;16 / 19;64024;2022-10-23 14:07:44:700
9.5895;-7.0926;-3.1053;9.3062;2.6976;-1.5128;-3.2642;-5.8492;-1.5055;-0.3363;-0.2605;0.3183;10040.0;-39.99;-10.56;37.46;86.35;-15.97;-99.23;2.0;990.71;52.788;35.955704;-83.92811;824.5;NaN;;4.93;12.226105;44.7;16 / 19;64524;2022-10-23 14:07:45:200
16.4234;-4.6828;0.8019;7.8483;-4.3115;-3.9981;4.5939;5.7993;4.2749;0.2048;0.9096;-0.7338;8460.0;-24.58;-0.17;42.06;133.73;32.09;-120.19;2.0;990.73;51.052;35.95571;-83.9281;825.45;NaN;;5.08;12.226105;49.7;16 / 19;65024;2022-10-23 14:07:45:700
7.0232;-3.5563;-2.5594;9.1312;2.958;-2.0106;-3.4712;-6.6211;-0.8534;-0.3004;-0.0704;-0.1022;9624.0;-39.21;1.97;39.43;61.8;-17.56;-102.42;2.0;990.71;52.147;35.95571;-83.9281;825.45;NaN;;5.08;12.226105;49.7;16 / 19;65524;2022-10-23 14:07:46:200
17.0207;-2.6468;2.0064;7.9484;-2.9886;-4.9052;3.4844;3.738;5.9069;-0.4781;0.4001;0.3279;10841.0;-42.45;1.11;46.95;134.23;17.74;-121.68;2.0;990.72;53.361;35.955723;-83.928085;826.15;NaN;;4.93;12.226105;40.3;16 / 19;66024;2022-10-23 14:07:46:700
7.6469;-5.1293;-3.8868;9.2204;3.1767;-1.0316;-4.3337;-6.191;-2.8696;1.794;-0.1115;-1.458;12066.0;-48.54;-11.23;34.8;77.25;-21.09;-91.35;2.0;990.71;55.098;35.955723;-83.928085;826.15;NaN;;4.93;12.226105;40.3;16 / 19;66524;2022-10-23 14:07:47:200
13.0621;0.1651;1.0164;7.7747;-4.343;-4.1063;4.1629;4.3469;3.9712;-0.924;0.1862;0.6694;9974.0;-45.21;-12.06;33.36;166.94;26.29;-117.84;2.0;990.69;51.843;35.95573;-83.92808;827.64;NaN;;4.64;12.226105;39.8;17 / 19;67024;2022-10-23 14:07:47:700
7.1536;-2.8502;-2.2445;9.0751;3.5055;-1.2348;-3.5712;-6.218;-1.2908;-0.6701;-0.0743;0.3307;11422.0;-37.87;-11.33;30.92;79.64;-20.94;-97.75;2.0;990.69;51.58;35.95573;-83.92808;827.64;NaN;;4.64;12.226105;39.8;17 / 19;67524;2022-10-23 14:07:48:200
12.0422;0.2166;1.4115;8.0743;-4.1619;-3.6952;1.1313;3.5306;1.1044;-1.8289;-0.0759;2.0994;9238.0;-24.92;-4.89;36.09;132.6;25.11;-114.59;2.0;990.73;50.896;35.95574;-83.92807;827.7;NaN;;4.64;12.226105;30.5;17 / 19;68025;2022-10-23 14:07:48:701
5.3557;-3.5827;-2.7832;9.0663;3.5121;-1.2794;-2.0653;-7.0579;-0.9239;0.5962;-0.286;-1.0251;10429.0;-25.82;-2.21;36.09;89.22;-5.03;-93.31;2.0;990.7;51.116;35.95574;-83.92807;827.7;NaN;;4.64;12.226105;30.5;17 / 19;68524;2022-10-23 14:07:49:200
11.3946;1.5718;-0.1388;7.6118;-4.4919;-4.2489;4.6282;4.961;3.4034;-1.5761;-0.4952;2.4261;8848.0;-32.4;2.98;34.78;121.8;22.82;-110.12;2.0;990.71;52.892;35.95575;-83.92806;827.61;NaN;;4.75;12.226105;40.0;17 / 19;69023;2022-10-23 14:07:49:699
5.5005;-2.5606;-2.5965;9.1958;3.1655;-1.2601;-1.515;-7.4862;-1.137;0.3282;-0.1256;-1.5514;10385.0;-33.84;1.46;35.57;66.66;-18.83;-97.8;2.0;990.7;52.363;35.95575;-83.92806;827.61;NaN;;4.75;12.226105;40.0;17 / 19;69523;2022-10-23 14:07:50:199
10.5568;-1.914;3.778;7.7166;-4.7586;-3.7391;3.3339;2.2538;6.5544;-3.6918;0.3281;2.1035;10782.0;-37.87;-6.11;30.77;158.25;29.03;-115.85;2.0;990.71;52.11;35.955757;-83.928055;827.72;NaN;;4.72;12.226105;53.3;17 / 19;70023;2022-10-23 14:07:50:699
7.3786;-3.6425;-1.5024;9.7597;0.9548;0.0897;-0.714;-5.8176;-1.2172;0.8916;0.8788;-1.883;11232.0;-35.23;-3.24;31.52;89.3;-5.59;-89.47;2.0;990.71;53.257;35.955757;-83.928055;827.72;NaN;;4.72;12.226105;53.3;17 / 19;70524;2022-10-23 14:07:51:200
11.6533;-1.6711;-0.1137;7.8163;-4.9433;-3.2618;3.2082;3.5221;2.3;-1.4335;-0.5695;1.7532;10588.0;-37.76;-4.07;29.63;122.47;14.9;-99.61;2.0;990.71;51.741;35.95576;-83.92804;826.81;NaN;;4.61;12.226105;55.1;17 / 19;71024;2022-10-23 14:07:51:700
6.6413;-4.8266;-2.3186;9.7633;0.8872;0.2494;6.3148;-8.9636;-1.0136;3.6384;-0.0819;-3.5534;10449.0;-33.53;3.6;35.21;78.99;-5.19;-88.54;2.0;990.72;53.684;35.95576;-83.92804;826.81;NaN;;4.61;12.226105;55.1;17 / 19;71524;2022-10-23 14:07:52:200
11.9285;1.3035;-1.1874;8.1386;-3.9855;-3.7482;5.9721;2.0813;1.2984;-0.6544;-0.7636;2.0889;10752.0;-34.93;-6.71;33.56;147.09;23.98;-114.73;2.0;990.71;51.653;35.95577;-83.92803;828.0;NaN;;5.15;12.226105;59.2;17 / 19;72023;2022-10-23 14:07:52:699
9.1813;-4.6253;-1.5443;9.1264;3.3238;-1.353;0.0228;-8.1845;-0.142;3.2419;0.8263;-3.084;10789.0;-31.61;-0.06;33.26;92.94;2.85;-91.9;2.0;990.7;57.185;35.95577;-83.92803;828.0;NaN;;5.15;12.226105;59.2;17 / 19;72524;2022-10-23 14:07:53:200
11.3898;-1.5156;-0.7229;8.41;-3.9944;-3.0803;8.3444;-0.2027;-0.1316;-2.9069;-0.4283;2.2607;9874.0;-31.63;-7.44;29.14;144.44;24.04;-110.12;2.0;990.74;54.588;35.955772;-83.92802;829.33;NaN;;4.72;12.226105;72.2;17 / 19;73024;2022-10-23 14:07:53:700
8.7314;-5.292;-2.7652;9.2684;2.95;-1.251;3.8217;-8.6398;-0.6306;3.832;-0.5587;-3.4517;10975.0;-30.58;-7.01;26.79;80.82;-17.51;-97.69;2.0;990.71;55.888;35.955772;-83.92802;829.33;NaN;;4.72;12.226105;72.2;17 / 19;73524;2022-10-23 14:07:54:200
12.2016;0.6811;-3.1172;9.036;-2.7974;-2.5876;4.5475;-1.5489;1.4803;1.2682;-1.8688;2.8737;11127.0;-26.83;-9.79;30.69;130.97;16.57;-105.98;2.0;990.72;52.426;35.955772;-83.928;830.09;NaN;;4.57;12.226105;76.3;17 / 19;74024;2022-10-23 14:07:54:700
7.94;-5.9136;-0.4513;9.7456;-0.4649;0.9884;4.7884;-7.3721;-0.993;3.1304;0.8961;-2.4225;8638.0;-27.66;2.7;29.46;118.24;21.22;-108.18;2.0;990.76;52.743;35.955772;-83.928;830.09;NaN;;4.57;12.226105;76.3;17 / 19;74524;2022-10-23 14:07:55:200
11.1972;0.1041;-2.138;9.024;-2.9978;-2.398;3.7502;2.1542;-0.1015;-0.5507;-1.0684;2.6794;12110.0;-26.66;-12.62;19.69;127.25;0.39;-95.44;2.0;990.72;57.225;35.955776;-83.92799;829.0;NaN;;4.43;12.226105;62.1;17 / 19;75024;2022-10-23 14:07:55:700
9.0975;-3.8366;-0.6667;9.6835;-1.0374;-1.1507;3.8529;-1.2859;0.3695;1.5522;0.9838;-2.5242;8825.0;-15.49;-2.62;27.15;101.06;6.07;-96.78;2.0;990.72;50.943;35.955776;-83.92799;829.0;NaN;;4.43;12.226105;62.1;17 / 19;75525;2022-10-23 14:07:56:201
12.618;-1.185;-2.9495;8.74;-3.1463;-3.1439;4.5436;-0.3041;-0.0907;-0.1846;-1.9587;3.3989;12082.0;-19.74;-0.13;32.96;111.62;18.71;-109.78;2.0;990.7;49.593;35.955784;-83.92798;828.36;NaN;;4.25;12.226105;56.5;17 / 19;76024;2022-10-23 14:07:56:700
17.2687;-6.0344;-1.209;8.6927;-3.5815;-2.7893;6.7603;2.0708;1.9896;0.9033;1.1103;-2.5398;8997.0;-8.66;3.53;39.75;96.25;21.42;-107.79;2.0;990.73;50.695;35.955784;-83.92798;828.36;NaN;;4.25;12.226105;56.5;17 / 19;76525;2022-10-23 14:07:57:201
12.3667;-3.5133;-0.6368;9.6864;-0.04;-1.5302;-0.7854;-2.518;0.8161;0.132;-1.2432;2.6513;12080.0;-31.65;0.79;41.51;65.75;-21.88;-101.37;2.0;990.72;52.379;35.955788;-83.92797;828.52;NaN;;4.57;12.226105;53.9;17 / 19;77023;2022-10-23 14:07:57:699
14.8433;-2.4347;0.0251;8.5468;-3.7948;-2.9534;3.8937;4.0746;3.1689;0.5702;0.8231;-1.1837;9458.0;-27.75;7.33;50.96;104.68;22.77;-109.06;2.0;990.74;51.852;35.955788;-83.92797;828.52;NaN;;4.57;12.226105;53.9;17 / 19;77524;2022-10-23 14:07:58:200
9.7846;-2.3354;-2.9148;9.6511;0.1758;-1.731;-0.6009;-5.0416;-2.0946;-1.1376;-0.1397;2.5173;12164.0;-43.54;-3.64;40.29;95.6;-1.03;-100.17;2.0;990.7;55.368;35.955795;-83.92796;829.92;NaN;;3.82;12.226105;46.5;16 / 19;78024;2022-10-23 14:07:58:700
14.4305;-0.6739;-0.687;9.4565;-2.0024;-1.6539;5.6977;0.5962;1.4739;0.5171;1.216;-0.8951;10540.0;-35.68;0.75;47.06;128.01;24.9;-115.22;2.0;990.68;51.984;35.955795;-83.92796;829.92;NaN;;3.82;12.226105;46.5;16 / 19;78524;2022-10-23 14:07:59:200
14.1108;-2.752;-3.7361;9.1461;2.6624;-2.3305;-3.602;-6.0951;-0.3076;-0.6443;-0.7241;2.2913;12691.0;-39.43;-5.74;38.96;75.85;-15.75;-104.29;2.0;990.72;52.931;35.9558;-83.927956;830.55;NaN;;4.32;12.226105;53.4;16 / 19;79024;2022-10-23 14:07:59:700
15.6933;1.1587;-2.4574;8.2571;-3.1591;-4.2439;7.6739;2.8682;2.564;-0.0114;1.5376;-2.1632;9253.0;-25.52;7.91;49.03;102.61;18.79;-117.2;2.0;990.73;49.674;35.9558;-83.927956;830.55;NaN;;4.32;12.226105;53.4;16 / 19;79524;2022-10-23 14:08:00:200
5.9901;-3.3266;-2.9447;8.5155;3.2908;-3.5816;-2.6261;-6.7074;0.1007;-0.3377;-0.4477;0.8543;12814.0;-39.86;2.94;46.39;51.77;-19.61;-112.81;2.0;990.71;55.513;35.955807;-83.92794;831.31;NaN;;3.78;12.226105;48.4;16 / 19;80024;2022-10-23 14:08:00:700
16.6523;-3.1519;-3.955;7.3445;-4.666;-4.523;3.2378;5.7732;1.5116;-0.2361;0.9404;-0.4252;7956.0;-33.49;16.39;47.98;118.55;29.74;-122.03;2.0;990.73;50.929;35.955807;-83.92794;831.31;NaN;;3.78;12.226105;48.4;16 / 19;80524;2022-10-23 14:08:01:200
6.6844;-3.2034;-3.3135;9.0982;1.0894;-3.4938;-2.3286;-4.8576;0.1834;-0.5037;0.0218;0.5557;12192.0;-44.14;8.79;47.14;45.59;-20.03;-110.34;2.0;990.7;56.61;35.955814;-83.92793;831.97;NaN;;4.28;12.226105;36.3;16 / 19;81024;2022-10-23 14:08:01:700
13.1952;-0.6679;-1.3143;6.959;-5.0951;-4.6672;4.2751;5.0135;2.8975;-0.2355;0.4519;0.3554;8551.0;-42.9;17.72;51.53;133.45;31.3;-123.85;2.0;990.72;51.635;35.955814;-83.92793;831.97;NaN;;4.28;12.226105;36.3;16 / 19;81524;2022-10-23 14:08:02:200
7.593;-4.1273;-2.1129;9.1818;2.3377;-2.53;-2.9293;-6.2271;-0.2205;0.2793;-0.0858;-1.2997;12140.0;-55.65;4.93;44.38;53.32;-13.79;-105.41;2.0;990.68;55.61;35.955826;-83.927925;833.03;NaN;;3.67;12.226105;45.1;16 / 19;82025;2022-10-23 14:08:02:701
17.6396;-3.7205;-1.9741;6.7216;-5.5343;-4.5124;5.0815;4.8017;1.2918;-1.927;0.7586;1.2587;8209.0;-54.62;8.08;44.27;169.91;34.36;-123.87;2.0;990.72;58.301;35.955826;-83.927925;833.03;NaN;;3.67;12.226105;45.1;16 / 19;82523;2022-10-23 14:08:03:199
6.0595;-2.6025;-2.3486;8.3397;3.9651;-3.3013;-2.883;-7.4261;-0.4888;-1.1259;-0.0735;0.9354;11858.0;-53.08;6.54;49.91;48.6;-17.43;-108.91;2.0;990.69;57.707;35.955833;-83.92792;833.07;NaN;;4.32;12.226105;48.1;16 / 19;83024;2022-10-23 14:08:03:700
15.5306;0.1687;-2.5113;7.1601;-4.8121;-4.6635;4.2484;5.2704;0.1883;-1.5109;0.2443;1.4124;8983.0;-56.44;3.71;58.61;151.89;29.39;-123.08;2.0;990.73;54.15;35.955833;-83.92792;833.07;NaN;;4.32;12.226105;48.1;16 / 19;83524;2022-10-23 14:08:04:200
4.4853;-3.7911;-2.9124;7.8161;5.0943;-3.021;-1.834;-8.4595;0.1312;0.4308;-0.4719;-0.3058;13410.0;-57.9;-19.01;48.3;48.84;-31.3;-111.13;2.0;990.69;59.163;35.95584;-83.9279;832.93;NaN;;4.36;12.226105;56.1;16 / 19;84025;2022-10-23 14:08:04:701
11.7814;2.4132;-1.5826;6.7558;-5.2635;-4.7775;4.8924;7.4673;2.7749;-1.4489;0.4587;2.2727;9221.0;-50.55;-23.08;45.34;167.68;30.67;-121.45;2.0;990.7;63.832;35.95584;-83.9279;832.93;NaN;;4.36;12.226105;56.1;16 / 19;84524;2022-10-23 14:08:05:200
5.0779;-4.0519;-3.3063;8.7048;3.772;-2.4838;-1.7351;-8.0941;-0.1569;0.8386;-0.1041;-1.1531;12986.0;-45.22;-13.13;37.61;70.32;-22.62;-105.93;2.0;990.69;57.071;35.955845;-83.92789;833.39;NaN;;4.25;12.226105;58.3;16 / 19;85024;2022-10-23 14:08:05:700
11.6737;0.1507;-0.7648;7.2002;-4.9436;-4.4595;3.646;4.6372;1.8179;-1.3965;0.3123;0.8769;11427.0;-22.14;-10.87;44.36;139.85;30.27;-121.77;2.0;990.75;56.879;35.955845;-83.92789;833.39;NaN;;4.25;12.226105;58.3;16 / 19;85524;2022-10-23 14:08:06:200
5.3557;-3.9921;-2.9171;9.248;2.8095;-1.659;0.1587;-7.4088;-0.67;1.583;-0.2198;-2.5558;12416.0;-23.21;-9.08;42.62;89.94;-16.65;-100.17;2.0;990.67;53.816;35.95585;-83.92788;832.45;NaN;;3.92;12.226105;49.9;16 / 19;86025;2022-10-23 14:08:06:701
12.1549;1.8003;-4.0759;7.2188;-5.6655;-3.4584;3.385;5.1196;0.413;1.4162;-0.9615;1.2128;13925.0;-22.42;0.15;41.21;108.64;17.07;-110.75;2.0;990.72;56.268;35.95585;-83.92788;832.45;NaN;;3.92;12.226105;49.9;16 / 19;86524;2022-10-23 14:08:07:200
4.5583;-3.8139;-1.6017;8.5587;4.5061;-1.6171;-3.3041;-9.0982;1.1171;1.7085;1.741;-3.5551;10523.0;-16.31;18.62;38.03;60.6;-6.46;-93.04;2.0;990.68;58.936;35.955856;-83.92787;832.83;NaN;;4.5;12.226105;43.2;16 / 19;87024;2022-10-23 14:08:07:700
11.1673;0.1017;-0.0048;8.9564;-2.4137;-3.1824;6.1107;1.0438;-0.088;-2.0117;-0.6087;2.5635;12132.0;-42.64;4.26;34.22;116.77;14.25;-109.56;2.0;990.68;49.755;35.955856;-83.92787;832.83;NaN;;4.5;12.226105;43.2;16 / 19;87524;2022-10-23 14:08:08:200
7.4527;-3.4702;-5.2478;9.4331;2.447;-1.0947;-0.5935;-6.2023;-2.4586;2.9781;0.9969;-3.1244;11753.0;-37.99;9.54;43.37;62.05;-14.45;-96.62;2.0;990.7;60.556;35.955868;-83.927864;830.94;NaN;;4.46;12.226105;42.2;16 / 19;88024;2022-10-23 14:08:08:700
10.1916;1.5885;0.1029;9.0676;-1.8157;-3.2639;0.2814;2.1283;0.5265;-0.9649;-0.4659;2.3297;12431.0;-48.62;-3.38;36.13;128.5;10.67;-109.8;2.0;990.72;50.15;35.955868;-83.927864;830.94;NaN;;4.46;12.226105;42.2;16 / 19;88524;2022-10-23 14:08:09:200
6.7549;-3.5037;-4.0005;9.513;0.9;-2.2052;-2.4746;-3.1425;-1.9017;-0.4768;-0.1298;-0.8541;10713.0;-42.66;10.46;46.37;84.31;7.04;-101.55;2.0;990.71;60.781;35.955875;-83.92786;831.53;NaN;;4.0;12.226105;45.0;15 / 19;89024;2022-10-23 14:08:09:700
9.6972;0.8716;-0.3209;8.7647;-2.569;-3.5707;-0.9142;3.1115;0.5144;-1.5307;0.0758;1.7108;10112.0;-52.46;-2.19;45.92;129.72;15.19;-112.17;2.0;990.73;50.135;35.955875;-83.92786;831.53;NaN;;4.0;12.226105;45.0;15 / 19;89525;2022-10-23 14:08:10:201
6.5049;-3.9215;-4.0472;9.3912;2.0934;-1.8958;-2.557;-4.9307;-1.7123;-0.1264;-0.5669;-0.4915;10538.0;-49.84;-11.25;42.02;87.27;-12.33;-101.41;2.0;990.71;53.187;35.955883;-83.92784;830.81;NaN;;4.36;12.226105;51.6;15 / 19;90024;2022-10-23 14:08:10:700
11.3575;2.3797;-0.65;8.5743;-2.6751;-3.9365;2.7961;4.9319;3.1132;-0.1765;-0.226;0.7713;9235.0;-40.89;-18.73;39.92;150.65;14.39;-116.03;2.0;990.69;51.981;35.955883;-83.92784;830.81;NaN;;4.36;12.226105;51.6;15 / 19;90524;2022-10-23 14:08:11:200
9.3012;-4.8529;-4.7665;9.3217;2.2241;-2.0807;-1.7356;-4.441;-1.3307;-0.3796;-0.0644;0.1012;9426.0;-35.89;-9.34;39.62;87.84;-13.11;-102.58;2.0;990.7;51.784;35.95589;-83.927826;831.95;NaN;;4.57;12.226105;62.1;15 / 19;91024;2022-10-23 14:08:11:700
18.1986;-2.9758;-2.2528;7.3351;-4.7668;-4.4322;3.1872;6.4274;2.3423;-0.5535;0.7895;-0.2825;7265.0;-30.81;4.26;41.31;135.96;29.08;-121.14;2.0;990.7;52.29;35.95589;-83.927826;831.95;NaN;;4.57;12.226105;62.1;15 / 19;91523;2022-10-23 14:08:12:199
5.6453;-3.5133;-2.7855;8.8962;3.7497;-1.7225;-2.45;-7.7638;-2.0331;-0.3205;-0.0404;-0.5151;9661.0;-37.18;-2.96;37.74;65.37;-22.48;-100.96;2.0;990.71;53.926;35.955894;-83.92782;832.34;NaN;;4.46;12.226105;45.6;14 / 19;92023;2022-10-23 14:08:12:699
13.2263;0.6739;0.1831;6.9345;-4.4694;-5.3017;4.5223;5.5599;4.2268;-0.7223;0.7839;0.6635;8638.0;-34.18;-0.79;40.54;134.41;21.7;-118.7;2.0;990.73;52.509;35.955894;-83.92782;832.34;NaN;;4.46;12.226105;45.6;14 / 19;92523;2022-10-23 14:08:13:199
7.1836;-5.7553;-3.8677;9.0695;2.3669;-2.8832;-3.7341;-6.2512;-0.8065;0.3711;-0.4245;-0.8569;9729.0;-37.65;-2.59;44.68;66.83;-19.82;-106.48;2.0;990.72;56.652;35.955902;-83.92781;832.74;NaN;;4.39;12.226105;57.7;14 / 19;93025;2022-10-23 14:08:13:701
19.3466;-1.1815;-2.1619;6.7397;-5.0692;-5.0049;4.6273;6.2119;2.9597;-0.9323;0.669;0.3666;7877.0;-37.33;3.0;50.89;146.47;31.13;-126.6;2.0;990.73;52.716;35.955902;-83.92781;832.74;NaN;;4.39;12.226105;57.7;14 / 19;93524;2022-10-23 14:08:14:200
4.8948;-3.2668;-3.4905;8.4799;3.257;-3.695;-4.8673;-6.6772;0.5839;1.0061;-0.582;-1.4403;9932.0;-45.39;-13.72;44.87;74.48;-19.4;-113.54;2.0;990.73;53.716;35.955914;-83.927795;832.92;NaN;;4.0;12.226105;54.6;14 / 19;94023;2022-10-23 14:08:14:699
13.5613;1.2114;0.2584;7.941;-3.8167;-4.3061;3.3956;5.5875;3.2743;-0.2649;0.0864;0.4603;8184.0;-45.04;-10.74;45.02;151.88;22.9;-118.47;2.0;990.73;53.348;35.955914;-83.927795;832.92;NaN;;4.0;12.226105;54.6;14 / 19;94523;2022-10-23 14:08:15:199
8.8989;-6.5671;-2.9865;9.131;2.6983;-2.3482;-3.2216;-6.1926;-1.1511;-1.0134;-0.6627;1.5939;9716.0;-48.79;-9.06;39.26;77.96;-15.26;-101.7;2.0;990.72;55.694;35.955917;-83.92777;833.21;NaN;;4.43;12.226105;66.1;14 / 19;95023;2022-10-23 14:08:15:699
16.6283;1.4462;-2.7425;7.6847;-4.4681;-4.1414;3.1877;5.7;1.9778;-0.4747;0.0972;0.7472;7603.0;-46.63;-2.38;46.95;148.22;27.1;-118.32;2.0;990.72;53.156;35.955917;-83.92777;833.21;NaN;;4.43;12.226105;66.1;14 / 19;95524;2022-10-23 14:08:16:200
9.5572;-7.6792;-3.1771;9.1761;2.6056;-2.2759;-3.5384;-6.3251;-0.6068;-0.3669;-0.4622;1.4383;9628.0;-54.9;-13.8;43.93;83.22;-15.41;-103.93;2.0;990.7;53.757;35.95592;-83.92776;833.15;NaN;;4.46;12.226105;59.0;14 / 19;96023;2022-10-23 14:08:16:699
16.1854;-1.0714;-0.7935;8.0619;-4.0554;-3.8379;6.9697;3.0539;3.0541;-1.5424;0.7592;0.7055;6608.0;-52.52;-3.04;47.4;165.7;33.38;-123.07;2.0;990.72;55.186;35.95592;-83.92776;833.15;NaN;;4.46;12.226105;59.0;14 / 19;96524;2022-10-23 14:08:17:200
8.9874;-2.2588;-1.555;8.7213;3.7428;-2.4698;-4.3384;-7.5486;-1.0809;-0.7287;-0.3799;1.4314;9497.0;-48.77;-9.9;40.14;62.81;-22.44;-105.81;2.0;990.73;54.691;35.95593;-83.92775;833.11;NaN;;4.64;12.226105;42.6;14 / 19;97024;2022-10-23 14:08:17:700
19.4629;-3.2369;-0.7074;7.3688;-4.635;-4.5153;6.4159;4.6337;4.127;-0.188;1.4277;-1.6939;7344.0;-41.46;0.99;41.59;151.05;28.21;-121.5;2.0;990.72;50.472;35.95593;-83.92775;833.11;NaN;;4.64;12.226105;42.6;14 / 19;97523;2022-10-23 14:08:18:199
7.7665;-2.9207;-2.406;8.6646;3.9444;-2.3531;-4.0413;-8.4828;-0.8729;-0.8414;0.0079;0.8853;9450.0;-43.61;-7.65;31.74;55.85;-23.72;-105.19;2.0;990.72;53.134;35.955936;-83.92774;832.83;NaN;;4.21;12.226105;48.8;14 / 19;98024;2022-10-23 14:08:18:700
14.8229;-0.1388;-3.6437;7.2883;-4.9829;-4.2686;4.4959;6.6318;2.8619;-0.119;1.0431;-1.2109;6417.0;-35.96;5.44;33.32;159.4;33.86;-122.48;2.0;990.71;52.2;35.955936;-83.92774;832.83;NaN;;4.21;12.226105;48.8;14 / 19;98524;2022-10-23 14:08:19:200
7.9101;-7.0196;-3.3075;9.1951;1.6547;-2.9804;-3.494;-6.2238;0.3512;-0.133;-0.2989;0.0686;8827.0;-36.81;1.84;31.93;46.96;-21.83;-106.98;2.0;990.68;51.34;35.955944;-83.92773;832.82;NaN;;4.61;12.226105;47.4;14 / 19;99024;2022-10-23 14:08:19:700
15.0853;0.0263;0.0144;6.4871;-5.6649;-4.6901;6.7061;7.0697;2.5983;0.3454;0.5642;-0.5376;6068.0;-29.17;7.73;35.74;147.64;35.29;-125.87;2.0;990.73;54.276;35.955944;-83.92773;832.82;NaN;;4.61;12.226105;47.4;14 / 19;99525;2022-10-23 14:08:20:201
4.727;-3.8976;-2.8071;9.0346;1.9299;-3.2898;-4.9528;-6.2785;0.8751;-0.0222;-0.3048;-0.8014;8049.0;-31.16;4.58;34.69;59.75;-11.35;-110.01;2.0;990.7;53.048;35.95595;-83.92772;831.11;NaN;;4.54;12.226105;43.4;15 / 19;100024;2022-10-23 14:08:20:700
12.7223;0.9266;-0.4178;6.5513;-5.6049;-4.6728;6.3703;5.1533;3.7087;-0.0796;-0.2469;-0.1248;5158.0;-29.06;7.59;35.19;147.85;34.86;-125.5;2.0;990.76;60.36;35.95595;-83.92772;831.11;NaN;;4.54;12.226105;43.4;15 / 19;100525;2022-10-23 14:08:21:201
6.3861;-2.394;-3.4594;8.2829;4.5936;-2.5421;-4.1307;-8.3547;-1.2924;-0.7946;-0.8459;1.2283;8825.0;-35.61;3.45;31.01;47.63;-25.61;-102.14;2.0;990.67;55.377;35.95596;-83.92771;831.16;NaN;;4.39;12.226105;38.5;15 / 19;101024;2022-10-23 14:08:21:700
14.0067;0.9063;2.406;7.6973;-4.7961;-3.7309;3.7954;3.8883;2.5229;-1.2283;0.2197;0.6728;7728.0;-40.65;5.25;32.89;150.31;29.28;-115.86;2.0;990.72;60.819;35.95596;-83.92771;831.16;NaN;;4.39;12.226105;38.5;15 / 19;101524;2022-10-23 14:08:22:200
3.7851;-4.4052;-4.9092;8.981;3.5702;1.6629;-2.9942;-7.353;-3.7967;-0.9662;-1.6601;0.762;8034.0;-45.99;-3.9;11.48;57.96;-21.35;-79.51;2.0;990.71;54.225;35.955967;-83.9277;832.48;NaN;;4.64;12.226105;47.4;15 / 19;102024;2022-10-23 14:08:22:700
19.1791;-1.7656;0.6141;7.7836;-3.9819;-4.4419;5.5059;4.6723;5.775;-1.0388;-0.1586;1.3601;8403.0;-37.56;-7.39;21.73;186.71;24.46;-123.84;2.0;990.73;53.769;35.955967;-83.9277;832.48;NaN;;4.64;12.226105;47.4;15 / 19;102525;2022-10-23 14:08:23:201
8.8558;-7.7342;-4.8099;9.2659;3.2025;-0.2398;-3.8885;-6.8971;-3.6435;-0.5408;-0.7583;0.3541;9455.0;-31.65;-2.46;22.8;68.46;-19.06;-91.48;2.0;990.73;51.073;35.955975;-83.92769;831.25;NaN;;4.36;12.226105;53.9;15 / 19;103024;2022-10-23 14:08:23:700
14.3719;1.5299;-3.3278;7.6776;-4.152;-4.4706;5.2163;6.176;3.7988;0.3728;0.7688;-1.3152;8425.0;-22.42;5.85;29.66;121.22;25.05;-120.21;2.0;990.71;52.484;35.955975;-83.92769;831.25;NaN;;4.36;12.226105;53.9;15 / 19;103524;2022-10-23 14:08:24:200
6.8435;-4.544;-2.4096;7.1854;4.2;-5.1866;-1.7281;-8.3334;0.0084;-1.5503;0.2055;0.5335;9141.0;-32.83;6.41;34.2;18.0;-25.36;-125.82;2.0;990.68;52.004;35.955982;-83.92767;831.14;NaN;;4.75;12.226105;46.9;15 / 19;104023;2022-10-23 14:08:24:699
16.3146;2.2385;-6.6568;7.3813;-4.8642;-4.2458;3.5871;10.7849;1.9761;-0.8311;0.3836;-0.7441;6886.0;-36.17;10.93;33.3;153.35;28.98;-124.36;2.0;990.74;55.654;35.955982;-83.92767;831.14;NaN;;4.75;12.226105;46.9;15 / 19;104523;2022-10-23 14:08:25:199
3.4056;0.9338;-1.3872;1.0369;4.1179;8.8396;5.1783;-7.1868;-4.4745;1.0503;6.0986;0.7757;9246.0;-37.73;5.85;12.53;80.52;-9.83;-25.2;2.0;990.67;63.218;35.955994;-83.927666;831.01;NaN;;4.36;12.226105;37.6;16 / 19;105024;2022-10-23 14:08:25:700
-2.2062;8.6091;9.1238;0.7163;5.7893;7.8829;-0.7934;0.5342;-0.6087;0.1662;0.8598;0.8582;87962.0;-19.35;-18.04;-37.82;60.31;-36.18;-5.19;2.0;990.67;56.754;35.955994;-83.927666;831.01;NaN;;4.36;12.226105;37.6;16 / 19;105524;2022-10-23 14:08:26:200
16.0382;-5.5316;-4.5942;9.325;2.3915;-1.8696;1.5682;-1.4277;0.5168;-2.4038;-3.7036;2.9475;67820.0;-27.97;-19.22;-25.67;247.28;-14.11;-101.34;2.0;990.63;52.58;35.956;-83.92766;831.49;NaN;;4.72;12.226105;40.9;16 / 19;106024;2022-10-23 14:08:26:700
19.4043;4.9989;-9.6099;7.0411;-2.4644;-6.3656;1.4643;5.201;1.453;-1.2626;-0.1397;-1.5556;7238.0;-30.73;9.86;22.73;270.37;14.55;-132.12;2.0;990.71;53.653;35.956;-83.92766;831.49;NaN;;4.72;12.226105;40.9;16 / 19;106525;2022-10-23 14:08:27:201
2.7796;7.8562;-4.975;2.8982;7.8752;-5.0746;-1.6796;-3.9274;-0.9815;-0.0639;0.1893;2.5396;9900.0;-18.83;-11.92;39.23;337.08;-48.99;-167.53;2.0;990.67;52.637;35.95601;-83.92765;831.85;NaN;;4.61;12.226105;39.6;16 / 19;107024;2022-10-23 14:08:27:700
10.9086;11.1709;-2.1751;7.2454;5.7283;-3.2957;-1.0705;3.2819;0.6196;-0.6856;0.4138;0.4959;9263.0;-22.87;-26.66;30.54;96.68;-35.74;-114.46;2.0;990.71;53.218;35.95601;-83.92765;831.85;NaN;;4.61;12.226105;39.6;16 / 19;107523;2022-10-23 14:08:28:199
9.3897;5.6967;-4.034;6.7577;6.7199;-2.3124;-1.5133;-2.2501;-1.4569;-0.3991;-1.2163;1.6376;8622.0;-25.67;-27.9;22.05;83.81;-43.25;-108.89;2.0;990.69;52.598;35.956017;-83.92764;831.5;NaN;;4.9;12.226105;40.4;16 / 19;108024;2022-10-23 14:08:28:700
12.271;5.394;-0.4119;8.5956;3.3842;-3.2913;2.3091;3.3393;5.3965;0.0147;-0.6212;0.5618;9354.0;-26.01;-23.91;22.52;127.46;-21.76;-108.35;2.0;990.69;53.54;35.956017;-83.92764;831.5;NaN;;4.9;12.226105;40.4;16 / 19;108524;2022-10-23 14:08:29:200
11.0788;-0.516;-6.2545;7.7765;4.2088;-4.2405;-2.2003;-3.1682;-0.3935;-0.0973;-0.4991;1.2131;9390.0;-24.62;-13.27;28.37;74.78;-25.42;-118.6;2.0;990.71;54.545;35.956028;-83.927635;830.53;NaN;;4.32;12.226105;48.3;16 / 19;109025;2022-10-23 14:08:29:701
13.0561;1.3813;-3.2405;8.9635;0.6511;-3.9246;0.6661;3.391;3.5662;1.699;-0.1783;-0.2831;9022.0;-23.76;-6.51;33.24;102.71;-3.81;-113.65;2.0;990.72;50.934;35.956028;-83.927635;830.53;NaN;;4.32;12.226105;48.3;16 / 19;109524;2022-10-23 14:08:30:200
11.0644;-5.3581;-4.8206;8.3251;2.9169;-4.2842;-2.0194;-4.2952;0.2348;0.0098;-0.6188;0.6753;9074.0;-26.76;0.84;35.55;56.53;-17.3;-117.23;2.0;990.71;52.407;35.956036;-83.92761;828.86;NaN;;4.32;12.226105;44.3;16 / 19;110024;2022-10-23 14:08:30:700
15.3138;-0.8955;-3.5492;7.8198;-2.839;-5.1924;2.1514;5.3428;1.8062;0.1027;0.7991;-0.4686;7133.0;-21.36;6.32;38.74;106.69;17.2;-124.98;2.0;990.74;51.973;35.956036;-83.92761;828.86;NaN;;4.32;12.226105;44.3;16 / 19;110525;2022-10-23 14:08:31:201
5.4455;0.5961;-15.6431;6.0435;-0.0277;-7.7231;-3.0876;-4.0521;-1.7077;7.3983;-1.4738;-4.5435;8198.0;-26.78;7.48;35.18;311.49;-3.98;-157.1;2.0;990.68;57.384;35.95604;-83.927605;827.98;NaN;;3.67;12.226105;40.9;16 / 19;111025;2022-10-23 14:08:31:701
10.0122;10.3917;-0.2189;7.9168;5.5743;1.5563;-1.0093;2.8636;-4.0649;2.5475;0.5246;-0.7429;7337.0;-34.05;-8.96;17.36;67.36;-34.64;-78.88;2.0;990.68;52.279;35.95604;-83.927605;827.98;NaN;;3.67;12.226105;40.9;16 / 19;111524;2022-10-23 14:08:32:200
6.8889;-1.0606;-8.4464;5.9716;0.9881;-7.7158;-0.605;-0.4558;0.2066;2.8998;0.2761;-0.4048;4573.0;-31.88;-13.03;19.65;234.36;-5.78;-142.26;2.0;990.68;52.442;35.95605;-83.9276;827.64;NaN;;4.68;12.226105;38.8;16 / 19;112024;2022-10-23 14:08:32:700
5.1963;0.7146;-8.2442;6.0693;1.4428;-7.5665;-1.8772;0.3859;-0.9572;0.5622;-0.4667;-0.2859;3276.0;-33.9;-0.81;23.94;293.05;-8.46;-141.27;2.0;990.64;51.511;35.95605;-83.9276;827.64;NaN;;4.68;12.226105;38.8;16 / 19;112524;2022-10-23 14:08:33:200
5.4634;0.9434;-8.6797;5.9946;0.9073;-7.708;-0.4844;-0.2035;0.1979;-0.2672;-0.4385;0.4294;2753.0;-38.96;-0.84;20.12;287.16;-8.4;-138.69;2.0;990.63;52.311;35.956074;-83.927605;826.8;NaN;;10.62;12.226105;333.0;16 / 19;113024;2022-10-23 14:08:33:700
4.8733;1.0247;-7.6086;6.0153;1.8116;-7.5303;-1.1756;-0.7057;0.1831;0.0193;-0.5453;-0.054;2200.0;-43.14;-1.24;19.84;288.0;-10.65;-141.38;2.0;990.65;51.274;35.956074;-83.927605;826.8;NaN;;10.62;12.226105;333.0;16 / 19;113523;2022-10-23 14:08:34:199
3.3793;-0.9541;-3.8773;4.9264;5.5356;-6.4233;-3.0579;-3.4328;0.6287;-2.5491;-0.6704;1.0414;3827.0;-44.04;-8.61;24.81;313.79;-34.37;-142.51;2.0;990.69;50.913;35.956066;-83.92758;829.23;NaN;;4.1;12.582348;41.8;16 / 19;114024;2022-10-23 14:08:34:700
13.5159;3.7564;-0.1854;8.649;-2.776;-3.6958;3.7382;7.749;3.1208;-2.5162;0.3749;2.738;6300.0;-41.19;-2.34;30.45;123.64;9.16;-109.49;2.0;990.71;52.322;35.956066;-83.92758;829.23;NaN;;4.1;12.582348;41.8;16 / 19;114524;2022-10-23 14:08:35:200
6.7346;-3.3254;-2.916;9.1933;2.8787;-1.8347;-1.06;-5.0801;-2.1805;0.3076;0.0142;-0.9354;8939.0;-40.57;7.61;31.67;47.65;-17.07;-101.29;2.0;990.71;57.361;35.956074;-83.927574;826.29;NaN;;2.66;12.780894;41.8;16 / 19;115023;2022-10-23 14:08:35:699
14.2029;1.3597;-0.3999;7.8998;-3.91;-4.2983;3.9119;5.3863;2.7416;-1.5579;0.5269;0.4405;7072.0;-41.21;7.73;27.83;117.31;16.29;-111.07;2.0;990.69;52.597;35.956074;-83.927574;826.29;NaN;;2.66;12.780894;41.8;16 / 19;115524;2022-10-23 14:08:36:200
6.3718;-3.0021;-2.4144;9.1624;3.3432;-1.0213;-0.3855;-7.1853;-1.6689;0.5627;0.2826;-1.5425;9046.0;-38.79;8.98;25.76;43.53;-19.93;-96.36;2.0;990.72;57.61;35.95608;-83.92757;825.94;NaN;;3.82;12.226105;45.3;16 / 19;116023;2022-10-23 14:08:36:699
12.472;2.2839;-0.7409;7.8371;-4.0638;-4.2703;4.1992;3.959;3.4134;-0.2626;-0.6932;1.3554;7681.0;-46.26;-2.62;17.76;166.68;11.64;-107.83;2.0;990.72;53.727;35.95608;-83.92757;825.94;NaN;;3.82;12.226105;45.3;16 / 19;116523;2022-10-23 14:08:37:199
7.4539;-3.8402;-2.5101;8.8638;3.8152;-1.7457;-0.9008;-7.5991;-0.6418;1.5031;0.273;-2.7487;8350.0;-37.78;10.8;28.54;50.5;-10.04;-99.81;2.0;990.71;58.554;35.95609;-83.92756;827.61;NaN;;3.02;12.226105;41.2;16 / 19;117024;2022-10-23 14:08:37:700
13.4871;1.7584;-1.6986;8.3902;-4.09;-3.0078;2.2691;2.3818;0.0384;-0.7392;-0.9922;2.8345;8242.0;-41.55;-6.21;21.38;125.37;2.3;-102.98;2.0;990.7;51.986;35.95609;-83.92756;827.61;NaN;;3.02;12.226105;41.2;16 / 19;117525;2022-10-23 14:08:38:201
7.3929;-4.1369;-2.2576;9.2989;2.7071;-1.5403;-0.3308;-7.2545;-0.0697;2.8346;0.6849;-2.9419;8103.0;-30.73;12.41;26.33;99.22;19.7;-112.02;2.0;990.67;56.358;35.956093;-83.92754;829.77;NaN;;4.14;12.226105;43.8;16 / 19;118023;2022-10-23 14:08:38:699
12.9449;1.8422;-2.2696;8.7485;-3.2515;-3.0103;-0.7231;1.3876;-1.4722;-1.4472;-0.232;3.2037;7667.0;-33.17;2.85;17.83;146.4;19.36;-108.99;2.0;990.69;53.692;35.956093;-83.92754;829.77;NaN;;4.14;12.226105;43.8;16 / 19;118525;2022-10-23 14:08:39:201
6.446;-4.27;-2.6444;8.7874;3.817;-2.0936;1.6125;-8.5818;-0.71;1.8084;-0.4512;-2.6574;8031.0;-21.41;12.51;20.16;33.88;-22.91;-103.4;2.0;990.68;54.488;35.9561;-83.927536;831.57;NaN;;3.85;12.226105;43.8;16 / 19;119025;2022-10-23 14:08:39:701
11.5277;-0.0969;-2.557;7.434;-3.9462;-5.0332;4.3283;4.0586;2.3412;-1.7545;-0.3265;3.2104;8497.0;-28.31;3.53;19.24;126.27;14.22;-114.17;2.0;990.7;52.629;35.9561;-83.927536;831.57;NaN;;3.85;12.226105;43.8;16 / 19;119524;2022-10-23 14:08:40:200
7.156;-3.548;-3.7361;9.5113;-0.2024;-2.38;5.8345;-3.4168;0.996;2.2067;0.0464;-3.3051;7385.0;-16.29;13.63;28.33;59.82;1.18;-104.05;2.0;990.72;50.237;35.956112;-83.92752;831.36;NaN;;4.75;12.226105;42.5;16 / 19;120023;2022-10-23 14:08:40:699
10.7997;-0.5064;-3.6293;8.5379;-2.3912;-4.1902;3.7847;-0.4474;-1.6102;0.1119;-0.8243;2.9961;9009.0;-35.36;1.69;27.34;57.77;-7.43;-112.06;2.0;990.69;52.286;35.956112;-83.92752;831.36;NaN;;4.75;12.226105;42.5;16 / 19;120524;2022-10-23 14:08:41:200
8.3088;-3.7768;-3.7146;9.3127;1.8321;-2.4674;2.8177;-6.1262;-0.8408;2.2969;0.7264;-3.6561;7600.0;-27.67;13.18;34.67;53.82;-10.77;-104.84;2.0;990.69;50.108;35.956123;-83.92751;829.29;NaN;;4.54;12.226105;43.2;16 / 19;121024;2022-10-23 14:08:41:700
10.6179;-0.5818;-4.5117;9.0151;-0.8704;-3.7603;0.2506;-1.5112;-0.0504;-0.4898;-0.4468;2.6809;8820.0;-34.07;-1.31;30.51;107.32;5.09;-112.64;2.0;990.72;52.076;35.956123;-83.92751;829.29;NaN;;4.54;12.226105;43.2;16 / 19;121524;2022-10-23 14:08:42:200
8.0489;-3.6488;-3.6245;9.4527;0.3311;-2.5897;5.141;-4.2333;-0.2288;1.2013;1.1983;-3.1637;7019.0;-21.13;13.01;35.7;86.27;18.07;-117.21;2.0;990.72;51.334;35.95613;-83.927505;832.07;NaN;;4.25;12.226105;46.3;16 / 19;122024;2022-10-23 14:08:42:700
9.8037;-0.8246;-4.0807;8.4595;-3.0316;-3.9264;2.4645;0.9409;-1.2451;0.4291;-0.5825;2.6766;8694.0;-36.47;3.04;30.47;73.59;-1.99;-110.61;2.0;990.67;50.64;35.95613;-83.927505;832.07;NaN;;4.25;12.226105;46.3;16 / 19;122524;2022-10-23 14:08:43:200
11.1206;-3.9909;-2.4826;9.3174;-0.6727;-2.9841;5.9606;-1.4506;-0.5338;-0.2158;1.5841;-2.8469;6295.0;-26.38;18.84;32.79;54.82;3.93;-107.76;2.0;990.73;50.976;35.95614;-83.92749;833.78;NaN;;4.64;12.226105;45.8;16 / 19;123024;2022-10-23 14:08:43:700
10.9914;-1.0343;-5.048;8.485;-2.5743;-4.1891;4.6996;-0.8652;-1.2328;-0.2708;-0.2727;3.3698;8654.0;-34.14;-0.13;26.66;58.42;-8.62;-114.75;2.0;990.67;51.886;35.95614;-83.92749;833.78;NaN;;4.64;12.226105;45.8;16 / 19;123524;2022-10-23 14:08:44:200
11.6163;-4.6445;-3.3936;8.9261;-2.0249;-3.5205;7.1475;1.6388;-0.259;-0.553;1.7392;-2.0426;7335.0;-23.34;12.04;28.69;74.54;11.92;-111.52;2.0;990.7;50.906;35.956146;-83.92748;832.91;NaN;;5.47;12.226105;49.5;16 / 19;124024;2022-10-23 14:08:44:700
11.7885;-3.3781;-4.252;8.943;-0.8189;-3.9399;-0.8516;-2.0749;-0.031;-0.6422;0.3558;3.4397;8748.0;-25.99;3.54;21.43;81.59;4.79;-113.78;2.0;990.69;51.545;35.956146;-83.92748;832.91;NaN;;5.47;12.226105;49.5;16 / 19;124523;2022-10-23 14:08:45:199
13.8882;-5.2262;-3.4475;7.7384;-3.5811;-4.8438;7.5633;3.461;2.8693;1.0569;2.0528;-3.4251;7809.0;-10.8;14.59;26.83;72.65;21.42;-122.04;2.0;990.72;54.431;35.95616;-83.92747;835.64;NaN;;5.33;12.226105;46.6;16 / 19;125023;2022-10-23 14:08:45:699
15.0027;-2.7999;-7.57;8.8266;0.7748;-4.2025;-2.0576;-6.1558;-0.2686;-0.0638;0.016;3.2227;8836.0;-27.21;7.91;25.54;22.81;-25.07;-119.22;2.0;990.69;51.716;35.95616;-83.92747;835.64;NaN;;5.33;12.226105;46.6;16 / 19;125523;2022-10-23 14:08:46:199
15.8309;-3.195;-1.8505;9.2106;-1.9348;-2.7553;5.7481;1.475;-0.1799;-0.2299;2.2364;-2.3143;6924.0;-20.06;20.31;32.06;82.29;27.04;-125.73;2.0;990.7;51.421;35.95617;-83.927444;838.19;NaN;;5.62;12.226105;50.0;16 / 19;126024;2022-10-23 14:08:46:700
7.3857;-2.1021;-3.5994;8.3368;2.8033;-4.337;-2.0798;-5.6675;0.0939;-0.751;-0.2649;1.2567;8228.0;-38.27;9.13;27.83;18.4;-16.61;-117.48;2.0;990.69;52.787;35.95617;-83.927444;838.19;NaN;;5.62;12.226105;50.0;16 / 19;126524;2022-10-23 14:08:47:200
12.4875;1.8159;-5.0456;8.3537;-2.1969;-4.6433;7.2065;1.7576;0.7737;-0.3536;1.177;-0.8322;5564.0;-30.28;24.24;36.6;52.79;12.95;-119.07;2.0;990.71;52.031;35.95618;-83.92744;836.79;NaN;;5.26;12.226105;43.2;16 / 19;127023;2022-10-23 14:08:47:699
9.5381;-6.032;-4.4136;8.1536;3.5519;-4.132;-3.2617;-6.6031;0.0363;-0.4387;0.068;3.2043;7239.0;-38.93;4.63;32.42;25.88;-21.23;-116.87;2.0;990.71;55.423;35.95618;-83.92744;836.79;NaN;;5.26;12.226105;43.2;16 / 19;127523;2022-10-23 14:08:48:199
14.5442;1.1432;-4.1309;7.2391;-4.4098;-4.9315;5.4578;6.4515;2.6408;0.1757;0.1398;-0.3105;3191.0;-33.07;13.41;34.95;146.72;29.54;-127.2;2.0;990.73;53.99;35.956192;-83.92742;835.69;NaN;;5.04;12.226105;42.1;16 / 19;128025;2022-10-23 14:08:48:701
4.6636;-4.0364;-3.906;7.5088;4.851;-4.0319;-2.2457;-8.8651;-0.0822;0.8149;-0.6121;2.1196;6800.0;-35.96;-1.2;32.72;28.11;-29.65;-118.23;2.0;990.69;58.837;35.956192;-83.92742;835.69;NaN;;5.04;12.226105;42.1;16 / 19;128524;2022-10-23 14:08:49:200
13.6391;0.516;-2.2923;6.0628;-4.4785;-6.2735;4.4973;6.0364;4.4165;-0.3976;-0.0843;0.9173;2939.0;-28.11;6.68;36.96;159.36;27.17;-135.98;2.0;990.72;51.787;35.9562;-83.927414;836.05;NaN;;5.0;12.226105;37.0;16 / 19;129024;2022-10-23 14:08:49:700
3.839;-4.1847;-2.6767;7.691;4.0824;-4.5114;-3.8349;-8.2434;1.3251;0.0195;-0.1386;0.5874;6996.0;-29.53;2.1;32.59;33.12;-29.44;-118.55;2.0;990.7;54.02;35.9562;-83.927414;836.05;NaN;;5.0;12.226105;37.0;16 / 19;129525;2022-10-23 14:08:50:201
16.1363;-0.2958;-3.687;6.5757;-4.7808;-5.4841;5.0637;6.5503;2.7412;-0.4581;-0.2107;1.5257;5414.0;-24.39;6.32;34.5;141.9;29.18;-129.83;2.0;990.72;54.046;35.95621;-83.92741;837.42;NaN;;5.0;12.226105;40.2;16 / 19;130024;2022-10-23 14:08:50:700
4.7509;-4.0196;-3.0404;8.1675;3.67;-3.9991;-3.4452;-7.7502;0.6408;-0.089;-0.2512;0.0322;7453.0;-28.76;6.88;31.88;36.63;-21.98;-116.09;2.0;990.67;53.567;35.95621;-83.92741;837.42;NaN;;5.0;12.226105;40.2;16 / 19;130524;2022-10-23 14:08:51:200
12.7977;1.6639;-1.8242;6.305;-5.2733;-5.3488;5.981;5.6783;1.7988;-0.6479;1.3129;-0.0411;5928.0;-23.68;17.36;35.14;124.54;32.53;-130.31;2.0;990.72;50.006;35.956223;-83.9274;840.06;NaN;;4.93;12.226105;41.2;16 / 19;131024;2022-10-23 14:08:51:700
5.4479;-4.9702;-3.5767;7.7032;4.4842;-4.0894;-2.9097;-9.4676;0.335;1.6655;-0.8895;-1.6242;8284.0;-31.54;9.54;34.22;48.57;-20.36;-103.0;2.0;990.65;54.832;35.956223;-83.9274;840.06;NaN;;4.93;12.226105;41.2;16 / 19;131524;2022-10-23 14:08:52:200
13.8165;0.7086;1.4294;6.4897;-4.5793;-5.7518;5.622;5.5902;6.7037;-0.5213;0.1061;0.7374;7211.0;-33.88;4.93;36.36;163.26;27.54;-130.24;2.0;990.71;52.041;35.95623;-83.92739;843.71;NaN;;4.79;12.226105;42.3;16 / 19;132024;2022-10-23 14:08:52:700
3.3051;-4.3777;-3.2034;7.1777;4.9016;-4.5415;-0.7597;-10.4499;0.3534;1.6197;-0.814;-2.7016;8160.0;-33.04;4.24;33.17;21.34;-29.99;-122.32;2.0;990.7;52.647;35.95623;-83.92739;843.71;NaN;;4.79;12.226105;42.3;16 / 19;132524;2022-10-23 14:08:53:200
18.7325;-1.5646;-3.0751;7.2636;-4.143;-5.123;4.6232;6.2719;2.8305;-0.7968;-0.2505;1.5517;6296.0;-29.94;12.77;29.18;131.33;24.99;-125.2;2.0;990.71;51.898;35.956245;-83.927376;844.21;NaN;;4.93;12.226105;44.4;16 / 19;133024;2022-10-23 14:08:53:700
6.1696;-3.5695;-2.3868;8.7378;3.0297;-3.2623;-2.6378;-6.7933;-0.4007;-0.8185;0.0951;1.7371;7733.0;-33.6;18.51;31.86;29.97;-18.0;-110.47;2.0;990.72;53.329;35.956245;-83.927376;844.21;NaN;;4.93;12.226105;44.4;16 / 19;133524;2022-10-23 14:08:54:200
16.9346;-3.0464;-2.5065;7.4332;-4.8674;-4.1505;2.5044;5.4213;1.1897;-0.6066;-0.0203;1.2312;5215.0;-49.18;31.07;26.53;36.19;24.24;-114.84;2.0;990.72;50.662;35.956257;-83.92737;844.05;NaN;;4.86;12.226105;36.0;16 / 19;134024;2022-10-23 14:08:54:700
6.0452;-3.6377;-2.7616;9.1531;2.3955;-2.5795;-3.4961;-5.9541;-0.5749;0.1421;-0.2572;-0.0096;7325.0;-67.59;26.51;19.31;5.71;-14.38;-102.07;2.0;990.68;56.19;35.956257;-83.92737;844.05;NaN;;4.86;12.226105;36.0;16 / 19;134524;2022-10-23 14:08:55:200
12.976;-0.559;-1.8194;6.5462;-6.1998;-3.8574;4.2692;4.5396;2.2269;0.2258;-0.8523;2.5031;5754.0;-80.72;17.31;7.29;226.59;39.21;-120.51;2.0;990.7;54.402;35.956264;-83.92736;845.13;NaN;;4.86;12.226105;41.3;16 / 19;135024;2022-10-23 14:08:55:700
4.5942;-4.5511;-2.4036;8.4208;4.1062;-2.8982;-1.5599;-8.8696;0.8212;1.8487;-0.8585;-3.165;6599.0;-66.92;33.38;1.44;348.34;-4.93;-97.68;2.0;990.68;61.179;35.956264;-83.92736;845.13;NaN;;4.86;12.226105;41.3;16 / 19;135524;2022-10-23 14:08:56:200
12.4038;0.1232;-2.6312;7.8569;-4.4932;-3.775;4.1671;2.8635;-0.4062;-0.6018;-0.5254;3.5573;6541.0;-55.11;-15.24;4.14;208.75;27.27;-115.66;2.0;990.68;51.721;35.956272;-83.927345;843.0;NaN;;5.15;12.226105;56.6;16 / 19;136023;2022-10-23 14:08:56:699
6.7119;-4.9164;-2.0375;8.099;5.0914;-2.1571;3.1154;-11.0009;0.0685;1.5417;0.544;-4.0052;6662.0;-47.94;12.71;7.65;352.73;-31.28;-104.91;2.0;990.74;53.204;35.956272;-83.927345;843.0;NaN;;5.15;12.226105;56.6;16 / 19;136524;2022-10-23 14:08:57:200
8.1784;3.8809;-0.8222;8.5854;1.8552;-4.3612;1.4694;2.2138;-2.2468;-1.5209;-0.2157;2.5129;7658.0;-30.75;-22.82;18.77;169.55;-10.9;-116.93;2.0;990.71;51.795;35.956284;-83.92734;839.87;NaN;;5.18;12.226105;43.9;16 / 19;137024;2022-10-23 14:08:57:700
5.0719;-2.4275;-4.7895;8.4969;2.3726;-4.2831;1.0402;-3.4173;0.7905;2.7019;0.1368;-3.6363;7430.0;-39.66;-4.95;18.23;192.15;1.76;-116.01;2.0;990.72;51.996;35.956284;-83.92734;839.87;NaN;;5.18;12.226105;43.9;16 / 19;137523;2022-10-23 14:08:58:199
10.1749;0.5279;-2.8717;7.5047;-2.8085;-5.6535;1.4873;3.2124;2.5009;-0.3282;-0.7817;2.1495;8087.0;-27.32;-11.46;15.62;176.12;4.1;-119.01;2.0;990.74;54.451;35.956295;-83.92733;840.33;NaN;;4.72;12.226105;39.4;16 / 19;138024;2022-10-23 14:08:58:700
6.434;-3.1496;-4.6971;8.8536;2.0909;-3.6624;3.6016;-4.4741;-1.6292;0.5207;1.5413;-3.5265;7432.0;-22.09;6.47;13.84;21.77;-12.31;-112.47;2.0;990.72;52.461;35.956295;-83.92733;840.33;NaN;;4.72;12.226105;39.4;16 / 19;138524;2022-10-23 14:08:59:200
9.5465;0.3197;-3.1567;7.6839;-2.7143;-5.4554;1.1499;3.775;-0.1813;-1.6229;-0.0763;3.3796;7367.0;-28.67;6.34;4.03;264.01;16.07;-125.37;2.0;990.72;53.291;35.956303;-83.92733;840.42;NaN;;4.79;12.226105;44.5;16 / 19;139023;2022-10-23 14:08:59:699
8.0572;-3.7756;-4.0795;9.3748;1.9247;-2.14;9.3586;-5.195;-3.8129;4.302;0.1955;-4.2959;9076.0;-19.56;24.39;11.81;14.57;-11.32;-102.86;2.0;990.67;52.814;35.956303;-83.92733;840.42;NaN;;4.79;12.226105;44.5;16 / 19;139524;2022-10-23 14:09:00:200
11.4676;2.2804;-2.5089;8.2134;-1.9731;-4.9817;7.4055;1.3845;-1.8306;-1.9454;-0.6356;4.3363;7670.0;-35.14;9.56;4.93;320.97;-11.27;-119.96;2.0;990.68;54.04;35.956318;-83.927315;836.43;NaN;;4.9;12.226105;43.8;16 / 19;140024;2022-10-23 14:09:00:700
11.1338;-3.4451;-2.2277;9.2467;2.676;-1.8728;3.5237;-6.3249;0.1757;3.839;0.6625;-3.7275;7955.0;-17.21;31.16;16.52;23.1;5.86;-104.37;2.0;990.72;52.733;35.956318;-83.927315;836.43;NaN;;4.9;12.226105;43.8;16 / 19;140524;2022-10-23 14:09:01:200
9.125;0.8031;-2.3593;9.2968;0.7359;-3.033;3.0319;0.0589;-0.9212;-2.2197;0.803;2.8339;8490.0;-33.41;3.39;9.69;352.56;-4.3;-108.07;2.0;990.69;51.566;35.956326;-83.92731;835.25;NaN;;4.82;12.226105;41.1;16 / 19;141024;2022-10-23 14:09:01:700
11.5229;-3.7014;-2.5582;9.5715;0.4906;-2.0776;5.0156;-4.0865;-0.1781;2.0883;1.185;-3.2731;6538.0;-18.56;17.06;16.59;37.98;17.13;-115.77;2.0;990.74;52.469;35.956326;-83.92731;835.25;NaN;;4.82;12.226105;41.1;16 / 19;141524;2022-10-23 14:09:02:200
9.8554;1.3561;-4.1991;9.1554;0.3954;-3.4919;-0.1181;-1.2862;-0.0452;-1.0477;1.0885;3.0112;8269.0;-30.86;11.96;21.68;35.21;-2.31;-110.88;2.0;990.72;51.485;35.956337;-83.9273;831.47;NaN;;4.86;12.226105;32.3;16 / 19;142024;2022-10-23 14:09:02:700
7.3187;-2.8645;-2.5208;9.5153;0.4358;-2.3322;1.9922;-5.3298;-0.1367;2.4915;0.2852;-3.0342;5395.0;-21.09;24.13;28.63;42.61;-2.55;-103.77;2.0;990.75;50.392;35.956337;-83.9273;831.47;NaN;;4.86;12.226105;32.3;16 / 19;142524;2022-10-23 14:09:03:200
8.8618;-0.2644;-2.3545;9.169;-1.9154;-2.9036;3.31;-0.9281;0.3362;0.8124;-0.9037;1.8099;7035.0;-33.82;11.63;27.64;77.02;11.26;-107.57;2.0;990.7;58.131;35.956345;-83.927284;830.27;NaN;;4.75;12.226105;35.5;16 / 19;143024;2022-10-23 14:09:03:700
8.2717;-4.8206;-2.9806;9.6978;0.3661;-1.4105;4.4847;-5.965;-0.9876;1.2789;1.3572;-3.0074;5784.0;-21.04;22.43;31.91;63.42;18.25;-111.11;2.0;990.73;58.829;35.956345;-83.927284;830.27;NaN;;4.75;12.226105;35.5;16 / 19;143524;2022-10-23 14:09:04:200
11.4784;-1.9164;-3.2189;7.8015;-4.1395;-4.2628;3.1603;1.661;0.8383;-2.1819;-0.1984;3.747;7200.0;-42.39;12.06;33.49;63.79;4.82;-111.2;2.0;990.75;50.825;35.956356;-83.92728;830.12;NaN;;5.26;12.226105;49.4;16 / 19;144024;2022-10-23 14:09:04:700
11.5588;-5.3255;-2.7425;9.5312;-1.0783;-2.0405;7.0819;-5.0753;-0.0833;2.4;0.8771;-3.5432;5836.0;-27.13;25.54;44.55;60.27;6.31;-102.08;2.0;990.72;51.918;35.956356;-83.92728;830.12;NaN;;5.26;12.226105;49.4;16 / 19;144524;2022-10-23 14:09:05:200
9.7319;0.1507;-4.0496;8.8462;-2.1204;-3.6633;3.5059;1.2544;-0.4105;-0.215;-0.2825;2.7677;7706.0;-50.7;0.66;27.96;151.13;12.49;-112.49;2.0;990.75;48.991;35.956364;-83.92727;827.01;NaN;;4.18;12.226105;29.5;16 / 19;145023;2022-10-23 14:09:05:699
10.5652;-5.8343;-2.5196;9.2905;-2.1237;-2.3123;5.2926;0.6988;0.448;2.8013;-0.2747;-2.7894;5129.0;-40.48;18.62;32.68;69.37;12.51;-103.98;2.0;990.74;50.261;35.956364;-83.92727;827.01;NaN;;4.18;12.226105;29.5;16 / 19;145524;2022-10-23 14:09:06:200
8.6653;-0.6129;-3.9957;8.9492;-2.5514;-3.0938;4.3104;-0.3351;-0.1408;0.1127;0.2866;2.5348;7334.0;-50.38;-0.3;38.78;75.61;-5.46;-107.61;2.0;990.74;51.785;35.95637;-83.92727;827.93;NaN;;4.0;12.226105;36.9;16 / 19;146024;2022-10-23 14:09:06:700
9.3694;-4.398;-1.841;9.6534;0.1622;-1.7192;1.8386;-5.8391;0.3895;1.9505;0.6891;-3.2457;4733.0;-42.0;19.35;44.48;93.56;20.82;-110.28;2.0;990.74;51.273;35.95637;-83.92727;827.93;NaN;;4.0;12.226105;36.9;16 / 19;146524;2022-10-23 14:09:07:200
9.8853;-0.6966;-4.0388;9.2771;-1.2964;-2.9026;0.9606;-1.156;0.6573;0.2254;-0.2053;2.6855;7095.0;-41.18;-11.85;41.46;124.8;7.6;-107.37;2.0;990.74;54.052;35.95638;-83.92726;829.41;NaN;;4.64;12.226105;24.4;16 / 19;147024;2022-10-23 14:09:07:700
11.7897;-5.729;-1.136;9.7401;-0.361;-1.0815;6.4007;-5.5392;-0.6253;-0.2689;2.481;-3.1059;2770.0;-35.7;4.65;46.03;123.21;26.42;-113.31;2.0;990.74;53.663;35.95638;-83.92726;829.41;NaN;;4.64;12.226105;24.4;16 / 19;147524;2022-10-23 14:09:08:200
17.1909;-4.6768;-3.6488;9.3063;-0.245;-3.0827;-1.4627;-5.7246;0.5648;-0.6643;-0.1558;3.4316;6175.0;-32.34;-10.46;38.42;113.03;1.43;-108.33;2.0;990.72;53.729;35.956387;-83.92725;831.13;NaN;;5.11;12.226105;52.5;16 / 19;148024;2022-10-23 14:09:08:700
17.6695;-8.7446;-2.4108;9.5088;-1.9949;-1.3316;9.2848;0.047;-0.1412;0.1496;1.215;-4.022;2590.0;-28.57;5.38;38.76;93.39;11.74;-97.97;2.0;990.75;55.911;35.956387;-83.92725;831.13;NaN;;5.11;12.226105;52.5;16 / 19;148523;2022-10-23 14:09:09:199
18.3796;-4.9881;-3.5324;7.8976;4.4153;-3.782;-5.5408;-8.349;1.8215;-2.0989;0.6425;5.3774;5377.0;-23.7;-7.27;31.39;61.57;-26.76;-115.59;2.0;990.74;57.221;35.9564;-83.927246;831.08;NaN;;4.93;12.226105;30.0;16 / 19;149024;2022-10-23 14:09:09:700
19.5826;-6.2127;-1.6962;8.2655;-3.9171;-3.5366;7.8996;4.0184;2.9268;0.1873;1.2128;-1.3665;1250.0;-17.64;-2.96;33.36;142.82;33.39;-126.06;2.0;990.77;50.099;35.9564;-83.927246;831.08;NaN;;4.93;12.226105;30.0;16 / 19;149524;2022-10-23 14:09:10:200
7.1237;-5.6177;-3.3386;9.0972;0.6804;-3.5985;-1.5668;-6.1073;0.1382;-0.1429;-0.5482;3.8089;4819.0;-22.28;-2.79;35.29;60.67;-28.32;-112.66;2.0;990.73;59.503;35.95641;-83.92724;827.49;NaN;;4.61;12.226105;30.1;16 / 19;150024;2022-10-23 14:09:10:700
17.9533;-1.445;-1.628;7.178;-4.8389;-4.6078;4.9239;5.456;5.5501;0.253;-0.0896;0.3201;1629.0;-21.45;2.96;45.36;124.32;29.57;-122.7;2.0;990.79;56.408;35.95641;-83.92724;827.49;NaN;;4.61;12.226105;30.1;16 / 19;150524;2022-10-23 14:09:11:200
10.3376;-8.5804;-1.8673;9.3926;1.8406;-2.1356;-2.8669;-6.0173;0.1364;-2.4104;0.5132;1.3497;4360.0;-34.22;-3.04;40.39;81.08;-10.82;-102.81;2.0;990.74;55.352;35.95642;-83.92723;825.71;NaN;;4.54;12.226105;26.3;16 / 19;151024;2022-10-23 14:09:11:700
15.9577;-1.2497;-2.2528;7.4901;-4.962;-3.9304;3.4312;6.7356;2.1822;0.0436;0.8568;-1.8816;2561.0;-28.56;0.96;41.7;132.86;30.4;-117.69;2.0;990.77;56.195;35.95642;-83.92723;825.71;NaN;;4.54;12.226105;26.3;16 / 19;151525;2022-10-23 14:09:12:201
6.4582;-4.841;-4.6134;8.6779;3.2553;-3.2043;-4.9109;-6.5364;0.2579;0.3655;-0.2185;0.326;1057.0;-24.73;-3.96;38.38;71.56;-23.4;-105.63;2.0;990.75;53.501;35.95643;-83.92722;825.2;NaN;;4.61;12.226105;36.2;16 / 19;152024;2022-10-23 14:09:12:700
17.7272;-2.3569;-0.0179;7.4611;-4.7739;-4.2085;8.1578;2.0554;3.5782;0.1321;1.0455;-0.4164;1885.0;-18.06;1.46;44.29;134.54;33.23;-129.54;2.0;990.78;53.312;35.95643;-83.92722;825.2;NaN;;4.61;12.226105;36.2;16 / 19;152524;2022-10-23 14:09:13:200
5.6381;-7.3582;-2.6372;8.8666;3.2885;-2.5962;-3.5944;-7.5809;0.4521;-0.6938;-0.2579;-0.4647;1019.0;-23.21;10.97;30.66;48.39;-19.59;-106.32;2.0;990.75;55.266;35.956432;-83.927216;825.56;NaN;;3.92;12.226105;36.2;16 / 19;153024;2022-10-23 14:09:13:700
16.2236;-1.6866;-0.5387;6.9431;-5.6242;-4.0414;6.6379;5.8345;3.0877;-0.5596;0.5814;-0.3338;2362.0;-11.38;17.74;22.5;94.04;40.89;-124.75;2.0;990.77;51.709;35.956432;-83.927216;825.56;NaN;;3.92;12.226105;36.2;16 / 19;153524;2022-10-23 14:09:14:200
4.2688;-3.8378;-2.758;8.4995;4.3947;-2.1482;-3.5559;-9.1851;-1.4609;0.41;-0.162;-1.7172;1061.0;-20.85;17.72;24.11;33.05;-26.62;-104.18;2.0;990.75;54.592;35.95644;-83.92721;825.76;NaN;;4.5;12.226105;33.4;16 / 19;154024;2022-10-23 14:09:14:700
13.2538;-0.5291;1.4139;7.3753;-4.8212;-4.3048;4.2623;5.3003;5.5709;-1.1621;-0.3269;1.424;1291.0;-39.79;15.98;36.53;136.02;29.45;-120.27;2.0;990.78;51.064;35.95644;-83.92721;825.76;NaN;;4.5;12.226105;33.4;16 / 19;154524;2022-10-23 14:09:15:200
5.2645;-3.7516;-3.1352;9.1759;2.2381;-2.639;-3.5089;-6.1603;-0.5689;-1.2086;-0.1819;1.1846;3111.0;-50.04;3.23;45.69;61.08;-13.19;-106.05;2.0;990.76;53.927;35.956448;-83.9272;822.36;NaN;;4.1;12.226105;42.1;16 / 19;155024;2022-10-23 14:09:15:700
18.2528;-3.1232;-1.7142;6.792;-5.0606;-4.9427;4.4348;6.0764;1.5755;-1.3526;-0.071;1.4494;2241.0;-47.53;5.76;51.19;137.28;26.96;-117.75;2.0;990.75;53.059;35.956448;-83.9272;822.36;NaN;;4.1;12.226105;42.1;16 / 19;155524;2022-10-23 14:09:16:200
2.8944;-3.1723;-3.8689;7.8789;4.142;-4.1155;-4.2834;-7.2473;-0.2012;0.0996;-0.776;-0.278;1167.0;-42.71;-2.23;44.04;51.94;-23.18;-110.93;2.0;990.74;53.511;35.95645;-83.927185;820.76;NaN;;5.29;12.226105;74.4;16 / 19;156025;2022-10-23 14:09:16:701
13.1447;-1.0546;-0.5255;7.6937;-3.6377;-4.8729;3.3027;3.4103;8.1818;-0.6421;-1.548;1.2506;2222.0;-38.81;-10.72;33.08;166.4;21.77;-122.35;2.0;990.79;52.215;35.95645;-83.927185;820.76;NaN;;5.29;12.226105;74.4;16 / 19;156523;2022-10-23 14:09:17:199
3.2201;-2.8513;-4.2317;7.758;4.6239;-3.8214;-4.5426;-8.4282;0.023;0.7293;-0.4393;-1.2075;1701.0;-36.94;-6.39;32.06;35.97;-28.13;-116.22;2.0;990.75;58.351;35.956455;-83.92717;820.48;NaN;;4.57;12.226105;73.6;15 / 19;157024;2022-10-23 14:09:17:700
12.6434;-1.1874;0.6416;7.3819;-3.6282;-5.3399;4.9896;1.6074;4.3786;-1.8987;-0.3341;2.1296;2147.0;-34.56;-10.05;34.22;165.48;21.71;-125.88;2.0;990.81;53.273;35.956455;-83.92717;820.48;NaN;;4.57;12.226105;73.6;15 / 19;157524;2022-10-23 14:09:18:200
6.44;-3.2429;-6.2079;7.5795;1.7991;5.9569;1.4015;-6.6413;-12.3346;-0.897;4.7606;-1.8767;1401.0;-40.82;-6.28;22.69;103.36;0.84;-83.34;2.0;990.78;56.129;35.956455;-83.927155;820.59;NaN;;4.54;12.226105;86.5;15 / 19;158025;2022-10-23 14:09:18:701
8.243;-1.4474;3.038;7.8132;-3.6991;-4.6304;0.5019;2.2362;7.5771;-0.6516;-0.9612;1.1259;2745.0;-44.66;-16.03;3.66;204.03;17.28;-111.22;2.0;990.81;53.788;35.956455;-83.927155;820.59;NaN;;4.54;12.226105;86.5;15 / 19;158523;2022-10-23 14:09:19:199
3.4187;-3.3888;-3.274;9.3912;2.5508;-1.2119;-0.3451;-6.9837;-1.5274;3.6238;-0.343;-3.3261;2442.0;-44.51;-11.34;19.03;82.94;-15.08;-97.35;2.0;990.78;61.081;35.956455;-83.92714;821.74;NaN;;4.36;12.226105;85.9;15 / 19;159023;2022-10-23 14:09:19:699
11.7957;-0.6739;-0.0969;6.1855;-5.3814;-5.3805;6.2908;2.8951;5.8537;-0.7804;-1.1081;2.4696;2052.0;-35.27;-19.31;27.15;162.97;20.58;-114.46;2.0;990.81;54.099;35.956455;-83.92714;821.74;NaN;;4.36;12.226105;85.9;15 / 19;159523;2022-10-23 14:09:20:199
3.9802;-5.2813;-3.8821;8.831;3.2886;-2.7145;5.0732;-11.2131;0.7105;5.321;-0.627;-4.9106;1118.0;-41.04;-6.17;20.27;36.78;-19.59;-107.09;2.0;990.78;62.386;35.95644;-83.92712;822.15;NaN;;7.24;12.226105;139.5;15 / 19;160025;2022-10-23 14:09:20:701
13.1758;-0.2982;-4.3705;6.9331;-5.1682;-4.6252;8.8172;3.5914;-1.7904;-1.8279;0.1576;3.6013;1396.0;-27.73;-21.26;29.64;166.39;31.8;-123.71;2.0;990.81;51.318;35.95644;-83.92712;822.15;NaN;;7.24;12.226105;139.5;15 / 19;160524;2022-10-23 14:09:21:200
8.8391;-6.8746;-2.388;9.6807;-1.0977;-1.1173;8.3797;-7.158;-1.1841;4.1986;-1.5139;-3.7042;4120.0;-43.07;-3.49;19.28;119.86;6.43;-96.58;2.0;990.78;54.497;35.956432;-83.9271;823.87;NaN;;4.72;12.226105;127.7;15 / 19;161023;2022-10-23 14:09:21:699
11.8735;-1.7273;-4.2628;8.5235;-3.3066;-3.5478;8.0403;-1.4886;0.0177;-0.9182;-0.3024;3.4701;7318.0;-34.16;-23.01;25.73;146.52;-6.15;-110.82;2.0;990.8;57.841;35.956432;-83.9271;823.87;NaN;;4.72;12.226105;127.7;15 / 19;161524;2022-10-23 14:09:22:200
14.1694;-6.2773;-1.7644;9.1324;3.221;-1.5472;4.696;-9.7649;-0.2081;5.5168;0.1612;-4.4686;6172.0;-44.14;-3.62;17.96;139.51;10.11;-99.71;2.0;990.79;59.392;35.95642;-83.92709;824.54;NaN;;4.54;12.226105;141.5;15 / 19;162023;2022-10-23 14:09:22:699
12.3691;-2.2062;-4.7847;8.8898;-2.463;-3.3278;6.2749;-1.0648;-0.2742;-0.162;0.7008;4.1816;10102.0;-31.09;-29.1;19.82;168.04;14.55;-110.52;2.0;990.81;53.389;35.95642;-83.92709;824.54;NaN;;4.54;12.226105;141.5;15 / 19;162524;2022-10-23 14:09:23:200
11.1565;-8.3375;-0.1962;9.7795;0.4754;-0.5539;8.0606;-11.1666;-0.7088;0.8203;2.4245;-4.3112;7951.0;-44.14;-0.96;18.98;85.9;-2.78;-93.24;2.0;990.83;55.154;35.956413;-83.927086;825.06;NaN;;4.46;12.226105;141.2;15 / 19;163024;2022-10-23 14:09:23:700
14.2986;-4.2162;-4.4554;9.1967;0.0733;-3.4038;-2.9384;-6.5379;1.3668;-0.543;0.3286;4.7968;10344.0;-32.53;-24.99;22.26;159.62;-0.43;-110.31;2.0;990.83;53.134;35.956413;-83.927086;825.06;NaN;;4.46;12.226105;141.2;15 / 19;163524;2022-10-23 14:09:24:200
9.2016;-8.0919;-2.3797;9.6412;-0.2925;-1.77;9.4601;-9.5834;-0.8746;1.9472;2.3547;-4.7641;7692.0;-40.82;1.52;24.79;183.3;31.05;-122.96;2.0;990.82;53.015;35.956406;-83.92707;823.29;NaN;;4.61;12.226105;128.9;15 / 19;164024;2022-10-23 14:09:24:700
12.9521;-1.319;-4.6911;8.3336;-3.3592;-3.929;5.5876;0.6942;-1.6121;-0.755;0.2721;4.263;10620.0;-30.13;-26.85;27.02;153.74;-7.93;-116.85;2.0;990.81;49.797;35.956406;-83.92707;823.29;NaN;;4.61;12.226105;128.9;15 / 19;164524;2022-10-23 14:09:25:200
13.4333;-8.3483;-3.3817;9.211;-2.302;-2.4556;7.7768;-1.4189;-0.3331;-0.18;2.2304;-3.0446;7080.0;-43.56;-1.07;22.63;138.58;13.58;-104.93;2.0;990.84;50.233;35.9564;-83.927055;821.73;NaN;;4.46;12.226105;126.4;14 / 19;165024;2022-10-23 14:09:25:700
13.0525;-1.6747;-2.8298;9.3433;-0.5457;-2.9283;2.8367;-1.8553;0.5178;-1.2926;-1.3401;2.7064;8123.0;-38.51;-26.42;9.53;152.95;-14.65;-93.29;2.0;990.8;51.056;35.9564;-83.927055;821.73;NaN;;4.46;12.226105;126.4;14 / 19;165524;2022-10-23 14:09:26:200
19.2676;-6.4519;-1.695;7.9337;-3.4604;-4.6101;6.4411;3.7468;6.101;1.1117;1.0794;-0.8859;6635.0;-43.56;-10.99;18.23;193.67;20.66;-120.16;2.0;990.78;54.182;35.95639;-83.92705;820.71;NaN;;4.43;12.226105;122.3;14 / 19;166024;2022-10-23 14:09:26:700
15.0338;-5.5161;-3.0523;8.9561;0.4763;-3.9664;-1.4187;-7.6992;1.5717;-0.2843;-0.2394;3.3459;8765.0;-31.39;-24.54;21.69;161.92;-2.78;-113.89;2.0;990.83;60.849;35.95639;-83.92705;820.71;NaN;;4.43;12.226105;122.3;14 / 19;166524;2022-10-23 14:09:27:200
23.3737;-3.8725;-7.6098;5.9924;-5.8895;-5.0572;5.7408;9.64;2.7357;-1.3809;1.7054;-4.4819;6686.0;-36.86;0.83;27.62;185.21;36.91;-130.16;2.0;990.81;60.663;35.956383;-83.92704;817.82;NaN;;4.68;12.226105;115.5;14 / 19;167024;2022-10-23 14:09:27:700
2.9255;-6.9308;-3.0428;4.9427;4.5668;-7.1334;-4.4317;-8.8406;3.841;-0.3851;-0.088;1.1337;8907.0;-23.4;-17.53;28.35;318.68;-33.31;-147.18;2.0;990.84;69.763;35.956383;-83.92704;817.82;NaN;;4.68;12.226105;115.5;14 / 19;167524;2022-10-23 14:09:28:200
18.3305;1.3717;0.4669;8.9774;-1.3391;-3.7127;9.6718;2.9898;3.5037;-1.0349;2.2819;-0.7493;6749.0;-30.43;-17.03;26.78;180.91;16.67;-132.62;2.0;990.81;58.894;35.95638;-83.927025;814.54;NaN;;4.75;12.226105;115.1;14 / 19;168024;2022-10-23 14:09:28:700
2.0004;-0.9063;-4.2329;4.5033;7.3167;-4.7282;-3.2129;-9.0312;1.4429;0.4636;-0.5522;-0.5328;8134.0;-22.09;-28.82;15.64;277.62;-48.25;-136.4;2.0;990.81;62.858;35.95638;-83.927025;814.54;NaN;;4.75;12.226105;115.1;14 / 19;168524;2022-10-23 14:09:29:200
14.5214;2.0112;0.5148;6.6257;-2.4873;-6.7885;5.9611;6.2949;8.229;1.1033;0.5576;-0.264;6418.0;-31.56;-21.09;25.18;190.1;14.69;-135.7;2.0;990.82;63.688;35.956375;-83.92701;812.07;NaN;;4.46;12.226105;125.6;14 / 19;169023;2022-10-23 14:09:29:699
-1.689;0.6165;-5.881;1.7192;6.0211;-7.5472;7.5548;-8.4613;5.0044;-0.144;-0.419;-0.1693;7567.0;-28.76;-22.12;21.0;267.97;-37.88;-167.17;2.0;990.81;67.256;35.956375;-83.92701;812.07;NaN;;4.46;12.226105;125.6;14 / 19;169524;2022-10-23 14:09:30:200
4.5045;8.9695;6.245;3.806;6.0064;6.7534;-1.1085;3.0751;-2.4626;-1.9522;3.4489;0.7135;6526.0;4.16;-28.57;25.86;145.11;-50.82;-62.44;2.0;990.85;57.971;35.956367;-83.927;812.26;NaN;;4.57;12.226105;118.6;14 / 19;170025;2022-10-23 14:09:30:701
0.1304;3.967;6.2605;2.5666;4.3512;8.4054;-2.0855;-0.0031;-1.1397;0.1332;-0.2613;-0.0754;8056.0;-16.05;-35.7;-17.57;154.01;-27.57;-15.29;2.0;990.86;59.006;35.956367;-83.927;812.26;NaN;;4.57;12.226105;118.6;14 / 19;170524;2022-10-23 14:09:31:200
0.5925;-3.2046;12.7032;1.9221;-0.7284;9.5888;-4.9097;0.1453;-2.001;-1.1326;-1.1819;-0.3415;59033.996;-7.42;-25.31;-30.43;177.96;4.26;-11.33;2.0;990.88;58.838;35.956364;-83.926994;813.24;NaN;;4.82;12.226105;112.5;14 / 19;171024;2022-10-23 14:09:31:700
2.6563;4.0005;-0.2704;6.1926;7.6033;-0.1061;-5.8402;-5.3334;2.5527;5.2154;-5.4842;-0.6173;59153.996;-7.74;-19.33;-34.2;238.77;-23.2;-23.97;2.0;990.83;60.225;35.956364;-83.926994;813.24;NaN;;4.82;12.226105;112.5;14 / 19;171524;2022-10-23 14:09:32:200
9.7917;2.9375;1.6543;9.5774;-0.3664;-2.0758;-0.3246;1.4384;5.7198;-2.3244;0.2157;2.0703;6969.0;-26.55;-32.74;11.36;171.59;2.14;-102.23;2.0;990.83;62.061;35.95636;-83.92698;813.75;NaN;;4.75;12.226105;123.1;14 / 19;172024;2022-10-23 14:09:32:700
7.2194;-2.5331;-3.1723;9.0939;1.8689;-3.1589;-2.8502;-3.4947;-0.8627;1.8212;-0.85;-0.7134;7432.0;-36.64;-23.16;16.86;165.23;-10.99;-109.16;2.0;990.84;61.104;35.95636;-83.92698;813.75;NaN;;4.75;12.226105;123.1;14 / 19;172525;2022-10-23 14:09:33:201
11.7227;0.0407;0.5339;8.0622;-3.7079;-4.1742;0.0287;2.792;3.1147;1.1101;-0.5455;1.5477;6265.0;-37.48;-15.19;20.76;176.87;22.22;-117.37;2.0;990.89;62.741;35.956352;-83.92697;810.94;NaN;;4.93;12.226105;128.5;14 / 19;173025;2022-10-23 14:09:33:701
2.3988;-3.2333;-1.2114;8.5496;4.5013;-1.6771;-4.9033;-8.9214;-0.6402;0.2518;-0.9631;-2.0445;7265.0;-39.54;-7.93;19.43;89.69;-11.16;-93.21;2.0;990.86;68.789;35.956352;-83.92697;810.94;NaN;;4.93;12.226105;128.5;14 / 19;173523;2022-10-23 14:09:34:199
10.3929;0.9685;-0.6607;8.1374;-1.7008;-5.2019;2.5239;2.5769;4.9189;-3.2906;-0.9313;2.3284;6984.0;-26.7;-26.1;25.93;156.17;5.69;-113.68;2.0;990.91;61.48;35.956345;-83.92695;810.88;NaN;;4.86;12.226105;119.7;14 / 19;174023;2022-10-23 14:09:34:699
6.1086;-2.5666;-3.5743;8.6192;4.3612;-1.6913;-0.3852;-7.0148;-2.4651;3.2334;0.4831;-2.9606;7121.0;-37.63;-21.92;10.14;132.23;-26.41;-101.1;2.0;990.87;58.139;35.956345;-83.92695;810.88;NaN;;4.86;12.226105;119.7;14 / 19;174523;2022-10-23 14:09:35:199
10.4097;-1.6472;2.1284;6.8572;-5.3785;-4.4967;3.2611;4.2066;5.7339;-1.2519;-0.4132;3.4826;6060.0;-32.53;-20.04;22.22;179.55;33.26;-123.26;2.0;990.9;52.358;35.956337;-83.92694;809.7;NaN;;4.54;12.226105;125.9;14 / 19;175023;2022-10-23 14:09:35:699
3.4869;-3.4271;-3.4032;8.585;4.0981;-2.382;-1.5473;-9.0923;0.3804;0.824;-0.652;-1.3122;6621.0;-40.48;-13.18;14.36;25.5;-24.7;-105.51;2.0;990.84;67.881;35.956337;-83.92694;809.7;NaN;;4.54;12.226105;125.9;14 / 19;175523;2022-10-23 14:09:36:199
9.5776;0.146;2.1739;8.0021;-3.1239;-4.7306;2.6294;4.1395;7.3168;1.2984;-2.2296;0.6386;6472.0;-31.39;-27.79;20.01;162.55;9.37;-106.3;2.0;990.93;55.882;35.956333;-83.926926;809.31;NaN;;4.54;12.226105;128.8;14 / 19;176023;2022-10-23 14:09:36:699
6.2055;-3.717;-3.3829;7.7957;4.4477;-3.9517;-1.7494;-8.1148;0.7385;2.9556;-0.9514;-2.7127;6952.0;-41.23;-20.83;18.26;129.58;-14.45;-98.77;2.0;990.85;62.024;35.956333;-83.926926;809.31;NaN;;4.54;12.226105;128.8;14 / 19;176524;2022-10-23 14:09:37:200
11.651;1.4868;-0.6236;7.7181;-2.3153;-5.5894;3.6484;2.6439;3.0476;-1.8368;-1.6313;2.9922;7105.0;-30.11;-28.57;28.26;172.34;13.66;-125.91;2.0;990.93;55.339;35.956326;-83.92692;808.68;NaN;;4.57;12.226105;134.3;14 / 19;177024;2022-10-23 14:09:37:700
5.4802;-3.469;-4.034;7.7837;4.8821;-3.4277;0.8211;-8.3469;-1.9092;1.4463;0.4622;-3.5428;7101.0;-41.38;-21.64;22.35;154.26;-9.41;-109.77;2.0;990.88;60.76;35.956326;-83.92692;808.68;NaN;;4.57;12.226105;134.3;14 / 19;177524;2022-10-23 14:09:38:200
11.3396;1.9825;-0.9529;8.6919;0.0333;-4.5409;1.9842;0.8518;0.8901;-2.6361;-1.3788;3.5095;7891.0;-20.1;-36.32;25.43;160.24;-0.19;-117.58;2.0;990.95;57.622;35.956318;-83.92691;808.78;NaN;;4.57;12.226105;134.2;14 / 19;178024;2022-10-23 14:09:38:700
6.9344;-3.7325;-4.2544;8.7873;3.1019;-3.0549;1.2405;-5.8327;-0.0706;4.1202;0.5978;-3.8967;7150.0;-37.84;-28.14;19.18;157.55;-18.44;-109.17;2.0;990.92;65.728;35.956318;-83.92691;808.78;NaN;;4.57;12.226105;134.2;14 / 19;178524;2022-10-23 14:09:39:200
10.2072;0.941;-4.5894;8.203;-2.452;-4.7821;6.4441;2.3609;-0.5971;-0.265;-0.5598;1.9236;7489.0;-25.31;-24.15;35.14;151.9;14.48;-120.24;2.0;990.92;59.89;35.956306;-83.9269;808.32;NaN;;4.64;12.226105;131.1;14 / 19;179024;2022-10-23 14:09:39:700
6.67;-4.2269;-4.6421;8.6587;3.3847;-3.121;1.2305;-9.068;-0.0234;4.3417;-0.5708;-4.0864;7194.0;-36.28;-15.58;32.59;124.23;1.85;-101.06;2.0;990.9;60.831;35.956306;-83.9269;808.32;NaN;;4.64;12.226105;131.1;14 / 19;179524;2022-10-23 14:09:40:200
11.9895;0.1651;-3.1579;6.9573;-4.3859;-5.3414;5.0422;4.574;2.2992;-0.9701;-0.5826;2.376;7756.0;-38.1;-24.73;31.91;162.42;14.89;-116.61;2.0;990.95;60.308;35.9563;-83.926895;805.31;NaN;;4.46;12.226105;127.8;14 / 19;180024;2022-10-23 14:09:40:700
7.8742;-4.0053;-5.2693;8.6654;2.5455;-3.8213;3.1654;-7.3338;-0.5427;2.7159;0.5304;-4.3701;7019.0;-45.79;-8.62;37.22;68.23;-15.04;-113.8;2.0;990.87;60.405;35.9563;-83.926895;805.31;NaN;;4.46;12.226105;127.8;14 / 19;180524;2022-10-23 14:09:41:200
11.8591;1.0666;-5.8427;7.3856;-3.8016;-5.2125;3.6335;4.1505;-0.2665;-0.4403;-0.3685;3.0061;8456.0;-35.29;-32.81;29.31;175.81;22.81;-125.21;2.0;990.95;55.088;35.956295;-83.92688;804.59;NaN;;4.54;12.226105;123.3;14 / 19;181024;2022-10-23 14:09:41:700
7.5365;-3.9024;-3.5767;9.3755;1.1536;-2.6343;4.3931;-6.9073;-0.588;1.5809;-0.2149;-2.5969;7633.0;-48.21;-13.93;24.68;124.69;-6.76;-105.69;2.0;990.91;60.998;35.956295;-83.92688;804.59;NaN;;4.54;12.226105;123.3;14 / 19;181524;2022-10-23 14:09:42:200
12.4672;-1.9343;-6.0296;6.3207;-6.3397;-4.0034;3.2736;3.1461;-1.6134;0.4229;-0.4923;4.2872;7473.0;-31.67;-24.45;29.68;153.7;11.98;-112.04;2.0;990.99;54.069;35.95629;-83.926865;803.42;NaN;;4.64;12.226105;99.9;15 / 19;182024;2022-10-23 14:09:42:700
4.0184;-5.1796;-3.0117;8.6917;3.7546;-2.5551;-0.7036;-9.6722;1.1789;3.667;-0.9525;-3.465;7059.0;-39.26;-4.5;27.64;96.98;-1.12;-92.48;2.0;990.93;63.493;35.95629;-83.926865;803.42;NaN;;4.64;12.226105;99.9;15 / 19;182524;2022-10-23 14:09:43:200
12.8551;0.4071;-0.2177;7.8582;-4.0141;-4.2786;4.1188;2.2946;-1.037;-2.3937;0.1446;3.8768;7513.0;-28.11;-17.19;37.05;149.79;24.16;-118.57;2.0;990.96;54.28;35.95629;-83.92686;802.78;NaN;;4.9;12.226105;102.2;15 / 19;183024;2022-10-23 14:09:43:700
7.0184;-5.024;-5.0001;7.4145;4.7145;-4.3554;1.3408;-10.2709;-0.7096;3.3962;-0.7058;-4.6944;7704.0;-38.18;-12.73;28.99;115.03;-5.29;-103.84;2.0;990.92;60.461;35.95629;-83.92686;802.78;NaN;;4.9;12.226105;102.2;15 / 19;183525;2022-10-23 14:09:44:201
11.0788;1.8111;-2.4467;8.2562;-1.0977;-5.1769;2.266;3.1358;-2.179;-1.4617;-0.3053;3.4621;8053.0;-19.11;-23.55;38.55;140.63;6.43;-122.09;2.0;990.98;57.151;35.95629;-83.926834;804.2;NaN;;4.68;12.226105;93.7;15 / 19;184024;2022-10-23 14:09:44:700
5.0157;-2.6623;-4.5559;8.1233;4.3248;-3.388;0.9375;-7.2668;-1.0315;2.6921;0.1174;-3.6803;7660.0;-31.01;-20.34;31.41;90.24;-26.17;-112.64;2.0;990.94;60.372;35.95629;-83.926834;804.2;NaN;;4.68;12.226105;93.7;15 / 19;184524;2022-10-23 14:09:45:200
10.5293;1.7429;-0.6535;7.9678;-2.8772;-4.9403;7.6455;-0.3717;-1.1414;-2.2514;0.0961;2.4098;7236.0;-23.7;-21.26;34.67;151.48;17.06;-121.8;2.0;990.98;57.258;35.95629;-83.92683;802.34;NaN;;4.5;12.226105;87.1;15 / 19;185024;2022-10-23 14:09:45:700
4.6756;-4.2855;-4.4758;6.9577;4.9668;-4.8054;6.7582;-11.4639;-1.7943;1.5724;-0.1714;-5.4523;6549.0;-30.82;-12.06;33.6;124.26;0.17;-114.87;2.0;990.94;57.813;35.95629;-83.92683;802.34;NaN;;4.5;12.226105;87.1;15 / 19;185524;2022-10-23 14:09:46:200
15.0374;1.2138;-4.0472;7.0459;-3.569;-5.8127;8.3443;3.9196;0.1002;-1.3452;-0.9345;4.1139;7627.0;-11.81;-25.59;37.76;132.55;-0.05;-117.23;2.0;990.96;55.792;35.95629;-83.92681;801.68;NaN;;4.57;12.226105;89.9;15 / 19;186024;2022-10-23 14:09:46:700
9.2363;-5.2825;-5.0169;9.5948;0.4496;-1.977;6.9683;-5.7862;-1.1491;2.4458;2.0781;-3.1439;7258.0;-36.54;-14.49;27.13;122.47;-2.63;-101.64;2.0;990.96;57.282;35.95629;-83.92681;801.68;NaN;;4.57;12.226105;89.9;15 / 19;186524;2022-10-23 14:09:47:200
14.2567;-0.0191;-4.0172;7.3111;-4.5487;-4.6934;6.552;1.6807;0.3308;-0.0403;-0.9281;4.3133;8194.0;-27.36;-22.42;33.64;160.01;27.63;-122.7;2.0;990.99;57.1;35.95629;-83.92679;802.29;NaN;;4.64;12.226105;92.7;15 / 19;187023;2022-10-23 14:09:47:699
9.5465;-7.8263;-2.5017;9.8001;-0.0104;-0.358;10.3794;-12.0377;1.1271;3.2467;-1.7248;-4.6014;6555.0;-38.59;-2.08;30.47;94.09;0.06;-92.09;2.0;990.97;62.908;35.95629;-83.92679;802.29;NaN;;4.64;12.226105;92.7;15 / 19;187524;2022-10-23 14:09:48:200
12.775;0.6188;-0.268;8.6422;-3.296;-3.2588;6.1684;3.7002;0.1228;-1.2195;-0.4279;3.8221;7762.0;-29.89;-24.58;32.55;129.95;-6.9;-104.77;2.0;990.97;57.181;35.95629;-83.92677;803.83;NaN;;4.79;12.226105;92.6;15 / 19;188024;2022-10-23 14:09:48:700
6.1971;-4.1465;-3.6583;7.9112;4.8771;-3.1302;0.461;-9.7807;0.4328;2.5231;-0.5446;-3.5089;7065.0;-40.01;-9.94;27.98;98.39;-8.77;-98.32;2.0;990.98;58.45;35.95629;-83.92677;803.83;NaN;;4.79;12.226105;92.6;15 / 19;188524;2022-10-23 14:09:49:200
13.887;1.4318;-3.8868;7.8439;-4.1772;-4.1467;5.196;2.5527;-0.0657;-0.3021;-0.9002;3.543;7403.0;-29.19;-20.47;34.13;155.24;25.21;-117.86;2.0;991.0;57.313;35.956287;-83.92676;804.52;NaN;;4.82;12.226105;97.0;15 / 19;189024;2022-10-23 14:09:49:700
7.0651;-6.2521;-3.3027;8.6964;3.4499;-2.9396;2.416;-11.1416;1.0217;5.1488;-0.787;-4.4005;8038.0;-39.96;-7.35;27.83;114.67;4.64;-97.16;2.0;990.98;56.856;35.956287;-83.92676;804.52;NaN;;4.82;12.226105;97.0;15 / 19;189523;2022-10-23 14:09:50:199
11.2343;-0.2333;-1.4761;9.0317;-2.2178;-3.1113;4.636;0.8119;-0.3465;-2.0078;-0.352;2.8471;7740.0;-30.19;-22.72;33.66;144.46;13.07;-109.01;2.0;990.99;56.953;35.956287;-83.92674;804.98;NaN;;4.72;12.226105;98.5;15 / 19;190023;2022-10-23 14:09:50:699
7.1345;-4.3346;-4.9044;8.9556;2.7551;-2.8943;2.0612;-7.4183;0.259;2.6344;0.0803;-4.069;7593.0;-40.71;-11.01;25.63;77.68;-16.32;-107.91;2.0;991.0;56.115;35.956287;-83.92674;804.98;NaN;;4.72;12.226105;98.5;15 / 19;190524;2022-10-23 14:09:51:200
11.6414;1.3107;-2.0267;8.597;-1.4708;-4.4833;4.5905;0.4188;-3.0375;-1.4507;-0.53;2.5177;8073.0;-27.06;-23.79;33.15;150.46;8.63;-117.54;2.0;991.01;57.15;35.956287;-83.92673;805.45;NaN;;4.43;12.226105;107.0;15 / 19;191024;2022-10-23 14:09:51:700
5.7948;-3.772;-5.0456;9.3535;1.6967;-2.4089;1.9364;-5.3337;-0.0144;3.0637;0.2366;-3.357;7395.0;-40.09;-12.66;25.8;147.5;8.72;-107.68;2.0;991.01;57.631;35.956287;-83.92673;805.45;NaN;;4.43;12.226105;107.0;15 / 19;191523;2022-10-23 14:09:52:199
10.8045;-1.27;-1.0965;7.9804;-3.4036;-4.5715;2.326;2.7539;2.7496;-2.0201;-0.5785;2.2242;7965.0;-34.39;-24.47;25.37;158.36;10.8;-109.3;2.0;991.0;57.007;35.956284;-83.92672;806.91;NaN;;4.79;12.226105;116.2;15 / 19;192024;2022-10-23 14:09:52:700
6.7478;-4.6229;-3.3745;9.6975;0.8843;-1.1608;3.0509;-6.6489;0.2896;3.8681;1.0739;-3.3019;7413.0;-42.9;-13.13;19.14;122.89;-5.17;-96.83;2.0;991.01;58.689;35.956284;-83.92672;806.91;NaN;;4.79;12.226105;116.2;15 / 19;192524;2022-10-23 14:09:53:200
11.0154;-0.8991;-2.8585;7.8414;-4.1985;-4.1299;1.3539;3.7226;0.5429;-0.9273;-0.1742;2.5401;6962.0;-32.81;-19.28;30.81;161.42;25.35;-117.77;2.0;991.02;56.696;35.95628;-83.926704;805.59;NaN;;4.82;12.226105;107.3;15 / 19;193024;2022-10-23 14:09:53:700
6.6066;-3.833;-2.8681;9.6025;0.6002;-1.8979;2.7134;-5.4595;0.4404;2.2245;-0.6606;-2.4583;6938.0;-37.65;-8.23;30.13;103.62;-3.51;-101.18;2.0;990.98;57.257;35.95628;-83.926704;805.59;NaN;;4.82;12.226105;107.3;15 / 19;193524;2022-10-23 14:09:54:200
12.7188;-0.1412;-2.4036;7.3066;-3.8628;-5.2785;2.0881;2.4236;0.5638;-2.1945;0.0416;3.6152;6581.0;-29.66;-19.58;34.88;144.36;7.14;-116.4;2.0;991.0;52.397;35.956276;-83.92669;808.01;NaN;;4.82;12.226105;110.4;15 / 19;194024;2022-10-23 14:09:54:700
5.0635;-4.2568;-4.4782;8.1095;3.2539;-4.4518;-1.9604;-7.5082;0.1382;1.8641;-0.4959;-2.4876;7017.0;-35.55;-14.34;29.91;113.78;-8.23;-108.15;2.0;990.98;53.453;35.956276;-83.92669;808.01;NaN;;4.82;12.226105;110.4;15 / 19;194524;2022-10-23 14:09:55:200
13.1614;-0.2453;-1.6519;7.2165;-4.0411;-5.269;4.0282;1.6224;2.3001;-2.0029;-0.3935;3.3006;6541.0;-30.75;-18.39;33.19;166.45;24.34;-126.13;2.0;991.0;54.747;35.956272;-83.926674;808.51;NaN;;4.54;12.226105;111.6;15 / 19;195023;2022-10-23 14:09:55:699
6.6317;-6.0188;-4.1764;7.7174;4.5382;-4.002;1.8456;-11.7097;0.2782;3.6745;-0.8768;-4.2814;6748.0;-40.46;-11.64;24.84;113.32;-5.43;-99.38;2.0;990.96;60.13;35.956272;-83.926674;808.51;NaN;;4.54;12.226105;111.6;15 / 19;195524;2022-10-23 14:09:56:200
14.0222;3.1663;-3.1699;7.9395;-3.8116;-4.3136;3.86;3.0315;-0.4879;-1.6187;0.0186;2.0381;6563.0;-25.33;-23.72;35.14;153.13;22.87;-118.52;2.0;991.0;55.664;35.95627;-83.92667;809.71;NaN;;4.9;12.226105;124.3;15 / 19;196024;2022-10-23 14:09:56:700
5.3207;-4.2724;-3.2919;8.651;3.5613;-2.9408;-1.0201;-8.2916;0.0047;2.5903;-0.5317;-3.0716;7013.0;-37.86;-14.59;28.44;80.61;-21.29;-108.77;2.0;990.96;57.254;35.95627;-83.92667;809.71;NaN;;4.9;12.226105;124.3;15 / 19;196524;2022-10-23 14:09:57:200
10.5796;-0.6906;-1.5359;8.241;-3.1573;-4.2764;2.833;2.5079;-1.6067;-0.8861;-0.9301;1.7977;6366.0;-31.63;-19.01;34.67;153.2;18.78;-117.43;2.0;991.0;55.525;35.956264;-83.92665;811.16;NaN;;4.75;12.226105;112.7;15 / 19;197023;2022-10-23 14:09:57:699
8.5361;-2.4168;-3.1448;9.7003;1.3986;-0.3456;-1.0934;-5.2524;-2.8694;0.9054;1.8715;-1.9896;6784.0;-39.24;-14.36;27.47;139.25;4.91;-105.83;2.0;990.98;55.557;35.956264;-83.92665;811.16;NaN;;4.75;12.226105;112.7;15 / 19;197524;2022-10-23 14:09:58:200
16.4629;0.146;1.7883;7.2848;-4.235;-5.0166;4.4415;0.5127;4.5448;-2.7603;-0.7494;3.0191;6418.0;-37.01;-25.76;21.84;165.83;14.68;-108.61;2.0;990.99;55.442;35.956257;-83.926636;810.9;NaN;;4.61;12.226105;122.9;15 / 19;198024;2022-10-23 14:09:58:700
6.9595;-4.4303;-3.2632;9.5011;1.8962;-1.5176;1.9203;-7.8842;-1.2661;2.9273;0.6183;-3.4961;6016.0;-41.44;-15.83;21.84;115.26;-11.15;-99.07;2.0;990.97;56.244;35.956257;-83.926636;810.9;NaN;;4.61;12.226105;122.9;15 / 19;198524;2022-10-23 14:09:59:200
12.9927;-1.191;-0.644;7.9442;-4.089;-4.0423;2.5724;2.8371;1.8593;-2.232;-0.292;3.5158;5931.0;-31.31;-26.17;27.49;166.04;24.64;-116.97;2.0;990.96;56.72;35.956253;-83.92661;809.73;NaN;;4.79;12.226105;113.0;15 / 19;199024;2022-10-23 14:09:59:700
6.7107;-3.9909;-3.1292;9.7032;0.2821;-1.3925;2.8227;-6.1304;-0.5758;1.5025;-0.1012;-2.1203;4113.0;-43.18;-13.11;21.15;128.52;-1.65;-98.17;2.0;990.95;57.052;35.956253;-83.92661;809.73;NaN;;4.79;12.226105;113.0;15 / 19;199523;2022-10-23 14:10:00:199
10.2682;-1.6639;-1.1707;8.3913;-3.5992;-3.5781;0.889;2.8182;0.3453;-1.6514;0.0596;2.0208;4825.0;-34.18;-24.28;26.59;153.47;10.48;-107.58;2.0;990.96;56.544;35.95625;-83.926605;810.15;NaN;;4.72;12.226105;120.7;14 / 19;200024;2022-10-23 14:10:00:700
6.2797;-3.3972;-1.3143;9.6232;1.4743;-1.1794;-1.2976;-5.2849;-0.914;0.6295;0.9731;-2.3172;2339.0;-41.21;-13.52;23.12;148.05;7.66;-103.97;2.0;990.96;54.18;35.95625;-83.926605;810.15;NaN;;4.72;12.226105;120.7;14 / 19;200523;2022-10-23 14:10:01:199
8.688;-0.7923;-1.1492;8.2976;-3.3759;-3.9904;4.0591;0.9952;-0.8928;-0.1581;-0.7513;2.2707;3600.0;-32.14;-21.26;28.89;160.15;20.14;-115.68;2.0;990.95;56.85;35.956245;-83.92659;811.53;NaN;;4.72;12.226105;113.7;14 / 19;201023;2022-10-23 14:10:01:699
11.7515;-5.1473;-2.2959;9.3962;-0.6822;-2.7232;5.1122;-1.8835;-0.2594;-0.1581;0.9936;-2.9757;1095.0;-35.62;-8.23;31.93;149.31;24.26;-112.92;2.0;990.95;55.989;35.956245;-83.92659;811.53;NaN;;4.72;12.226105;113.7;14 / 19;201523;2022-10-23 14:10:02:199
10.5209;-4.4088;-5.1269;9.2383;0.0912;-3.2887;0.9944;-4.9575;-1.7079;-0.3877;-0.4684;2.836;4586.0;-28.71;-18.28;33.62;128.34;-0.53;-109.6;2.0;990.92;58.939;35.956238;-83.926575;811.33;NaN;;5.47;12.226105;143.5;14 / 19;202023;2022-10-23 14:10:02:699
13.9122;-4.0974;-2.4191;8.5297;-3.0197;-3.781;3.5165;3.0803;1.2073;0.3604;0.7712;-1.5014;2625.0;-33.99;-9.62;32.51;144.76;17.93;-113.91;2.0;990.95;57.574;35.956238;-83.926575;811.33;NaN;;5.47;12.226105;143.5;14 / 19;202524;2022-10-23 14:10:03:200
11.2451;-4.7462;-3.5504;9.1914;0.6663;-3.3533;-4.4466;-6.2521;0.242;-1.475;0.4293;3.0014;3465.0;-30.47;-16.93;31.65;125.87;-3.9;-110.04;2.0;990.91;58.507;35.956226;-83.92657;807.41;NaN;;4.07;12.226105;137.3;14 / 19;203024;2022-10-23 14:10:03:700
14.5621;-5.1233;-2.3246;7.9075;-4.1195;-4.0831;6.8717;2.2184;2.4267;-1.4647;1.9544;-0.8089;1786.0;-31.14;-5.76;34.89;161.78;36.76;-125.42;2.0;990.95;56.257;35.956226;-83.92657;807.41;NaN;;4.07;12.226105;137.3;14 / 19;203524;2022-10-23 14:10:04:200
11.6318;-3.839;-3.7828;9.4352;-0.8473;-2.5355;-3.846;-2.5333;-0.69;-0.952;0.2419;2.728;1503.0;-30.11;-15.66;31.84;108.86;-12.3;-106.49;2.0;990.89;57.517;35.95622;-83.92656;804.69;NaN;;4.54;12.226105;133.0;14 / 19;204025;2022-10-23 14:10:04:701
13.3771;-4.3837;-1.2628;7.8879;-4.5218;-3.6748;5.7457;3.6557;0.8324;-0.6861;0.7384;-0.0017;2123.0;-28.76;-8.76;35.74;143.07;27.46;-114.98;2.0;990.92;59.46;35.95622;-83.92656;804.69;NaN;;4.54;12.226105;133.0;14 / 19;204524;2022-10-23 14:10:05:200
10.1354;-1.1587;-2.9578;9.2077;-0.7552;-3.289;-0.2341;-4.4111;-0.6351;-0.6518;-0.5274;2.2968;1514.0;-26.7;-18.02;32.81;133.35;4.42;-109.66;2.0;990.92;58.062;35.956215;-83.926544;804.06;NaN;;4.32;12.226105;120.5;14 / 19;205024;2022-10-23 14:10:05:700
13.3041;-2.715;-0.559;7.5855;-4.491;-4.2967;4.6178;3.9737;2.0593;0.6898;1.0873;-1.953;1524.0;-26.38;-12.73;35.18;149.39;27.26;-119.53;2.0;990.95;56.428;35.956215;-83.926544;804.06;NaN;;4.32;12.226105;120.5;14 / 19;205524;2022-10-23 14:10:06:200
11.0716;-2.9387;-2.983;9.351;0.2857;-2.9408;-0.6005;-6.064;-0.4099;-0.5463;0.105;1.6627;1760.0;-27.07;-15.56;33.0;109.2;-12.34;-108.46;2.0;990.89;57.297;35.956215;-83.92654;803.85;NaN;;4.0;12.226105;106.5;14 / 19;206024;2022-10-23 14:10:06:700
15.2456;-2.9423;-2.6838;8.8855;-3.0216;-2.844;4.825;2.7643;0.3892;-0.5251;1.0317;-1.6251;1758.0;-28.99;-5.59;34.29;148.45;31.69;-117.84;2.0;990.91;56.859;35.956215;-83.92654;803.85;NaN;;4.0;12.226105;106.5;14 / 19;206524;2022-10-23 14:10:07:200
8.5253;-1.2891;-4.6457;9.5641;1.1762;-1.8205;-3.1214;-5.3908;-0.458;-0.3416;-0.5217;1.2421;1714.0;-30.75;-18.83;25.8;126.53;-6.89;-100.78;2.0;990.9;58.127;35.95621;-83.92652;802.61;NaN;;3.67;12.226105;105.8;14 / 19;207024;2022-10-23 14:10:07:700
14.2436;-2.5786;-0.4549;8.0039;-4.5447;-3.3843;2.3821;2.2842;2.62;0.5476;-0.0651;0.0614;2248.0;-34.73;-12.54;23.74;167.41;25.65;-115.39;2.0;990.92;61.003;35.95621;-83.92652;802.61;NaN;;3.67;12.226105;105.8;14 / 19;207524;2022-10-23 14:10:08:200
8.7553;-4.1548;-3.5468;9.5456;1.6666;-1.5079;-2.8891;-5.8596;-0.5082;-0.1852;-1.46;1.6767;1452.0;-35.74;-13.72;21.84;113.99;-9.78;-98.98;2.0;990.91;58.966;35.956215;-83.92651;804.22;NaN;;3.46;12.226105;85.7;14 / 19;208024;2022-10-23 14:10:08:700
15.9506;-1.7106;-2.7365;7.5357;-4.6508;-4.2135;3.5902;5.8329;1.4671;-0.9384;0.4994;0.6782;2040.0;-31.91;-10.31;31.28;158.62;28.31;-119.21;2.0;990.9;58.68;35.956215;-83.92651;804.22;NaN;;3.46;12.226105;85.7;14 / 19;208523;2022-10-23 14:10:09:199
5.9363;-4.3107;-2.3031;8.7851;2.4472;-3.606;-1.3488;-6.3048;0.5077;-0.1542;0.949;0.3181;1364.0;-30.17;-15.56;31.86;106.91;-14.45;-112.32;2.0;990.9;62.097;35.956215;-83.9265;803.05;NaN;;3.56;12.226105;101.8;14 / 19;209023;2022-10-23 14:10:09:699
12.3882;-1.1408;-0.9625;6.4503;-6.3204;-3.8231;6.4297;3.8112;5.1073;-0.1526;-0.1548;1.5709;1872.0;-29.66;-15.45;33.75;152.07;31.08;-114.94;2.0;990.92;60.382;35.956215;-83.9265;803.05;NaN;;3.56;12.226105;101.8;14 / 19;209524;2022-10-23 14:10:10:200
6.1361;-5.5161;-3.0787;9.1973;1.26;-3.1612;-3.9349;-6.2336;0.1804;0.0783;-0.4431;-0.5504;921.0;-33.23;-10.41;32.46;108.4;-3.83;-105.71;2.0;990.92;63.029;35.95621;-83.92649;804.73;NaN;;3.82;12.226105;113.7;14 / 19;210024;2022-10-23 14:10:10:700
13.2861;-1.27;-1.1898;5.2415;-5.6844;-6.032;4.9167;1.6167;1.2817;-2.1643;-0.3607;3.0313;1508.0;-27.17;-12.67;37.82;173.09;35.43;-139.01;2.0;990.89;58.615;35.95621;-83.92649;804.73;NaN;;3.82;12.226105;113.7;14 / 19;210524;2022-10-23 14:10:11:200
5.0659;-4.8111;-4.3286;8.3166;3.7219;-3.6266;-1.2954;-10.2876;-0.1498;2.231;-0.812;-3.4273;777.0;-29.55;-13.56;34.8;82.08;-22.3;-113.56;2.0;990.89;59.57;35.956215;-83.926476;805.88;NaN;;4.9;12.226105;71.3;14 / 19;211023;2022-10-23 14:10:11:699
11.5828;0.2046;-0.3329;7.1729;-4.1719;-5.2264;5.2769;2.6873;2.7218;-0.9584;0.2218;1.2212;1678.0;-24.67;-20.7;34.58;159.55;25.18;-126.08;2.0;990.9;58.785;35.956215;-83.926476;805.88;NaN;;4.9;12.226105;71.3;14 / 19;211524;2022-10-23 14:10:12:200
6.239;-3.2381;-4.0077;9.0373;2.9252;-2.4373;-1.2626;-7.8624;0.2515;3.123;-0.1657;-2.8376;1156.0;-30.6;-13.95;32.81;114.97;-1.65;-98.85;2.0;990.87;60.786;35.95621;-83.92645;807.33;NaN;;4.75;12.226105;111.1;13 / 19;212024;2022-10-23 14:10:12:700
11.3157;1.1683;-1.5263;7.8391;-4.4403;-3.8733;3.7823;4.5725;1.6182;-1.3192;0.0538;1.4938;1948.0;-25.57;-13.37;36.92;135.28;20.82;-110.98;2.0;990.91;60.557;35.95621;-83.92645;807.33;NaN;;4.75;12.226105;111.1;13 / 19;212524;2022-10-23 14:10:13:200
5.9758;-3.3876;-3.2393;9.4104;2.3841;-1.3895;0.1695;-6.4926;-0.1553;2.675;0.3504;-2.9948;1246.0;-28.86;-13.01;33.28;98.93;-14.07;-98.4;2.0;990.89;61.349;35.95621;-83.926445;807.6;NaN;;4.0;12.226105;98.3;14 / 19;213024;2022-10-23 14:10:13:700
9.7726;-0.006;-1.5371;7.835;-3.4071;-4.8141;2.0433;3.1778;3.2967;0.1882;-1.4872;1.8357;2081.0;-24.15;-15.64;37.74;126.0;7.17;-109.36;2.0;990.87;57.704;35.95621;-83.926445;807.6;NaN;;4.0;12.226105;98.3;14 / 19;213524;2022-10-23 14:10:14:200
6.2761;-2.5977;-3.7624;9.3774;1.3657;-2.5237;2.7916;-4.7729;0.1458;1.3736;0.2224;-2.0266;694.0;-25.78;-14.92;36.32;109.75;-8.0;-105.06;2.0;990.86;60.376;35.956215;-83.92643;807.28;NaN;;4.43;12.226105;69.7;14 / 19;214024;2022-10-23 14:10:14:700
9.8901;0.073;-0.7696;8.6225;-2.1859;-4.1286;1.0582;2.1605;2.1642;-1.6584;-0.8255;1.9422;1809.0;-24.51;-22.07;34.33;146.26;12.88;-115.59;2.0;990.92;58.014;35.956215;-83.92643;807.28;NaN;;4.43;12.226105;69.7;14 / 19;214524;2022-10-23 14:10:15:200
7.7222;-3.536;-0.2827;9.7861;-0.19;-0.605;6.1724;-1.7908;-2.8341;3.9793;-0.0721;-2.7143;1253.0;-32.21;-21.17;27.19;130.92;1.11;-93.54;2.0;990.86;59.159;35.956215;-83.926414;807.34;NaN;;4.5;12.226105;92.2;14 / 19;215023;2022-10-23 14:10:15:699
10.8882;0.7229;-2.6958;8.3786;-3.2678;-3.9104;6.6393;0.1029;-0.3579;0.4789;-1.3627;3.0055;2006.0;-25.46;-27.04;30.11;138.67;-3.93;-106.37;2.0;990.89;59.133;35.956215;-83.926414;807.34;NaN;;4.5;12.226105;92.2;14 / 19;215524;2022-10-23 14:10:16:200
11.1194;-5.7506;-1.6424;9.6273;0.0641;-1.8656;2.2844;-6.1973;0.0389;1.7511;1.1469;-3.4336;1051.0;-32.23;-12.32;34.86;143.73;21.25;-113.05;2.0;990.88;59.211;35.956215;-83.9264;806.87;NaN;;4.46;12.226105;106.8;14 / 19;216023;2022-10-23 14:10:16:699
11.6737;-6.3012;-2.7915;8.8748;-2.3571;-3.4428;-3.2468;-4.5493;-4.6326;-2.2514;-0.7898;2.6433;1768.0;-26.12;-17.38;37.39;135.51;13.91;-111.2;2.0;990.88;57.968;35.956215;-83.9264;806.87;NaN;;4.46;12.226105;106.8;14 / 19;216524;2022-10-23 14:10:17:200
16.8688;-6.9464;-1.9992;9.4457;-1.7012;-2.0135;6.0977;-1.7968;0.4653;1.8025;1.7014;-3.9669;1233.0;-32.36;-9.98;34.35;121.84;9.99;-102.03;2.0;990.88;58.675;35.95621;-83.92639;804.42;NaN;;4.1;12.989429;107.3;14 / 19;217024;2022-10-23 14:10:17:700
7.6971;4.1357;-0.5734;8.093;5.5242;0.3976;-2.0438;-7.0224;-3.1516;-1.0494;1.1651;-0.5705;4022.0;-27.41;-22.03;31.63;96.63;-34.28;-87.19;2.0;990.85;57.114;35.95621;-83.92639;804.42;NaN;;4.1;12.989429;107.3;14 / 19;217523;2022-10-23 14:10:18:199
5.9471;7.9591;0.7911;4.9693;8.0084;2.7096;6.2805;2.7306;5.4028;2.1555;1.9371;-1.5788;4248.0;-24.81;-33.9;19.46;121.77;-39.2;-64.3;2.0;990.83;56.573;35.956207;-83.92638;801.96;NaN;;4.36;12.915348;96.9;15 / 19;218024;2022-10-23 14:10:18:700
3.5157;4.4602;11.2738;1.2184;4.722;8.5082;1.583;-0.0843;1.8733;0.2782;-0.0293;-0.3922;2874.0;-26.38;-31.16;-3.58;132.42;-29.92;-8.71;2.0;990.86;56.17;35.956207;-83.92638;801.96;NaN;;4.36;12.915348;96.9;15 / 19;218525;2022-10-23 14:10:19:201
0.8091;2.7066;14.598;1.3926;4.498;8.6023;-1.1107;2.0734;-0.0217;-0.8341;-0.1942;0.1871;3229.0;-28.22;-28.72;-16.99;122.73;-27.3;-9.2;2.0;990.87;58.2;35.956207;-83.92636;803.8;NaN;;4.07;12.530875;94.4;15 / 19;219024;2022-10-23 14:10:19:700
4.6804;3.2369;8.3913;0.1413;1.0578;9.7484;3.8086;4.0461;-0.8632;-2.3277;2.5921;-1.8733;3102.0;-32.23;-10.31;-23.44;91.38;-16.57;-17.64;2.0;990.85;59.138;35.956207;-83.92636;803.8;NaN;;4.07;12.530875;94.4;15 / 19;219523;2022-10-23 14:10:20:199
-2.9004;-2.5738;11.7251;-0.3389;0.489;9.7886;-0.9684;-0.0259;0.3622;0.2138;0.3081;0.2081;3410.0;-26.08;4.88;-33.21;76.34;-2.86;1.98;2.0;990.84;59.467;35.956207;-83.92635;803.78;NaN;;3.42;12.416977;111.6;15 / 19;220023;2022-10-23 14:10:20:699
1.8757;0.76;11.0728;1.2673;0.2247;9.7218;0.01;0.4453;-0.252;-0.035;-0.3854;-0.0128;4038.0;-27.21;8.76;-31.22;66.75;-1.31;-7.43;2.0;990.83;59.024;35.956207;-83.92635;803.78;NaN;;3.42;12.416977;111.6;15 / 19;220524;2022-10-23 14:10:21:200
1.3705;2.618;10.5544;0.3964;0.7124;9.7727;0.2474;-0.3462;-0.0335;0.2262;0.9448;0.9776;4214.0;-27.0;11.08;-30.6;62.66;-4.17;-2.32;2.0;990.83;57.685;35.956203;-83.92634;804.33;NaN;;4.03;12.484107;104.6;15 / 19;221023;2022-10-23 14:10:21:699
-0.9637;1.2855;10.6896;0.8653;0.8205;9.7339;-0.4966;0.9601;-0.5058;-0.0237;-0.7174;-0.0743;5627.0;-22.91;11.34;-32.64;57.77;-5.61;-0.81;2.0;990.82;56.808;35.956203;-83.92634;804.33;NaN;;4.03;12.484107;104.6;15 / 19;221524;2022-10-23 14:10:22:200
0.0179;1.0271;9.5931;0.4526;1.4866;9.6828;-0.0798;-0.4401;0.0618;0.239;-0.3941;0.5555;4074.0;-22.61;12.24;-32.57;57.1;-6.77;2.22;2.0;990.83;56.672;35.9562;-83.92632;804.89;NaN;;4.18;12.668917;101.6;15 / 19;222024;2022-10-23 14:10:22:700
2.5184;1.5885;9.8207;1.2982;1.4846;9.6063;-0.0053;0.2969;-1.7816;-0.1758;-0.2785;0.6176;4605.0;-20.74;12.94;-33.15;41.97;-8.71;-7.7;2.0;990.81;59.108;35.9562;-83.92632;804.89;NaN;;4.18;12.668917;101.6;15 / 19;222524;2022-10-23 14:10:23:200
2.9459;-0.449;8.924;2.6537;0.6041;9.4214;-0.0271;-0.1335;-0.6676;0.3118;-0.5812;0.8146;3246.0;-19.56;19.09;-30.41;27.81;-3.53;-15.73;2.0;990.81;57.982;35.956196;-83.926315;805.06;NaN;;4.43;12.860497;125.0;15 / 19;223023;2022-10-23 14:10:23:699
2.9064;1.1037;8.5409;2.479;0.8516;9.4499;-0.3017;-0.0821;-1.0417;-0.016;-0.3434;0.1691;2812.0;-17.85;20.18;-30.39;23.22;-4.98;-14.7;2.0;990.84;58.392;35.956196;-83.926315;805.06;NaN;;4.43;12.860497;125.0;15 / 19;223524;2022-10-23 14:10:24:200
2.8226;1.2078;7.5787;3.1887;1.0613;9.2128;-0.208;0.2728;-1.8493;0.3951;-0.2443;0.2352;2776.0;-18.09;20.87;-29.53;20.84;-3.42;-16.48;2.0;990.81;60.76;35.956192;-83.92631;805.02;NaN;;4.5;12.977726;113.5;14 / 19;224024;2022-10-23 14:10:24:700
4.2832;0.9888;7.9591;3.0412;1.3392;9.2265;1.0245;-0.2641;-2.0879;-0.1189;0.1672;0.2298;2162.0;-16.59;19.29;-31.26;14.98;-9.3;-18.11;2.0;990.83;62.335;35.956192;-83.92631;805.02;NaN;;4.5;12.977726;113.5;14 / 19;224523;2022-10-23 14:10:25:199
0.9039;2.3904;8.3399;0.2644;3.1786;9.2735;-0.0816;-1.7223;-0.3768;-0.0861;1.2189;-2.8469;2218.0;-15.06;16.89;-33.6;27.25;-18.91;-1.63;2.0;990.87;58.421;35.95619;-83.926285;804.9;NaN;;4.46;13.289665;119.9;14 / 19;225024;2022-10-23 14:10:25:700
-1.2102;3.2859;4.7847;-1.1191;3.9105;8.9234;3.2708;0.5514;1.1842;0.8718;0.4329;-2.0863;2365.0;-18.84;6.13;-35.59;44.2;-22.55;-0.25;2.0;990.84;58.106;35.95619;-83.926285;804.9;NaN;;4.46;13.289665;119.9;14 / 19;225523;2022-10-23 14:10:26:199
2.12;4.2461;7.0615;-0.2231;4.1314;8.8912;2.2369;0.1092;-0.369;-0.4689;0.2437;-1.1001;2811.0;-26.98;-11.44;-29.29;86.39;-23.1;-2.07;2.0;990.81;59.508;35.956184;-83.92627;801.94;NaN;;4.25;13.071559;110.1;14 / 19;226024;2022-10-23 14:10:26:700
0.1484;5.2442;8.1592;0.8356;4.1786;8.8324;-0.6067;-0.1037;2.6081;0.1686;-0.3328;0.1975;2753.0;-27.0;-23.62;-22.89;113.75;-25.22;-5.4;2.0;990.85;57.314;35.956184;-83.92627;801.94;NaN;;4.25;13.071559;110.1;14 / 19;226523;2022-10-23 14:10:27:199
2.9327;4.5404;10.2622;0.9306;3.7753;9.0029;1.2935;-1.281;4.6142;-0.4864;-0.3308;0.0406;2866.0;-29.53;-23.87;-20.18;115.59;-22.64;-5.9;2.0;990.85;59.103;35.956184;-83.92626;801.2;NaN;;3.85;12.762013;103.1;13 / 19;227024;2022-10-23 14:10:27:700
0.2429;2.8813;9.3335;0.4953;3.2411;9.2423;-1.9728;-1.2038;0.587;-0.1266;0.381;-0.1672;2729.0;-27.45;-22.22;-23.34;116.47;-19.18;-3.83;2.0;990.82;59.587;35.956184;-83.92626;801.2;NaN;;3.85;12.762013;103.1;13 / 19;227523;2022-10-23 14:10:28:199
1.5371;3.4905;8.7099;0.6577;4.0821;8.8924;2.0097;0.9261;1.3652;0.5431;-0.1034;0.2395;2853.0;-28.35;-20.74;-23.29;108.33;-24.6;-4.23;2.0;990.85;58.725;35.956184;-83.926254;798.8;NaN;;4.0;13.476156;91.2;13 / 19;228024;2022-10-23 14:10:28:700
-1.567;3.2596;9.082;0.5043;3.9111;8.9788;-0.3453;-0.9368;4.5977;-0.8669;-0.4558;0.1736;2665.0;-27.88;-20.85;-24.07;109.01;-23.59;0.14;2.0;990.83;59.554;35.956184;-83.926254;798.8;NaN;;4.0;13.476156;91.2;13 / 19;228524;2022-10-23 14:10:29:200
2.5041;6.0356;9.7271;0.5356;5.269;8.2535;-0.06;0.6886;0.1179;-1.0058;-0.4574;-0.451;2502.0;-28.33;-22.41;-22.59;101.22;-32.5;-3.71;2.0;990.82;59.053;35.956192;-83.92624;798.28;NaN;;3.92;13.790834;89.2;13 / 19;229023;2022-10-23 14:10:29:699
-0.9147;2.479;10.6717;0.4599;4.8271;8.524;-1.2594;1.1807;0.0797;0.2252;0.7279;-0.3159;2624.0;-27.96;-24.51;-20.55;111.04;-30.18;-2.95;2.0;990.84;60.006;35.956192;-83.92624;798.28;NaN;;3.92;13.790834;89.2;13 / 19;229524;2022-10-23 14:10:30:200
1.4617;2.1057;13.832;0.6482;4.6769;8.5951;-0.1868;0.6019;-1.6448;-0.9303;-0.1385;-0.5666;2652.0;-28.2;-23.61;-20.36;111.83;-28.48;-4.31;2.0;990.81;59.736;35.956192;-83.92622;798.5;NaN;;4.21;14.153907;94.6;13 / 19;230023;2022-10-23 14:10:30:699
-0.7086;4.9164;7.9352;0.3895;4.2379;8.8351;0.2555;0.3524;-1.0186;0.5743;-0.2292;0.34;2755.0;-28.09;-19.99;-23.06;105.69;-25.6;-2.52;2.0;990.82;60.099;35.956192;-83.92622;798.5;NaN;;4.21;14.153907;94.6;13 / 19;230523;2022-10-23 14:10:31:199
2.7185;4.2485;10.6657;1.7455;3.8996;8.8271;-0.3142;0.4578;-0.1202;-0.1055;-0.3439;0.0343;2839.0;-30.6;-17.78;-21.43;102.69;-23.43;-11.19;2.0;990.82;59.708;35.956192;-83.92621;799.84;NaN;;4.0;14.081526;103.5;14 / 19;231024;2022-10-23 14:10:31:700
0.0694;2.8466;8.9647;0.1772;2.7552;9.41;0.3081;0.7078;-1.3512;-0.028;0.6522;-0.0526;3117.0;-29.96;-16.29;-22.28;105.6;-17.66;-4.9;2.0;990.81;61.07;35.956192;-83.92621;799.84;NaN;;4.0;14.081526;103.5;14 / 19;231524;2022-10-23 14:10:32:200
1.0223;3.5049;9.4986;0.3741;3.6421;9.0975;0.1163;-0.2236;-2.1774;-0.2504;0.2964;0.3725;3831.0;-25.78;-14.76;-26.29;101.29;-19.85;-1.45;2.0;990.83;61.793;35.956192;-83.9262;802.71;NaN;;3.89;14.011551;117.1;14 / 19;232027;2022-10-23 14:10:32:703
0.0371;3.481;8.7446;0.0131;2.8865;9.3722;1.3677;-0.4893;0.9403;0.3343;-0.3302;-0.2078;3062.0;-26.34;-13.67;-26.96;101.8;-17.12;-0.08;2.0;990.84;60.686;35.956192;-83.9262;802.71;NaN;;3.89;14.011551;117.1;14 / 19;232523;2022-10-23 14:10:33:199
-0.1998;3.4439;7.3283;0.1187;3.3106;9.2302;-0.6867;-0.8773;-0.5426;0.2024;0.091;0.3303;3377.0;-25.5;-14.14;-27.38;98.76;-19.73;-0.74;2.0;990.79;60.227;35.956192;-83.926186;804.77;NaN;;3.96;14.019311;127.9;14 / 19;233024;2022-10-23 14:10:33:700
-0.055;2.8717;7.6433;0.4175;3.5307;9.1395;0.3507;-0.7089;0.4204;-0.1427;0.1338;-0.4537;3176.0;-26.81;-13.09;-26.83;94.66;-20.28;-5.51;2.0;990.8;61.186;35.956192;-83.926186;804.77;NaN;;3.96;14.019311;127.9;14 / 19;233523;2022-10-23 14:10:34:199
-0.1986;2.8525;10.3304;-0.2915;3.2541;9.2464;-1.1194;-1.0299;2.469;-0.0515;0.3269;0.2637;2932.0;-25.2;-15.51;-26.92;103.91;-19.38;1.81;2.0;990.76;61.235;35.95619;-83.92618;805.63;NaN;;3.78;13.691808;120.7;14 / 19;234024;2022-10-23 14:10:34:700
2.0267;4.3382;6.1983;0.1976;3.738;9.0641;-0.4234;-0.6516;-0.9611;0.4972;-0.2561;-0.5049;4122.0;-23.55;-15.47;-29.04;96.39;-22.41;-1.25;2.0;990.81;61.622;35.95619;-83.92618;805.63;NaN;;3.78;13.691808;120.7;14 / 19;234524;2022-10-23 14:10:35:200
-0.498;3.7397;8.4452;-0.3356;4.1105;8.8973;-0.7099;0.8716;-0.2947;0.657;0.4371;0.2765;3898.0;-24.58;-20.36;-25.65;106.44;-24.78;2.16;2.0;990.74;62.599;35.95619;-83.92616;805.87;NaN;;3.82;13.375201;93.0;14 / 19;235024;2022-10-23 14:10:35:700
0.9553;3.9;8.0142;0.2909;4.476;8.7207;1.0754;-0.717;1.3087;0.3451;-0.251;-0.3065;3095.0;-24.69;-20.21;-25.97;100.27;-29.27;-1.62;2.0;990.78;62.99;35.95619;-83.92616;805.87;NaN;;3.82;13.375201;93.0;14 / 19;235523;2022-10-23 14:10:36:199
-0.6272;2.144;15.1223;-0.1758;4.5352;8.6932;0.8196;0.5158;0.9671;-0.6711;-0.3375;0.0271;2905.0;-24.92;-21.26;-25.2;105.96;-27.55;1.16;2.0;990.78;60.312;35.956192;-83.92615;805.4;NaN;;4.0;12.682605;95.4;14 / 19;236024;2022-10-23 14:10:36:700
1.1695;7.0747;9.131;0.1692;4.0738;8.9189;0.2024;1.6019;0.0558;-1.2238;-0.5409;-0.3708;2954.0;-24.88;-20.14;-26.81;105.48;-24.55;-1.09;2.0;990.78;59.996;35.956192;-83.92615;805.4;NaN;;4.0;12.682605;95.4;14 / 19;236523;2022-10-23 14:10:37:199
-1.0702;1.4557;15.3509;0.0678;3.9862;8.9597;-0.419;2.3256;-0.0716;0.2536;-0.0037;0.162;3475.0;-24.94;-20.87;-26.87;108.16;-23.98;-0.43;2.0;990.76;61.034;35.95619;-83.926125;805.8;NaN;;4.03;12.651161;118.3;14 / 19;237024;2022-10-23 14:10:37:700
1.8637;1.9944;14.6255;0.3298;4.2549;8.8294;-0.4525;0.1589;-1.3024;-0.5833;-0.2113;-0.1788;3858.0;-24.73;-19.33;-28.09;100.13;-26.46;-0.6;2.0;990.76;60.532;35.95619;-83.926125;805.8;NaN;;4.03;12.651161;118.3;14 / 19;237524;2022-10-23 14:10:38:200
-1.0092;2.9315;9.5943;-0.186;4.2989;8.8122;0.0993;0.7184;0.5006;-0.8828;-0.6211;0.114;3886.0;-24.19;-19.89;-28.26;105.37;-24.55;0.91;2.0;990.77;62.365;35.956184;-83.92611;807.68;NaN;;4.21;12.749829;98.0;14 / 19;238023;2022-10-23 14:10:38:699
1.1492;7.1548;9.4771;0.1051;4.4867;8.7194;0.057;0.3135;-2.0465;-0.0284;-0.1452;0.1094;3240.0;-23.66;-21.51;-28.24;105.63;-27.23;-0.69;2.0;990.74;63.657;35.956184;-83.92611;807.68;NaN;;4.21;12.749829;98.0;14 / 19;238524;2022-10-23 14:10:39:200
0.1496;5.1413;8.8391;0.1189;4.3276;8.7993;-0.1203;0.3455;-0.948;0.4761;0.0417;0.0828;3415.0;-25.84;-21.84;-25.93;107.56;-26.19;-0.77;2.0;990.76;61.966;35.95619;-83.926094;808.97;NaN;;4.14;12.226105;97.3;14 / 19;239024;2022-10-23 14:10:39:700
0.9027;4.963;9.0281;0.5491;4.2785;8.807;0.188;0.3568;-0.6345;0.091;0.0806;0.2878;3747.0;-26.31;-20.14;-26.44;105.11;-24.92;-2.61;2.0;990.74;64.293;35.95619;-83.926094;808.97;NaN;;4.14;12.226105;97.3;14 / 19;239524;2022-10-23 14:10:40:200
-0.0562;4.5571;9.4843;-0.1669;3.994;8.9549;0.0671;0.0226;-1.7238;-0.1887;0.3883;-0.1791;3785.0;-26.53;-18.53;-27.19;103.42;-24.03;1.07;2.0;990.76;63.545;35.95619;-83.92609;808.68;NaN;;4.07;12.226105;89.8;14 / 19;240024;2022-10-23 14:10:40:700
-0.3102;4.8159;7.5437;-0.4919;4.3131;8.7935;0.3035;0.0237;-1.3946;0.4314;-0.2323;0.1358;3721.0;-22.29;-18.6;-29.32;105.45;-23.29;4.15;2.0;990.77;62.861;35.95619;-83.92609;808.68;NaN;;4.07;12.226105;89.8;14 / 19;240523;2022-10-23 14:10:41:199
-1.2772;4.1285;7.5317;-0.4516;3.939;8.9694;1.77;0.023;-1.0177;0.0646;0.1578;-0.3242;3682.0;-23.53;-20.27;-27.64;106.61;-23.68;2.88;2.0;990.72;62.358;35.95619;-83.92607;811.04;NaN;;4.03;12.226105;92.7;15 / 19;241024;2022-10-23 14:10:41:700
-0.2982;4.3202;7.1501;-0.3986;4.1073;8.8962;0.2511;-0.5131;-1.0453;0.2107;-0.0612;0.2781;4047.0;-21.41;-21.26;-28.26;110.03;-24.12;4.07;2.0;990.75;62.646;35.95619;-83.92607;811.04;NaN;;4.03;12.226105;92.7;15 / 19;241524;2022-10-23 14:10:42:200
-0.4262;4.2317;7.2494;-0.0427;4.1478;8.8862;0.7207;-0.1655;-1.1816;-0.3552;0.3751;-0.325;4457.0;-24.06;-20.33;-27.51;104.69;-25.02;0.28;2.0;990.76;62.609;35.95619;-83.926056;811.22;NaN;;4.03;12.226105;88.2;15 / 19;242025;2022-10-23 14:10:42:701
-0.6284;3.481;8.6833;-0.5476;4.3585;8.7678;-1.1406;-0.361;-2.2892;0.3854;-0.0518;0.3761;4555.0;-22.37;-21.58;-27.9;108.43;-26.39;3.57;2.0;990.74;64.488;35.95619;-83.926056;811.22;NaN;;4.03;12.226105;88.2;15 / 19;242524;2022-10-23 14:10:43:200
-1.4569;4.0017;8.5792;0.0171;4.4164;8.7559;-1.2589;-0.2074;-1.2687;0.1858;0.3684;-0.4479;4594.0;-24.49;-20.29;-27.19;103.34;-26.77;-0.11;2.0;990.76;62.782;35.956184;-83.92605;813.03;NaN;;3.89;12.226105;109.3;15 / 19;243024;2022-10-23 14:10:43:700
-0.862;3.7026;9.3168;-0.3424;4.4141;8.7504;-0.7866;-1.2325;3.842;-0.8113;0.116;0.3336;4064.0;-23.74;-21.07;-26.92;103.8;-28.09;0.97;2.0;990.78;60.456;35.956184;-83.92605;813.03;NaN;;3.89;12.226105;109.3;15 / 19;243524;2022-10-23 14:10:44:200
0.6679;4.0448;7.6887;0.117;3.9943;8.9556;1.5553;-0.281;2.1171;-0.1489;0.1214;-0.441;4459.0;-24.17;-18.08;-28.57;99.93;-24.59;-1.19;2.0;990.74;60.996;35.956184;-83.92603;813.78;NaN;;4.28;12.226105;84.6;15 / 19;244023;2022-10-23 14:10:44:699
-0.1831;3.7768;7.5835;-0.4907;4.354;8.7734;-0.5905;0.028;0.093;0.5519;0.0502;0.4347;4360.0;-23.12;-19.72;-27.94;103.92;-26.36;3.2;2.0;990.75;61.264;35.956184;-83.92603;813.78;NaN;;4.28;12.226105;84.6;15 / 19;244523;2022-10-23 14:10:45:199
