sep=;
ACCELEROMETER X (m/s²);ACCELEROMETER Y (m/s²);ACCELEROMETER Z (m/s²);GRAVITY X (m/s²);GRAVITY Y (m/s²);GRAVITY Z (m/s²);LINEAR ACCELERATION X (m/s²);LINEAR ACCELERATION Y (m/s²);LINEAR ACCELERATION Z (m/s²);GYROSCOPE X (rad/s);GYROSCOPE Y (rad/s);GYROSCOPE Z (rad/s);LIGHT (lux);MAGNETIC FIELD X (μT);MAGNETIC FIELD Y (μT);MAGNETIC FIELD Z (μT);ORIENTATION Z (azimuth °);ORIENTATION X (pitch °);ORIENTATION Y (roll °);PROXIMITY (i);ATMOSPHERIC PRESSURE (hPa);SOUND LEVEL (dB);LOCATION Latitude : ;LOCATION Longitude : ;LOCATION Altitude ( m);LOCATION Altitude-google ( m);LOCATION Altitude-atmospheric pressure ( m);LOCATION Speed ( Kmh);LOCATION Accuracy ( m);LOCATION ORIENTATION (°);Satellites in range;Time since start in ms ;YYYY-MO-DD HH-MI-SS_SSS
-1.4273;-2.2283;9.8438;-2.1789;-0.9811;9.5111;-1.0222;1.683;0.0454;-2.0981;-1.3504;0.0607;7.0;-7.14;-0.83;-45.58;107.3;5.74;12.9;5.0;979.14;41.78;35.951702;-83.93394;800.43;NaN;;2.59;19.366104;50.3;7 / 18;24;2022-10-17 20:02:40:084
-2.2388;0.1525;8.4102;-2.0385;-0.1241;9.5916;-0.2427;0.3434;-1.3558;0.2082;-0.3546;-0.2626;11.0;-5.72;6.88;-45.75;67.33;0.73;12.0;5.0;979.12;43.221;35.951702;-83.93394;800.43;NaN;;2.59;19.366104;50.3;7 / 18;524;2022-10-17 20:02:40:584
-1.3705;0.9326;8.4221;-1.1614;0.2869;9.7334;-0.3245;-0.4134;-0.5351;-0.2459;0.2461;-0.0521;6.0;-10.8;2.94;-45.75;75.29;-1.68;6.8;5.0;979.14;51.167;35.951702;-83.93393;805.55;NaN;;2.66;17.549631;51.1;7 / 18;1024;2022-10-17 20:02:41:084
-1.0998;0.0817;7.8607;-2.4671;1.3279;9.3979;1.4563;-1.2448;-1.3281;0.6612;0.5486;0.301;5.0;-11.81;0.86;-46.12;81.7;-2.7;11.17;5.0;979.16;53.599;35.951702;-83.93393;805.55;NaN;;2.66;17.549631;51.1;7 / 18;1524;2022-10-17 20:02:41:584
-3.0763;2.3079;9.702;-3.6021;0.6445;9.0983;-0.2949;-0.0697;-0.8977;0.2956;0.0442;-0.3604;11.0;-6.07;-2.06;-47.66;88.92;-3.24;20.52;5.0;979.15;49.906;35.95171;-83.93392;809.73;NaN;;3.38;16.011078;55.8;7 / 18;2024;2022-10-17 20:02:42:084
-4.2712;-1.3059;11.6605;-3.3564;1.3988;9.1076;-1.6874;0.2156;2.2869;-0.1392;-0.7684;-0.2249;16.0;-3.07;-6.21;-47.4;89.39;-8.2;20.23;5.0;979.15;46.96;35.951714;-83.93391;809.83;NaN;;3.28;15.041524;58.3;7 / 18;2524;2022-10-17 20:02:42:584
-2.1607;3.0945;9.5106;-2.0182;1.9803;9.3902;-0.8399;1.1603;0.9478;-0.0037;0.2862;0.3471;9.0;-7.69;-11.23;-45.39;96.81;-11.96;9.72;5.0;979.18;54.96;35.951714;-83.93391;809.83;NaN;;3.28;15.041524;58.3;7 / 18;3024;2022-10-17 20:02:43:084
-5.316;-0.8788;12.5725;-2.5218;1.4246;9.3692;-0.236;1.6909;-0.2952;0.2178;-0.5761;0.9232;9.0;-8.96;-7.73;-45.66;94.99;-8.35;15.06;5.0;979.12;43.093;35.951714;-83.93391;810.78;NaN;;3.1;14.535584;57.7;7 / 18;3524;2022-10-17 20:02:43:584
-0.0873;0.14;9.3467;-0.5887;2.3039;9.514;-0.0629;-1.067;0.3206;0.426;-0.8575;-0.0292;7.0;-9.99;-5.29;-45.68;76.42;-12.43;10.75;5.0;979.14;46.237;35.951717;-83.93389;810.78;NaN;;3.1;14.535584;57.7;7 / 18;4024;2022-10-17 20:02:44:084
-3.6559;0.5782;10.2168;-3.0118;1.6743;9.1813;-1.2694;1.5076;-1.5656;-0.8977;-0.1648;0.6292;6.0;-9.56;-9.81;-44.46;97.96;-9.83;18.16;5.0;979.13;40.984;35.95173;-83.93388;807.55;NaN;;3.06;14.01591;41.5;8 / 18;4524;2022-10-17 20:02:44:584
-1.305;-1.7049;8.732;-3.0421;-0.5552;9.3063;2.0375;1.156;-1.6468;-0.7283;0.7526;0.4492;8.0;-9.15;-1.86;-45.13;94.19;-0.85;12.9;5.0;979.1;46.313;35.95173;-83.93388;807.55;NaN;;3.06;14.01591;41.5;8 / 18;5024;2022-10-17 20:02:45:084
-3.7493;-1.3825;8.6874;-2.7561;-1.8673;9.2243;-1.0357;-0.0556;-0.0274;-0.2792;-0.2887;0.1164;5.0;-4.91;8.61;-44.12;84.65;10.22;16.89;5.0;979.13;43.741;35.951736;-83.93387;808.36;NaN;;3.46;13.617451;35.1;8 / 19;5523;2022-10-17 20:02:45:583
-2.6635;2.4497;7.2891;-3.8011;1.5298;8.9096;1.1497;0.8666;-2.6304;0.8802;-0.1988;0.1393;5.0;2.08;9.99;-44.02;43.4;-8.97;23.1;5.0;979.1;47.576;35.951736;-83.93387;808.36;NaN;;3.46;13.617451;35.1;8 / 19;6024;2022-10-17 20:02:46:084
-0.9443;2.6581;9.2608;-0.2902;2.5093;9.4757;-0.8576;-0.2418;-0.2155;0.0924;-0.4215;-0.4287;4.0;-10.37;-6.21;-44.27;64.64;-14.83;1.75;5.0;979.1;46.571;35.951744;-83.93386;806.54;NaN;;3.06;14.25483;36.0;8 / 19;6524;2022-10-17 20:02:46:584
0.315;2.1341;9.7899;-0.3115;1.9522;9.6053;-1.0395;0.013;-0.1309;0.067;0.451;0.0354;0.0;-15.09;-9.54;-42.64;94.68;-11.48;1.86;5.0;979.12;49.855;35.951744;-83.93386;806.54;NaN;;3.06;14.25483;36.0;8 / 19;7024;2022-10-17 20:02:47:084
-1.2185;3.2871;6.7546;-1.1447;2.8898;9.301;2.4868;-1.3011;1.9442;0.9832;0.7061;-0.876;0.0;-14.81;-4.93;-43.24;74.92;-12.54;1.58;5.0;979.11;46.184;35.951748;-83.93385;808.02;NaN;;3.38;13.417839;41.3;8 / 19;7524;2022-10-17 20:02:47:584
-0.9209;0.9093;11.1706;-0.3879;2.5302;9.4667;-0.4472;-1.5668;1.0354;0.1994;-0.2818;0.2149;1.0;-12.66;-6.26;-43.33;75.46;-14.11;5.07;5.0;979.14;56.359;35.951748;-83.93385;808.02;NaN;;3.38;13.417839;41.3;8 / 19;8024;2022-10-17 20:02:48:084
-0.6517;2.607;11.164;-0.5869;3.3829;9.186;0.1345;-0.1569;0.4523;0.6293;0.4607;0.1465;1.0;-15.3;-8.12;-42.68;68.54;-20.18;3.66;5.0;979.11;51.213;35.951756;-83.933846;809.03;NaN;;3.31;12.733146;50.8;8 / 19;8524;2022-10-17 20:02:48:584
-2.2561;-2.2845;11.0677;-2.1551;-1.4843;9.4511;-0.2135;-0.894;1.2744;0.2913;0.3899;0.4629;0.0;-14.08;-5.64;-43.54;125.7;11.82;8.07;5.0;979.1;48.031;35.951756;-83.933846;809.03;NaN;;3.31;12.733146;50.8;8 / 19;9025;2022-10-17 20:02:49:085
-1.9756;2.5636;9.6718;-1.7243;2.1437;9.4128;0.3978;0.3456;-1.048;0.2897;-0.4694;0.2248;0.0;-9.11;3.19;-45.54;53.98;-12.63;10.38;5.0;979.09;46.085;35.95176;-83.93383;811.85;NaN;;3.28;12.226105;49.7;14 / 19;9524;2022-10-17 20:02:49:584
-1.1192;2.7257;10.1737;-0.7824;2.1852;9.528;0.1025;0.6611;-0.404;0.128;-0.1029;-0.0905;3.0;-11.01;-4.63;-45.92;73.96;-11.92;5.25;5.0;979.08;46.703;35.95176;-83.93383;811.85;NaN;;3.28;12.226105;49.7;14 / 19;10024;2022-10-17 20:02:50:084
-1.6484;2.8095;8.7912;-1.2354;2.7412;9.3344;0.4874;0.425;-0.4437;-0.0356;0.0742;0.0619;3.0;-10.27;-6.96;-45.0;71.21;-16.23;7.54;5.0;979.09;55.649;35.951767;-83.93382;814.93;NaN;;3.85;12.226105;52.8;14 / 19;10524;2022-10-17 20:02:50:584
-2.2564;2.2134;7.9065;-2.1822;1.7563;9.3981;-0.3032;0.2945;-1.1194;2.0E-4;-0.0792;-0.1012;4.0;-7.31;-7.29;-45.49;88.79;-9.9;13.19;5.0;979.12;46.607;35.951767;-83.93382;814.93;NaN;;3.85;12.226105;52.8;14 / 19;11024;2022-10-17 20:02:51:084
-1.5933;0.4466;8.6533;-1.9707;1.3024;9.5179;1.1047;-0.9697;0.3101;0.1762;0.4932;0.8156;5.0;-7.24;-5.36;-45.43;94.45;-5.17;8.72;5.0;979.12;50.456;35.95177;-83.93381;815.44;NaN;;3.56;12.226105;48.4;13 / 19;11524;2022-10-17 20:02:51:584
-0.195;1.075;10.485;-1.3297;-0.3111;9.7111;0.5397;0.1611;1.7212;-0.7491;0.3751;0.2097;4.0;-6.6;2.46;-45.15;87.3;1.82;7.8;5.0;979.13;50.674;35.95177;-83.93381;815.44;NaN;;3.56;12.226105;48.4;13 / 19;12024;2022-10-17 20:02:52:084
-1.6675;1.9403;9.7355;-1.7577;1.9069;9.4575;-0.7719;-0.5838;1.2949;-0.1322;-0.0889;0.4386;3.0;-6.02;-2.1;-45.54;65.17;-11.21;10.53;5.0;979.1;45.577;35.95177;-83.93381;815.44;NaN;;3.56;12.226105;48.4;13 / 19;12523;2022-10-17 20:02:52:583
0.1412;1.5455;9.501;-0.8366;2.3042;9.4953;-0.6227;-0.2909;0.4868;0.0516;-0.5493;-0.2878;4.0;-5.81;-3.19;-45.56;52.35;-13.59;5.04;5.0;979.13;41.98;35.951775;-83.9338;813.46;NaN;;3.17;12.226105;42.7;13 / 19;13024;2022-10-17 20:02:53:084
-1.8721;1.2419;9.7762;-1.7958;1.6325;9.5016;0.8852;1.0188;0.1969;-0.0703;1.0266;0.4984;1.0;-13.29;-3.47;-44.4;72.55;-10.07;2.31;5.0;979.13;44.55;35.951782;-83.9338;809.13;NaN;;3.2;12.226105;28.0;13 / 19;13523;2022-10-17 20:02:53:583
0.4567;1.6648;9.81;-1.8285;1.2058;9.5589;2.0892;0.3961;0.3136;0.2293;-0.0858;-2.0829;4.0;-9.3;0.0;-46.22;71.31;-7.45;9.89;5.0;979.17;51.314;35.951782;-83.9338;809.13;NaN;;3.2;12.226105;28.0;13 / 19;14024;2022-10-17 20:02:54:084
-3.3194;2.744;8.747;-2.0078;3.1606;9.0636;-0.8394;-0.3909;-1.8443;0.6498;-0.9659;-1.0257;4.0;-9.84;-10.97;-45.26;81.11;-18.8;12.49;5.0;979.14;49.624;35.951794;-83.93379;808.32;NaN;;3.42;12.226105;36.8;13 / 19;14524;2022-10-17 20:02:54:584
-0.2148;6.8952;4.1937;-0.0367;6.6386;7.2179;-0.1968;0.4041;-2.8031;-0.2539;0.8328;0.5697;2.0;-12.99;-24.47;-38.83;48.52;-45.02;-1.15;5.0;979.09;51.516;35.951794;-83.93379;808.32;NaN;;3.42;12.226105;36.8;13 / 19;15024;2022-10-17 20:02:55:084
-0.6084;3.4854;7.7282;0.4949;3.9753;8.9511;0.5978;1.1827;-1.7358;-2.0414;1.2602;-0.0192;0.0;-20.79;-21.58;-37.26;103.85;-23.91;-3.16;5.0;979.11;48.865;35.951797;-83.93378;807.67;NaN;;3.35;12.226105;56.2;12 / 19;15524;2022-10-17 20:02:55:584
-2.4081;0.4762;9.3383;-2.1012;1.3255;9.4867;-0.7363;-0.9986;-0.3796;-0.2149;0.4755;0.521;0.0;-10.74;-3.66;-45.56;85.07;-7.77;12.49;5.0;979.09;55.721;35.951797;-83.93378;807.67;NaN;;3.35;12.226105;56.2;12 / 19;16024;2022-10-17 20:02:56:084
1.7707;3.2895;6.9601;0.5756;2.768;9.3903;-0.5099;-0.5211;-1.8527;-0.1466;-2.0357;-0.3372;0.0;-8.51;0.62;-46.27;23.67;-16.39;-3.51;5.0;979.15;47.546;35.9518;-83.93377;809.08;NaN;;3.24;12.226105;57.2;13 / 19;16524;2022-10-17 20:02:56:584
5.3423;2.8397;5.4416;5.6061;3.7851;7.1003;0.367;-1.3408;-1.6792;0.7962;-0.3971;-0.8176;3.0;-30.41;-8.59;-35.1;44.08;-17.54;-34.3;5.0;979.13;45.972;35.9518;-83.93377;809.08;NaN;;3.24;12.226105;57.2;13 / 19;17023;2022-10-17 20:02:57:083
8.4263;0.102;2.6653;9.141;-1.0804;3.383;-0.6046;-3.4784;-1.5603;-0.3698;-2.423;2.168;5.0;-36.71;-25.88;-17.06;132.89;-25.54;-55.99;5.0;979.12;47.047;35.9518;-83.93377;809.08;NaN;;3.24;12.226105;57.2;13 / 19;17523;2022-10-17 20:02:57:583
7.2529;-6.0987;3.5575;8.1517;-3.1907;4.4204;0.0375;-3.0114;-0.8958;1.3257;-1.498;-1.1223;0.0;-30.38;21.23;-6.79;72.33;30.23;-53.25;0.0;979.16;43.083;35.9518;-83.93376;809.88;NaN;;3.74;12.226105;51.4;13 / 19;18023;2022-10-17 20:02:58:083
12.3512;-8.6551;3.8856;8.9897;-2.9622;2.5655;6.4975;2.3327;-0.5918;-0.8829;-1.356;-0.0464;1.0;-32.19;25.65;-10.41;11.94;13.59;-66.33;0.0;979.17;49.107;35.95181;-83.933754;810.04;NaN;;3.38;12.226105;42.0;13 / 19;18524;2022-10-17 20:02:58:584
5.5364;-4.7782;-2.98;9.674;-1.3378;-0.8911;-4.5321;-3.9744;-0.5413;-1.7243;-0.2197;-1.8879;2.0;-22.72;30.04;-2.62;353.2;18.07;-88.88;2.0;979.15;47.783;35.95181;-83.933754;810.04;NaN;;3.38;12.226105;42.0;13 / 19;19023;2022-10-17 20:02:59:083
13.6316;-9.0691;-6.673;5.4812;-8.1131;-0.5511;7.9424;-2.9976;-4.72;-0.073;4.038;-2.1251;2.0;-13.13;24.02;22.35;131.48;53.65;-134.83;2.0;979.14;46.504;35.951813;-83.93375;808.81;NaN;;3.49;12.226105;55.4;13 / 19;19524;2022-10-17 20:02:59:584
10.209;0.7636;-1.7468;9.78;0.4113;-0.5947;1.0615;0.5585;-1.3882;1.0649;-0.1248;-1.4535;1.0;-30.47;18.71;12.23;26.62;-2.4;-93.48;0.0;979.18;43.116;35.951813;-83.93375;808.81;NaN;;3.49;12.226105;55.4;13 / 19;20024;2022-10-17 20:03:00:084
8.5765;-7.2511;1.2224;6.4237;-7.2601;1.4821;9.0221;5.5474;-1.5663;-0.3892;-0.7534;2.3534;0.0;-31.24;16.5;6.88;125.31;47.76;-77.01;0.0;979.23;42.35;35.951817;-83.93374;808.61;NaN;;3.38;12.226105;55.3;13 / 19;20524;2022-10-17 20:03:00:584
10.4294;-8.1547;-2.2376;6.0613;-7.6209;-1.1629;1.4535;3.2224;-3.765;-0.0607;-0.3213;1.0323;0.0;-13.56;31.52;9.06;24.12;42.49;-102.14;0.0;979.11;39.785;35.951817;-83.93374;808.61;NaN;;3.38;12.226105;55.3;13 / 19;21023;2022-10-17 20:03:01:083
5.4263;-12.9643;2.4987;3.1229;-9.1255;1.7728;-1.6911;3.8007;-1.3103;0.6735;0.4118;-0.5447;0.0;-4.73;35.76;0.84;19.18;68.52;-60.42;0.0;979.15;44.146;35.951817;-83.93372;809.59;NaN;;3.71;12.226105;69.6;13 / 19;21525;2022-10-17 20:03:01:585
-0.5441;-6.757;-0.623;0.7351;-9.6942;-1.2854;-2.7572;4.0445;1.71;1.3856;-0.3588;0.5207;0.0;6.17;34.26;6.06;70.31;81.32;-150.23;0.0;979.21;46.057;35.951817;-83.93372;809.59;NaN;;3.71;12.226105;69.6;13 / 19;22024;2022-10-17 20:03:02:084
-4.1459;-0.9185;0.9993;1.1445;-9.5621;1.8511;-6.6516;3.7575;-6.1099;-0.682;3.1414;2.1514;0.0;14.34;32.25;9.11;179.77;88.52;122.95;0.0;979.05;42.373;35.95182;-83.9337;810.08;NaN;;4.39;12.226105;70.5;12 / 19;22524;2022-10-17 20:03:02:584
-1.9152;-7.2562;-1.7312;-1.1821;-8.987;-3.7425;-1.1721;2.8897;3.3534;-1.2985;-2.5084;-0.7549;0.0;20.34;28.28;3.43;81.77;68.08;163.99;0.0;979.2;45.318;35.95182;-83.9337;810.08;NaN;;4.39;12.226105;70.5;12 / 19;23024;2022-10-17 20:03:03:084
1.5787;-10.6651;-1.7931;-1.4872;-9.6505;0.9089;1.7386;-0.3669;-1.8766;-0.554;1.2873;0.1867;1.0;22.56;28.07;4.97;244.46;80.14;48.86;0.0;978.96;43.329;35.951824;-83.933685;809.34;NaN;;4.39;12.226105;74.2;12 / 19;23524;2022-10-17 20:03:03:584
-0.3538;-4.718;-0.7152;-1.1441;-9.2178;-3.1454;0.5323;2.4943;3.0312;-0.2033;-1.2779;-0.3812;0.0;26.83;28.99;6.92;96.41;67.12;161.76;0.0;979.3;41.645;35.951824;-83.933685;809.34;NaN;;4.39;12.226105;74.2;12 / 19;24025;2022-10-17 20:03:04:085
-0.0176;-8.9856;-0.3505;0.184;-9.7798;0.701;1.1855;1.7367;-1.2931;1.144;0.4;0.3842;0.0;23.87;35.16;7.99;307.72;85.76;-14.71;0.0;978.74;39.839;35.951824;-83.93368;807.51;NaN;;4.28;12.226105;70.0;12 / 19;24524;2022-10-17 20:03:04:584
2.741;-8.889;0.4591;0.0245;-8.904;-4.1096;2.5298;-2.6504;3.622;-1.5417;0.0219;0.1526;1.0;18.02;40.52;7.43;67.26;73.82;-169.54;0.0;979.21;38.428;35.951824;-83.93368;807.51;NaN;;4.28;12.226105;70.0;12 / 19;25024;2022-10-17 20:03:05:084
0.7265;-10.5033;0.827;-0.6463;-9.6267;1.7548;1.7544;-0.1275;0.4185;1.335;0.5437;-0.4745;0.0;18.08;40.14;6.28;290.39;79.01;20.22;0.0;978.52;39.868;35.95183;-83.93366;803.17;NaN;;3.92;12.226105;54.3;12 / 19;25524;2022-10-17 20:03:05:584
-0.5498;-14.3608;5.8863;0.8825;-9.282;-3.0391;-1.5728;-4.1551;7.556;-1.8965;0.2507;-0.9587;0.0;19.88;36.96;-3.22;42.65;71.17;-163.81;0.0;979.18;42.5;35.95183;-83.93366;803.17;NaN;;3.92;12.226105;54.3;12 / 19;26024;2022-10-17 20:03:06:084
-0.9266;-11.9836;2.7335;-0.3285;-9.7723;0.7509;-4.1866;1.8066;2.6093;1.1083;-0.2567;1.3484;0.0;16.22;38.01;6.54;16.27;83.73;-86.36;0.0;978.23;47.229;35.95184;-83.93366;802.43;NaN;;4.72;12.226105;47.6;12 / 19;26524;2022-10-17 20:03:06:584
1.3421;-9.8518;0.7172;1.3587;-9.2342;-3.0089;-2.6786;-1.7393;4.3614;-1.5608;-0.5436;-0.6026;0.0;21.28;36.0;-10.2;28.62;83.09;-149.04;0.0;979.08;45.045;35.95184;-83.93366;802.43;NaN;;4.72;12.226105;47.6;12 / 19;27024;2022-10-17 20:03:07:084
-0.3882;-12.9386;4.3259;0.3752;-9.7903;0.4238;-4.4846;3.7135;3.6716;0.3825;0.6783;-0.6166;0.0;14.61;40.09;3.62;34.49;75.93;-129.73;0.0;979.65;52.651;35.95185;-83.93365;800.01;NaN;;5.29;12.226105;48.4;12 / 19;27523;2022-10-17 20:03:07:583
-1.343;-15.8871;7.4192;1.1206;-9.6781;-1.1177;1.1187;-4.5619;-3.3616;-3.749;-0.5756;-0.8334;0.0;18.38;37.07;-12.08;271.9;70.26;2.11;0.0;979.09;53.561;35.95185;-83.93365;800.01;NaN;;5.29;12.226105;48.4;12 / 19;28024;2022-10-17 20:03:08:084
-4.9822;-11.5113;2.1697;2.5699;-9.4177;-0.9339;2.4935;1.0164;0.7581;0.7304;1.5638;-0.4398;0.0;10.59;39.02;7.14;29.18;73.81;-109.97;0.0;979.19;39.712;35.95186;-83.93364;796.25;NaN;;4.86;12.226105;46.5;12 / 19;28524;2022-10-17 20:03:08:584
4.1821;-12.5414;-2.9028;-0.0849;-9.1637;3.4913;2.0377;-1.6576;-2.9463;0.1393;0.5812;0.1017;0.0;14.96;35.53;-6.39;294.84;69.14;1.39;0.0;979.36;38.75;35.95186;-83.93364;796.25;NaN;;4.86;12.226105;46.5;12 / 19;29024;2022-10-17 20:03:09:084
-1.0211;-8.7242;5.2385;1.3574;-9.7084;-0.2717;-0.5228;0.7119;-3.7297;2.1541;1.1059;0.1391;0.0;12.34;35.51;7.97;33.9;81.88;-101.32;0.0;979.16;45.302;35.951866;-83.93363;795.37;NaN;;3.67;12.226105;47.0;12 / 19;29524;2022-10-17 20:03:09:584
4.5275;-13.3896;-6.1519;0.4818;-9.5216;2.2972;3.8094;-1.1734;-3.2257;-0.4691;0.8366;-0.3346;0.0;15.06;35.38;-2.62;303.97;68.87;-1.35;0.0;979.3;58.144;35.951866;-83.93363;795.37;NaN;;3.67;12.226105;47.0;12 / 19;30024;2022-10-17 20:03:10:084
9.2228;-15.7014;-7.4435;1.1225;-9.6691;-1.1915;1.5186;-2.4221;-6.3143;2.005;-0.1828;0.6057;0.0;15.88;35.06;4.14;49.42;73.31;-152.47;0.0;979.45;46.169;35.951874;-83.93363;794.82;NaN;;3.49;12.226105;55.1;12 / 19;30524;2022-10-17 20:03:10:584
0.3535;-10.2888;1.2335;-0.5045;-9.0374;3.7737;-0.505;0.0853;-2.9947;1.0586;0.8124;0.4392;0.0;18.24;36.09;1.65;306.51;75.55;-7.04;0.0;979.06;42.645;35.951874;-83.93363;794.82;NaN;;3.49;12.226105;55.1;12 / 19;31024;2022-10-17 20:03:11:084
-1.7363;-1.4671;1.8054;1.6593;-9.3933;-2.2767;-5.1989;7.166;6.259;3.7817;0.5889;0.505;0.0;18.36;34.95;2.44;33.74;66.15;-141.52;0.0;979.73;41.751;35.951874;-83.93363;794.82;NaN;;3.49;12.226105;55.1;12 / 19;31524;2022-10-17 20:03:11:584
0.195;-8.7984;1.5362;0.555;-9.5167;2.3011;1.9245;-1.0529;-2.0162;1.4391;0.2686;0.0772;0.0;17.81;38.08;-2.34;302.35;76.03;-13.56;0.0;979.04;44.063;35.95188;-83.933624;794.14;NaN;;3.82;12.226105;50.9;12 / 19;32023;2022-10-17 20:03:12:083
-2.8056;-2.4933;1.9167;2.0838;-9.1272;-2.9192;0.0582;0.4359;4.9938;0.7152;-1.0003;0.2008;0.0;19.26;36.79;-4.12;22.01;77.79;-132.15;0.0;979.62;48.235;35.95189;-83.933624;791.9;NaN;;3.64;12.226105;23.4;11 / 19;32526;2022-10-17 20:03:12:586
-0.3574;-9.245;1.9017;0.1688;-9.253;3.244;1.9251;1.5297;-2.619;1.4365;0.1159;-0.0285;0.0;16.86;37.67;0.02;300.05;80.49;-11.55;0.0;979.12;50.455;35.95189;-83.933624;791.9;NaN;;3.64;12.226105;23.4;11 / 19;33024;2022-10-17 20:03:13:084
0.0245;-6.2644;1.5852;2.4389;-9.138;-2.592;0.4229;1.1531;4.5005;-1.202;-0.2112;-0.7235;0.0;18.58;34.99;-3.19;23.68;68.72;-136.74;0.0;978.95;44.358;35.951897;-83.933624;790.91;NaN;;3.6;12.226105;16.2;11 / 19;33524;2022-10-17 20:03:13:584
4.5781;-8.3967;-2.56;0.5182;-9.6746;1.518;0.5033;-6.0432;2.5832;2.6829;-0.6622;1.3524;0.0;14.96;35.81;3.62;318.14;80.59;-18.85;0.0;978.68;47.733;35.951897;-83.933624;790.91;NaN;;3.6;12.226105;16.2;11 / 19;34023;2022-10-17 20:03:14:083
-1.6244;-11.6031;1.8314;2.193;-9.4782;-1.2346;-4.5755;-4.898;7.3027;-0.8708;-0.2533;-1.0719;0.0;20.93;33.36;-6.43;9.92;75.13;-119.38;0.0;979.0;49.306;35.95191;-83.933624;790.02;NaN;;3.82;12.226105;356.5;10 / 19;34524;2022-10-17 20:03:14:584
-3.2369;-9.4077;3.2369;2.8375;-9.38;0.366;-0.1766;-0.8707;2.4788;0.7661;1.2305;0.6073;0.0;13.61;36.92;0.38;355.75;73.04;-82.65;0.0;978.37;43.429;35.95191;-83.933624;790.02;NaN;;3.82;12.226105;356.5;10 / 19;35023;2022-10-17 20:03:15:083
0.0912;-11.4709;0.2174;1.7764;-9.6202;-0.6837;2.1973;-4.8732;-4.0073;-1.8599;1.1318;-0.9961;0.0;22.11;34.71;-11.27;355.61;78.81;-111.05;0.0;979.33;42.897;35.951916;-83.933624;790.12;NaN;;3.74;12.226105;15.8;10 / 19;35528;2022-10-17 20:03:15:588
-2.9336;-8.0958;4.5954;1.7773;-9.64;-0.2857;-8.0823;-0.2331;-0.126;0.0118;1.8827;0.3281;0.0;14.57;38.89;4.41;22.97;74.16;-112.87;0.0;978.57;45.37;35.951916;-83.933624;790.12;NaN;;3.74;12.226105;15.8;10 / 19;36024;2022-10-17 20:03:16:084
4.3672;-14.0405;-4.2933;1.099;-9.7282;0.5702;6.122;-2.0916;-4.006;-0.0093;0.5383;0.2388;0.0;21.43;37.16;-7.03;321.49;82.75;-62.58;0.0;978.93;42.789;35.951923;-83.93362;786.82;NaN;;3.64;12.226105;32.4;10 / 19;36524;2022-10-17 20:03:16:584
4.7512;-11.1712;2.3133;2.5027;-9.4807;-0.1542;12.2576;-10.2342;-8.4639;-0.047;-1.3438;-0.4022;0.0;11.83;38.42;4.88;12.93;78.06;-87.83;0.0;980.07;44.749;35.951923;-83.93362;786.82;NaN;;3.64;12.226105;32.4;10 / 19;37024;2022-10-17 20:03:17:084
6.0879;-11.9246;-2.653;0.0033;-9.3612;2.9219;0.8078;-0.4728;-2.4551;-1.8971;0.0068;-0.9722;0.0;17.33;36.94;-9.06;278.2;72.67;-0.06;0.0;979.0;48.073;35.951935;-83.93362;786.47;NaN;;3.96;12.226105;0.9;11 / 19;37524;2022-10-17 20:03:17:584
13.4955;-19.7112;-7.7581;2.0445;-9.5911;-0.027;-5.0059;6.9218;2.1087;-0.3722;-0.7126;-0.3623;1.0;14.01;36.3;-2.74;352.45;77.97;-90.76;0.0;979.37;51.407;35.951935;-83.93362;786.47;NaN;;3.96;12.226105;0.9;11 / 19;38024;2022-10-17 20:03:18:084
7.1384;-12.9945;-3.9446;-0.4516;-9.171;3.4438;-0.8121;-0.2522;-3.0941;-0.2293;0.0786;0.0564;0.0;15.69;35.38;-9.06;281.18;74.29;-9.27;0.0;979.05;53.407;35.951942;-83.93362;785.65;NaN;;3.53;12.226105;7.4;11 / 19;38524;2022-10-17 20:03:18:584
12.2112;-19.7836;-10.2338;2.0214;-9.581;-0.5382;-1.1938;1.2057;-3.3507;1.8589;0.575;0.581;0.0;15.43;35.76;-3.39;17.68;69.67;-132.41;0.0;979.02;59.24;35.951942;-83.93362;785.65;NaN;;3.53;12.226105;7.4;11 / 19;39024;2022-10-17 20:03:19:084
-0.6087;-10.4806;-0.4247;-0.2106;-9.095;3.6615;0.338;0.0994;-1.3808;1.2335;0.0164;-0.0501;0.0;14.74;36.38;-8.87;281.17;76.04;-12.38;0.0;979.58;46.241;35.951954;-83.93362;786.05;NaN;;3.49;12.226105;9.1;12 / 19;39524;2022-10-17 20:03:19:584
-1.3753;-4.2485;-0.6855;2.0458;-9.5909;0.0214;-4.6084;7.5412;2.1685;1.7307;-0.4356;0.3325;0.0;17.72;35.1;-10.31;5.2;67.85;-127.21;0.0;979.31;46.413;35.951954;-83.93362;786.05;NaN;;3.49;12.226105;9.1;12 / 19;40024;2022-10-17 20:03:20:084
-0.2384;-9.0574;1.7336;0.2133;-9.1795;3.444;4.494;1.0531;-3.345;1.104;0.5672;0.4284;1.0;13.69;37.01;-10.5;280.28;77.0;-16.86;0.0;978.87;40.938;35.951958;-83.93361;787.72;NaN;;4.28;12.226105;47.8;12 / 19;40525;2022-10-17 20:03:20:585
-3.1729;-2.61;2.7972;2.6477;-9.0422;-2.7202;-1.1878;-0.8134;3.9226;-1.1459;-1.8961;-0.5294;1.0;19.82;35.72;-7.84;15.26;67.23;-135.77;0.0;979.61;41.698;35.951958;-83.93361;787.72;NaN;;4.28;12.226105;47.8;12 / 19;41025;2022-10-17 20:03:21:085
-0.4959;-9.3335;0.4481;0.3838;-9.4703;2.5171;3.944;0.7399;-3.2722;1.3772;0.5477;-0.0258;1.0;20.1;41.06;-5.32;293.17;74.95;-8.67;0.0;978.53;43.742;35.951958;-83.93361;787.72;NaN;;4.28;12.226105;47.8;12 / 19;41524;2022-10-17 20:03:21:584
-2.4165;-3.5121;2.3964;2.2612;-9.3082;-2.101;-1.6552;3.4711;2.9374;-0.543;-1.3714;-0.4052;0.0;20.87;39.43;-4.65;15.63;74.7;-125.89;0.0;979.56;41.84;35.95197;-83.9336;786.76;NaN;;3.85;12.226105;20.9;12 / 19;42024;2022-10-17 20:03:22:084
2.1736;-8.3046;1.5978;0.4061;-9.4963;2.4138;5.0738;1.3163;-3.966;2.3659;-2.6763;1.8118;0.0;17.33;39.62;-0.09;307.18;75.55;-9.55;0.0;978.17;41.467;35.951973;-83.93359;787.11;NaN;;4.39;12.226105;54.3;12 / 19;42524;2022-10-17 20:03:22:584
4.2156;-8.2394;0.4639;2.7295;-9.1971;-2.0332;-3.648;-0.1062;3.8402;-0.745;-0.4452;-0.9107;1.0;21.68;37.71;-7.07;13.21;79.44;-124.6;0.0;979.19;42.755;35.951973;-83.93359;787.11;NaN;;4.39;12.226105;54.3;12 / 19;43024;2022-10-17 20:03:23:084
-2.9871;-10.4486;3.4086;0.5623;-9.6647;1.5643;-2.9235;-1.6566;1.6279;1.6433;0.3516;0.6125;0.0;13.69;40.24;1.84;9.43;73.44;-98.52;0.0;978.36;41.523;35.95198;-83.933586;786.29;NaN;;4.03;12.226105;26.2;12 / 19;43524;2022-10-17 20:03:23:584
-1.611;-13.0394;7.1515;1.0563;-9.7487;-0.131;3.4603;-3.662;-5.9668;-0.8669;0.6534;-1.1937;0.0;22.18;37.43;-13.89;337.82;83.77;-97.07;0.0;979.02;44.234;35.95198;-83.933586;786.29;NaN;;4.03;12.226105;26.2;12 / 19;44024;2022-10-17 20:03:24:084
-0.2931;-11.9629;2.7823;2.0832;-9.5754;0.3781;-6.0273;-0.6766;2.8697;0.8016;-0.8627;1.4757;1.0;12.56;40.16;4.52;15.44;79.54;-92.15;0.0;980.2;45.14;35.95199;-83.93358;788.28;NaN;;3.82;12.226105;41.6;12 / 19;44524;2022-10-17 20:03:24:584
-2.5346;-12.4633;1.8766;1.9744;-9.5011;-1.4146;-3.4968;-5.7319;6.4991;-2.592;1.1345;-0.8708;0.0;20.57;37.76;-9.94;283.3;79.44;-21.77;0.0;979.09;43.108;35.95199;-83.93358;788.28;NaN;;3.82;12.226105;41.6;12 / 19;45023;2022-10-17 20:03:25:083
-4.3292;-7.2526;3.711;1.9989;-9.5999;0.1267;-8.1242;1.2904;2.3513;-0.8017;-0.0541;-0.9036;0.0;11.31;39.58;3.77;9.76;78.22;-86.37;0.0;979.77;41.677;35.951996;-83.93357;789.09;NaN;;3.74;12.226105;28.3;12 / 19;45524;2022-10-17 20:03:25:584
2.6632;-15.2901;0.5315;1.4825;-9.6939;-0.0146;4.5205;-2.8258;-5.5626;-2.7801;-0.4221;-1.5665;0.0;20.08;37.46;-12.08;335.15;81.3;-90.56;0.0;979.4;40.367;35.951996;-83.93357;789.09;NaN;;3.74;12.226105;28.3;12 / 19;46023;2022-10-17 20:03:26:083
11.8591;-20.8442;-7.2278;3.0176;-9.3012;-0.743;7.3846;-8.9047;-4.3965;1.1221;2.2924;-0.4628;1.0;11.19;40.22;2.64;14.06;71.52;-103.83;0.0;979.08;45.297;35.952003;-83.93356;791.67;NaN;;3.82;12.226105;40.7;12 / 19;46524;2022-10-17 20:03:26:584
7.1043;-12.7774;-4.5111;-0.1928;-8.98;3.936;-1.2647;-0.2972;-3.3562;-3.2754;0.8061;-1.8191;0.0;18.64;38.7;-11.87;281.81;66.31;2.8;0.0;979.33;40.317;35.952003;-83.93356;791.67;NaN;;3.82;12.226105;40.7;12 / 19;47024;2022-10-17 20:03:27:084
-4.7788;-7.0143;5.9521;2.6381;-9.436;-0.4152;7.9815;-10.7727;-7.8997;-1.2037;0.4242;-0.9315;0.0;14.12;39.0;-1.82;8.51;74.22;-112.7;0.0;979.01;40.888;35.95201;-83.933556;790.38;NaN;;3.6;12.226105;30.8;11 / 19;47523;2022-10-17 20:03:27:583
4.2458;-15.1612;-1.8906;1.223;-9.7152;0.5372;6.5903;-2.2321;-4.9545;-2.5639;0.1021;-1.6586;0.0;14.87;38.74;-7.05;295.73;67.15;8.99;0.0;979.41;43.906;35.95201;-83.933556;790.38;NaN;;3.6;12.226105;30.8;11 / 19;48024;2022-10-17 20:03:28:084
2.3749;-12.1095;3.1322;3.0075;-9.3134;-0.6214;10.7809;-8.6886;-6.4876;1.9102;0.6883;0.4151;0.0;12.23;38.51;2.89;10.96;78.91;-93.35;0.0;979.05;40.31;35.952015;-83.93354;788.79;NaN;;3.64;12.226105;37.6;12 / 19;48524;2022-10-17 20:03:28:584
5.604;-12.2016;-0.344;-0.1759;-9.0943;3.6652;1.0656;-0.6626;-3.2852;0.472;-0.1278;0.5797;0.0;15.0;37.71;-7.89;292.82;68.03;2.75;0.0;979.17;40.321;35.952015;-83.93354;788.79;NaN;;3.64;12.226105;37.6;12 / 19;49024;2022-10-17 20:03:29:084
-2.764;-1.2676;1.6433;1.9072;-9.6113;-0.3951;-4.1813;8.2107;1.0777;0.4737;-0.5992;-0.2938;0.0;12.88;37.63;2.23;13.18;78.54;-101.7;0.0;979.61;41.117;35.952023;-83.93353;789.17;NaN;;4.03;12.226105;59.8;13 / 19;49524;2022-10-17 20:03:29:584
-1.2287;-9.7388;0.9805;0.0944;-9.269;3.201;4.2413;1.81;-2.1182;0.6633;0.1956;0.6767;1.0;14.94;37.48;-3.52;299.99;70.94;-1.69;0.0;978.92;43.565;35.952023;-83.93353;789.17;NaN;;4.03;12.226105;59.8;13 / 19;50024;2022-10-17 20:03:30:084
5.0306;-13.1501;-7.5592;2.2403;-9.4326;-1.4757;-4.2059;6.2975;3.4027;2.6909;-0.0877;0.7947;0.0;12.08;36.47;2.79;26.96;74.12;-123.37;0.0;979.6;45.347;35.952023;-83.93352;789.34;NaN;;3.92;12.226105;52.3;13 / 19;50524;2022-10-17 20:03:30:584
2.0222;-8.9507;2.7709;-0.3327;-9.1043;3.6292;1.6549;0.6123;-1.5209;1.2444;1.2507;0.016;0.0;11.55;37.14;-0.81;303.95;77.2;-4.33;0.0;978.94;47.688;35.952023;-83.93352;789.34;NaN;;3.92;12.226105;52.3;13 / 19;51024;2022-10-17 20:03:31:084
-3.1609;-2.3521;2.0142;2.251;-9.339;-1.9715;-4.7001;6.4446;4.1646;-1.3707;-1.6478;-1.4985;0.0;12.17;36.21;2.4;27.18;72.23;-131.21;0.0;979.52;45.121;35.952023;-83.93352;789.34;NaN;;3.92;12.226105;52.3;13 / 19;51524;2022-10-17 20:03:31:584
2.3916;-8.9166;2.2621;0.1463;-9.3101;3.0776;4.1416;1.5635;-4.4645;1.0841;1.9401;0.0429;0.0;10.65;38.72;3.68;338.62;83.54;-40.9;0.0;979.52;48.736;35.95203;-83.9335;789.51;NaN;;3.71;12.226105;57.7;13 / 19;52023;2022-10-17 20:03:32:083
0.1807;-11.8496;-0.2569;3.0581;-8.9772;-2.4957;-2.1048;-1.7362;2.103;-0.9307;-2.7177;-0.666;0.0;12.73;36.71;1.39;20.92;66.27;-129.22;0.0;978.9;57.802;35.95203;-83.9335;789.51;NaN;;3.71;12.226105;57.7;13 / 19;52524;2022-10-17 20:03:32:584
3.0242;-11.9842;0.4819;1.3607;-9.7117;0.0499;-6.5546;4.613;2.199;1.6535;0.6292;0.5571;0.0;8.61;37.14;8.27;28.13;82.02;-87.9;0.0;978.84;54.34;35.952038;-83.933495;789.06;NaN;;3.67;12.226105;62.0;13 / 19;53024;2022-10-17 20:03:33:084
-0.6084;-4.8272;1.829;2.5651;-9.2488;-2.0126;-5.2462;-3.6368;7.2308;-1.2893;-1.1639;-1.3372;0.0;12.68;36.21;0.84;22.73;70.58;-128.12;0.0;978.99;45.65;35.952045;-83.93349;789.28;NaN;;3.67;12.226105;63.7;13 / 19;53523;2022-10-17 20:03:33:583
5.924;-9.2136;-1.8688;0.1175;-9.6493;1.7455;-0.1629;-4.1317;2.3542;2.4897;-2.2937;2.0523;0.0;8.14;36.77;9.86;36.31;76.84;-97.39;0.0;978.71;43.985;35.952045;-83.93349;789.28;NaN;;3.67;12.226105;63.7;13 / 19;54024;2022-10-17 20:03:34:084
0.8922;-11.3524;-0.2599;2.6051;-9.2719;-1.8483;-4.4881;-6.0058;8.5533;-3.1521;-0.4102;-1.0333;0.0;15.79;37.24;-2.27;16.66;70.99;-125.36;0.0;979.06;41.599;35.95205;-83.93347;785.02;NaN;;3.85;12.226105;54.2;13 / 19;54524;2022-10-17 20:03:34:584
-3.358;-10.1324;3.9601;1.4804;-9.6942;-0.0347;-7.0508;6.1661;4.481;0.8595;3.1088;0.3422;0.0;8.59;38.96;9.47;43.8;74.12;-123.92;0.0;977.99;43.738;35.95205;-83.93347;785.02;NaN;;3.85;12.226105;54.2;13 / 19;55024;2022-10-17 20:03:35:084
8.018;-13.4139;-4.4602;1.4032;-9.7057;-0.0088;6.0544;-3.4449;-5.1018;-2.963;1.451;-1.0318;1.0;16.29;38.94;-7.29;293.49;67.76;6.98;0.0;979.07;45.953;35.952057;-83.933464;784.76;NaN;;3.71;12.226105;52.0;13 / 19;55523;2022-10-17 20:03:35:583
-3.9239;-9.9628;2.243;2.2535;-9.5405;-0.2663;3.7682;-6.5094;-7.2048;0.4542;2.0438;-0.3556;1.0;7.31;38.25;6.98;27.78;76.62;-96.74;0.0;979.26;53.156;35.952057;-83.933464;784.76;NaN;;3.71;12.226105;52.0;13 / 19;56024;2022-10-17 20:03:36:084
-0.3452;-16.5975;5.5663;0.8638;-9.6164;1.7171;3.7145;-2.3327;-4.0157;-3.6419;-0.2503;-1.5913;0.0;12.56;37.46;-5.29;309.05;65.88;0.06;0.0;978.97;45.219;35.952065;-83.93345;788.55;NaN;;3.24;12.226105;46.9;14 / 19;56524;2022-10-17 20:03:36:584
-6.274;-8.4748;1.381;2.7883;-9.4019;0.0329;-0.3191;-0.0668;2.3516;-0.3076;0.9655;-0.947;1.0;8.93;38.57;6.98;20.81;77.83;-87.4;0.0;979.87;46.898;35.952065;-83.93345;788.55;NaN;;3.24;12.226105;46.9;14 / 19;57023;2022-10-17 20:03:37:083
3.684;-16.5263;-2.1879;1.3412;-9.7142;-0.0746;6.3978;-2.4942;-6.3761;-0.1731;-0.1445;0.4765;0.0;12.68;39.94;-2.7;311.55;68.03;4.28;0.0;979.01;44.428;35.95207;-83.93344;787.82;NaN;;3.96;12.226105;63.7;14 / 19;57524;2022-10-17 20:03:37:584
-2.2504;-9.8477;3.705;1.5653;-9.6556;-0.7002;3.035;-6.1308;-7.3923;-0.7964;-0.5267;-0.3344;0.0;7.78;38.06;11.08;54.73;79.93;-114.1;0.0;980.05;42.983;35.95207;-83.93344;787.82;NaN;;3.96;12.226105;63.7;14 / 19;58024;2022-10-17 20:03:38:084
2.9064;-11.4622;-1.116;0.477;-9.6158;1.8653;3.3217;-1.6008;-3.4625;-3.3158;0.0822;-1.5697;1.0;15.08;38.49;-5.62;288.64;78.68;-14.34;0.0;978.99;43.937;35.952072;-83.933426;785.76;NaN;;3.6;12.226105;61.5;14 / 19;58524;2022-10-17 20:03:38:584
12.3754;-11.7209;-0.827;1.7963;-9.6034;0.8479;-5.253;5.8994;0.8288;-1.0269;-0.5103;-0.4211;0.0;7.01;41.03;1.28;352.05;78.31;-64.73;0.0;980.16;44.825;35.952072;-83.933426;785.76;NaN;;3.6;12.226105;61.5;14 / 19;59024;2022-10-17 20:03:39:084
7.9499;-14.3746;-4.5772;-0.3045;-9.138;3.5461;-1.4237;-0.2571;-4.2097;-1.4486;0.3276;-0.5361;1.0;11.55;39.81;-12.9;277.83;68.72;4.91;0.0;978.88;43.935;35.952076;-83.93341;785.27;NaN;;3.74;12.226105;47.9;14 / 19;59524;2022-10-17 20:03:39:584
6.4804;-13.1674;-0.4759;2.6041;-9.4213;-0.793;8.67;-9.2708;-7.9114;0.3218;-0.6176;-0.3299;0.0;5.83;39.64;2.7;22.3;76.08;-118.28;0.0;979.54;50.917;35.952076;-83.93341;785.27;NaN;;3.74;12.226105;47.9;14 / 19;60023;2022-10-17 20:03:40:083
4.6645;-11.6806;0.463;-0.2684;-9.0361;3.801;0.0388;-0.68;-2.9963;1.011;1.1886;0.1245;0.0;7.65;39.53;-0.94;328.68;70.75;-7.62;0.0;978.96;55.953;35.95208;-83.9334;786.74;NaN;;3.46;12.226105;54.0;14 / 19;60524;2022-10-17 20:03:40:584
4.1713;-14.7754;-7.331;2.2392;-9.4703;-1.2122;-4.4193;6.5378;4.0458;2.8943;-0.4301;1.1202;1.0;9.79;37.24;1.35;17.73;74.95;-118.43;0.0;979.09;43.969;35.95208;-83.9334;786.74;NaN;;3.46;12.226105;54.0;14 / 19;61024;2022-10-17 20:03:41:084
1.2221;-8.8564;2.19;0.2693;-9.1813;3.4353;0.4283;0.63;-1.8977;0.6978;0.3808;0.7129;1.0;10.52;39.0;-3.17;310.62;77.45;-21.67;0.0;979.68;50.332;35.952084;-83.93339;787.05;NaN;;3.85;12.226105;51.0;14 / 19;61523;2022-10-17 20:03:41:583
-3.3559;-2.1311;2.4078;2.9558;-8.9054;-2.8508;0.0497;-0.1865;4.3315;1.9275;-0.1455;0.5184;0.0;9.83;37.74;-0.83;15.09;65.24;-133.96;0.0;979.58;43.698;35.952084;-83.93339;787.05;NaN;;3.85;12.226105;51.0;14 / 19;62023;2022-10-17 20:03:42:083
0.8821;-8.9489;2.2328;0.8421;-9.4921;2.3155;4.8232;-2.2182;-2.4447;1.4171;-0.0262;-0.1525;1.0;7.39;39.51;-4.74;313.33;75.45;-19.98;0.0;978.49;42.021;35.952087;-83.93337;787.3;NaN;;3.74;12.226105;53.0;14 / 19;62528;2022-10-17 20:03:42:588
2.7526;-10.4366;-0.8635;3.1588;-8.7498;-3.1038;-0.3848;-0.8204;3.4437;-1.7145;-1.8209;-1.4591;0.0;12.0;37.14;-9.43;349.15;75.05;-109.49;0.0;979.4;48.342;35.952087;-83.93337;787.3;NaN;;3.74;12.226105;53.0;14 / 19;63023;2022-10-17 20:03:43:083
4.6543;-9.0359;-0.7035;0.5439;-9.4965;2.3856;-0.0411;-2.4879;0.9832;2.0472;-1.5054;1.6214;0.0;4.99;38.7;5.59;15.29;75.3;-74.2;0.0;978.07;44.388;35.952095;-83.933365;789.28;NaN;;3.92;12.226105;51.9;14 / 19;63524;2022-10-17 20:03:43:584
1.5018;-10.6427;-0.052;2.1328;-9.5472;-0.6869;-1.0982;-6.0831;5.1245;-1.2108;-1.917;-1.5969;1.0;13.65;38.55;-5.42;358.85;76.79;-107.85;0.0;978.95;44.829;35.952095;-83.933365;789.28;NaN;;3.92;12.226105;51.9;14 / 19;64024;2022-10-17 20:03:44:084
-4.7306;-6.405;4.4922;0.8651;-9.6907;1.2301;-5.2412;2.4269;3.1915;0.702;0.0673;1.9732;0.0;6.88;41.4;4.73;348.74;81.18;-35.12;0.0;978.93;42.19;35.952103;-83.93336;786.62;NaN;;3.92;12.226105;37.2;14 / 19;64523;2022-10-17 20:03:44:583
-1.946;-12.8471;1.8586;1.6132;-9.6522;-0.6351;4.6972;-4.0946;-4.4086;-1.1451;-0.9062;-1.2441;1.0;15.04;41.12;-8.31;355.33;79.82;-111.49;0.0;978.92;47.745;35.952103;-83.93336;786.62;NaN;;3.92;12.226105;37.2;14 / 19;65024;2022-10-17 20:03:45:084
3.7633;-11.8777;1.4384;1.5574;-9.681;0.1516;-7.4743;2.7898;2.0509;1.6914;-2.3864;2.0495;1.0;5.42;43.91;6.26;26.82;74.99;-107.35;0.0;978.46;48.068;35.952114;-83.93335;783.16;NaN;;4.43;12.226105;0.6;14 / 19;65524;2022-10-17 20:03:45:584
1.1985;-11.755;-0.4549;2.7497;-9.3496;-1.0927;-4.8866;-3.7145;9.4077;-1.2784;0.7059;-1.3888;0.0;13.29;41.7;-9.34;300.37;81.57;-45.54;0.0;978.95;47.729;35.952114;-83.93335;783.16;NaN;;4.43;12.226105;0.6;14 / 19;66023;2022-10-17 20:03:46:083
-3.3909;-12.1071;2.4272;1.6017;-9.6405;0.816;-6.876;4.723;4.5275;1.1224;2.3593;1.2683;0.0;2.29;41.78;4.22;13.3;79.44;-63.0;0.0;979.55;45.687;35.952126;-83.93334;784.45;NaN;;4.14;12.226105;27.8;14 / 19;66524;2022-10-17 20:03:46:584
-1.6534;-12.9981;4.9582;1.044;-9.7486;0.2106;4.5923;-3.103;-5.9158;-1.2045;-0.2255;-1.0478;0.0;11.93;38.27;-9.32;321.45;83.77;-78.59;0.0;978.89;47.988;35.952126;-83.93334;784.45;NaN;;4.14;12.226105;27.8;14 / 19;67023;2022-10-17 20:03:47:083
-4.7121;-4.2622;5.7667;2.1742;-9.5597;0.2333;-8.0374;7.4295;6.5743;1.243;3.0008;-0.324;0.0;4.16;37.31;4.07;15.8;77.12;-83.88;0.0;980.22;47.738;35.95213;-83.933334;785.49;NaN;;3.96;12.226105;45.6;14 / 19;67524;2022-10-17 20:03:47:584
0.8207;-15.7262;3.1992;0.716;-9.563;2.0511;5.0317;-2.3262;-3.1227;-3.0817;1.1841;-0.5457;0.0;13.11;35.06;-11.14;276.47;77.2;-19.24;0.0;979.01;44.987;35.95213;-83.933334;785.49;NaN;;3.96;12.226105;45.6;14 / 19;68023;2022-10-17 20:03:48:083
-3.5067;-8.6821;3.9191;2.8059;-9.3686;-0.7259;3.5643;-4.8262;-1.0871;0.5085;2.5124;0.4313;0.0;5.64;39.92;2.87;14.82;72.81;-104.51;0.0;980.35;47.056;35.95214;-83.93333;785.25;NaN;;4.03;12.226105;26.0;15 / 19;68523;2022-10-17 20:03:48:583
0.5554;-14.6644;7.5879;1.3606;-9.6455;-1.133;2.2696;-3.7573;-2.0154;-3.3399;-1.027;-0.9381;0.0;13.09;38.83;-9.96;279.71;71.61;3.27;0.0;978.99;44.952;35.95214;-83.93333;785.25;NaN;;4.03;12.226105;26.0;15 / 19;69024;2022-10-17 20:03:49:084
3.8049;-13.2099;1.025;3.1167;-9.2935;0.296;-2.1613;-3.4023;1.2106;-0.4088;0.8269;-1.0284;0.0;6.73;39.79;1.31;3.69;76.03;-90.49;0.0;979.69;47.945;35.952145;-83.93331;786.46;NaN;;3.89;12.226105;28.5;15 / 19;69524;2022-10-17 20:03:49:584
3.3326;-15.1179;-1.7779;0.4031;-9.4422;2.6177;1.5373;-1.2563;-3.2621;-3.1285;0.1835;-0.7927;1.0;12.62;37.5;-12.94;269.22;74.33;-8.75;0.0;979.21;46.972;35.952145;-83.93331;786.46;NaN;;3.89;12.226105;28.5;15 / 19;70024;2022-10-17 20:03:50:084
13.095;-19.9086;-8.2427;3.2932;-9.1669;-1.1373;8.4425;-7.1873;-4.962;-0.5303;-1.1937;-0.4328;1.0;4.88;39.41;2.23;11.28;69.19;-109.05;0.0;979.48;49.892;35.952152;-83.933304;787.69;NaN;;3.78;12.226105;25.9;15 / 19;70523;2022-10-17 20:03:50:583
4.1548;-11.8062;-0.891;-0.3959;-9.0855;3.6697;-0.2585;1.219;-3.6787;-0.2787;0.8389;-0.471;0.0;10.26;37.59;-7.88;303.18;67.89;6.16;0.0;979.26;48.918;35.952152;-83.933304;787.69;NaN;;3.78;12.226105;25.9;15 / 19;71024;2022-10-17 20:03:51:084
11.4724;-22.9843;-9.4424;1.6442;-9.5412;-1.5595;-4.4948;10.3272;5.5842;1.7891;-0.1298;0.2533;0.0;10.26;37.73;-0.19;17.49;64.57;-135.52;0.0;979.64;49.114;35.952152;-83.933304;787.69;NaN;;3.78;12.226105;25.9;15 / 19;71524;2022-10-17 20:03:51:584
2.9204;-10.4982;0.0628;-0.8432;-8.941;3.9392;0.1566;-0.3333;-4.069;1.0008;0.9147;0.9099;1.0;11.78;39.28;-5.27;301.96;72.55;-3.67;0.0;978.8;56.53;35.952156;-83.93329;789.65;NaN;;4.18;12.226105;47.8;15 / 19;72024;2022-10-17 20:03:52:084
-4.5574;-1.2571;3.6263;2.0259;-9.5696;-0.6986;-6.4952;8.559;3.6413;1.7758;-0.7454;0.5782;1.0;10.07;39.84;-0.45;10.28;77.38;-109.03;0.0;979.6;56.082;35.952156;-83.93329;789.65;NaN;;4.18;12.226105;47.8;15 / 19;72523;2022-10-17 20:03:52:583
-0.5177;-10.0077;1.3992;-0.8342;-9.1031;3.5507;1.6731;1.1142;-3.8192;0.5761;0.2513;0.7525;0.0;13.33;42.69;-5.42;292.86;76.12;-0.12;0.0;978.99;48.61;35.95216;-83.93327;790.33;NaN;;3.85;12.226105;58.6;15 / 19;73024;2022-10-17 20:03:53:084
-2.1344;-3.3218;3.0012;2.0128;-9.441;-1.7284;-5.1796;7.2589;5.1138;0.385;-1.8851;0.2426;0.0;14.85;45.53;-4.44;10.66;68.87;-126.32;0.0;979.49;59.971;35.952168;-83.933266;788.83;NaN;;4.1;12.226105;36.2;15 / 19;73524;2022-10-17 20:03:53:584
0.8243;-6.9586;2.4141;0.3599;-9.6299;1.8182;2.7075;-3.351;-0.6754;1.6138;1.4033;0.1466;1.0;5.34;45.04;5.7;346.21;79.11;-11.2;0.0;978.6;53.923;35.952168;-83.933266;788.83;NaN;;4.1;12.226105;36.2;15 / 19;74024;2022-10-17 20:03:54:084
-1.8395;-3.1469;-0.3021;2.9155;-8.9756;-2.6661;-2.0289;2.1461;5.2549;1.2916;-1.5438;0.2908;0.0;9.21;40.78;-1.03;7.81;73.79;-113.74;0.0;979.5;56.506;35.952175;-83.93325;787.96;NaN;;3.89;12.226105;43.8;14 / 19;74524;2022-10-17 20:03:54:584
0.0562;-9.0918;1.1106;0.1549;-9.0568;3.7577;4.386;1.2079;-2.2889;1.7702;0.0907;0.8465;0.0;7.24;40.44;-2.85;331.0;67.45;-2.36;0.0;979.27;51.802;35.952175;-83.93325;787.96;NaN;;3.89;12.226105;43.8;14 / 19;75024;2022-10-17 20:03:55:084
1.0307;-6.5997;2.3426;2.07;-8.921;-3.5073;-1.7314;4.0897;6.0684;-1.2359;-2.539;-0.2288;0.0;10.37;38.27;-0.9;20.93;65.46;-149.45;0.0;979.28;47.18;35.952183;-83.93324;785.43;NaN;;3.82;12.226105;41.1;14 / 19;75524;2022-10-17 20:03:55:584
3.4457;-8.9276;0.9425;0.0081;-9.3404;2.988;4.2123;0.6685;-4.7559;1.2901;1.3354;-0.3115;1.0;9.19;39.15;4.01;350.26;83.65;-52.1;0.0;979.66;54.139;35.952183;-83.93324;785.43;NaN;;3.82;12.226105;41.1;14 / 19;76024;2022-10-17 20:03:56:084
-4.8111;-0.3891;3.7026;1.9269;-9.4498;-1.7775;-4.264;7.5817;4.5079;-1.0694;-2.0873;-1.5268;1.0;9.68;38.08;0.23;13.9;69.88;-121.44;0.0;978.98;57.206;35.95219;-83.933235;785.39;NaN;;3.78;12.226105;46.7;14 / 19;76524;2022-10-17 20:03:56:584
-0.4382;-9.7068;0.3724;0.1191;-9.4496;2.6193;3.7048;-1.7323;-0.0697;0.9816;1.3323;-0.2902;1.0;5.7;39.24;7.18;29.74;81.35;-88.52;0.0;979.77;53.151;35.95219;-83.933235;785.39;NaN;;3.78;12.226105;46.7;14 / 19;77023;2022-10-17 20:03:57:083
-4.4375;-0.4633;4.2485;2.2834;-9.1295;-2.7585;-0.6783;2.8838;4.6953;-1.1304;-0.531;-1.512;0.0;10.78;38.61;-0.77;12.43;74.92;-118.64;0.0;978.94;54.047;35.9522;-83.93321;784.33;NaN;;3.92;12.226105;51.3;14 / 19;77525;2022-10-17 20:03:57:585
2.8585;-8.578;3.0416;0.0761;-9.5693;2.1432;-1.6949;-1.0588;3.5451;2.0093;0.8253;0.4736;1.0;6.32;42.86;7.69;341.84;77.37;-2.03;0.0;978.93;57.461;35.9522;-83.93321;784.33;NaN;;3.92;12.226105;51.3;14 / 19;78024;2022-10-17 20:03:58:084
0.4238;-6.1074;2.0195;2.3633;-8.9946;-3.1118;0.3011;0.4183;4.583;-0.0999;-2.0603;0.1465;0.0;7.22;40.5;3.86;24.8;66.52;-142.78;0.0;978.83;57.269;35.9522;-83.93321;784.33;NaN;;3.92;12.226105;51.3;13 / 19;78524;2022-10-17 20:03:58:584
0.9553;-8.9659;2.0913;0.4742;-9.7321;1.1095;-3.913;3.8192;4.222;2.8906;-1.5704;1.4786;1.0;3.64;37.93;13.5;5.48;82.93;-23.14;0.0;978.78;57.168;35.95221;-83.9332;783.42;NaN;;3.89;12.226105;62.8;13 / 19;79024;2022-10-17 20:03:59:084
-3.2034;-1.1372;2.522;3.2391;-8.8612;-2.6755;-4.0038;-3.3564;4.2119;-1.4068;-3.2743;-1.1137;1.0;10.56;37.48;0.17;18.54;80.01;-118.99;0.0;979.08;61.616;35.952217;-83.93318;786.87;NaN;;4.46;12.226105;69.8;14 / 19;79524;2022-10-17 20:03:59:584
-0.4582;-13.9866;3.0395;2.1263;-9.5717;0.178;-6.5654;0.9288;1.2608;0.6638;0.47;2.1138;0.0;5.18;36.83;9.53;34.82;77.43;-85.21;0.0;978.46;49.555;35.952217;-83.93318;786.87;NaN;;4.46;12.226105;69.8;14 / 19;80024;2022-10-17 20:04:00:084
1.9968;-6.8255;2.2567;2.0629;-9.4389;-1.68;-4.4234;-5.8148;8.6999;-1.3049;-0.8408;-1.1198;0.0;11.66;36.15;-0.53;19.39;74.26;-129.16;0.0;979.18;58.271;35.952217;-83.933174;789.05;NaN;;4.25;12.226105;68.8;14 / 19;80524;2022-10-17 20:04:00:584
5.059;-11.2433;1.232;-0.0224;-9.5102;2.3928;-1.8226;-2.1806;0.1413;1.1118;1.4756;1.2913;1.0;6.11;36.69;8.79;24.32;75.02;-78.75;0.0;978.55;61.438;35.952217;-83.933174;789.05;NaN;;4.25;12.226105;68.8;14 / 19;81023;2022-10-17 20:04:01:083
2.0393;-8.5448;1.9546;2.9386;-9.0335;-2.4352;-3.7199;-2.8858;3.8774;-0.9484;-0.6875;-1.5888;0.0;11.91;36.47;-1.74;16.46;80.42;-123.74;0.0;979.24;58.184;35.952225;-83.93316;789.33;NaN;;4.21;12.226105;54.7;15 / 19;81524;2022-10-17 20:04:01:584
1.8643;-14.1449;2.2077;0.2669;-9.64;1.7802;-3.7714;-0.3286;2.4938;2.2895;-0.8285;1.1557;0.0;3.69;35.16;9.21;37.68;72.4;-102.27;0.0;978.41;62.809;35.952225;-83.93316;789.33;NaN;;4.21;12.226105;54.7;15 / 19;82024;2022-10-17 20:04:02:084
-2.5705;-16.3116;4.5969;1.9676;-9.4876;-1.5112;-5.0554;-5.8419;6.6208;-2.2359;0.9432;-1.1317;0.0;11.79;32.29;-4.16;303.96;80.6;-32.52;0.0;979.21;60.615;35.952232;-83.93315;790.07;NaN;;4.07;12.226105;43.6;15 / 19;82523;2022-10-17 20:04:02:583
-2.2418;-7.5461;5.1416;2.6223;-9.4295;-0.6155;1.1348;0.6822;1.7775;1.113;-0.8419;1.8788;0.0;5.23;35.1;3.73;20.58;74.06;-103.21;0.0;978.03;52.254;35.952232;-83.93315;790.07;NaN;;4.07;12.226105;43.6;15 / 19;83024;2022-10-17 20:04:03:084
-2.4356;-13.8194;2.464;0.9795;-9.7423;-0.5468;4.6313;-3.1574;-5.0174;-2.968;1.2071;-0.8512;1.0;14.38;33.71;-7.57;359.54;83.43;-119.17;0.0;979.49;57.649;35.95224;-83.93314;791.04;NaN;;4.0;12.226105;42.4;15 / 19;83523;2022-10-17 20:04:03:583
-3.1968;-4.4647;7.1303;1.7673;-9.6453;-0.1242;-8.8336;-2.0197;-1.2517;-0.4632;0.813;-0.9425;0.0;7.99;36.56;6.45;30.32;75.87;-110.05;0.0;978.22;59.412;35.95224;-83.93314;791.04;NaN;;4.0;12.226105;42.4;15 / 19;84024;2022-10-17 20:04:04:084
-0.6383;-13.7689;10.6208;1.9273;-9.5888;-0.7148;1.2518;-6.4226;2.5408;-3.3684;-0.414;-0.8848;0.0;14.03;35.76;-5.64;358.07;77.9;-110.35;0.0;979.22;58.478;35.952248;-83.93313;790.54;NaN;;4.25;12.226105;51.6;15 / 19;84525;2022-10-17 20:04:04:585
-4.1752;-2.4371;3.5384;2.5779;-9.4592;0.2216;-8.2032;-4.0452;-0.6553;0.4912;-1.1416;1.6437;1.0;6.11;38.19;5.42;15.41;74.7;-85.09;0.0;978.25;49.737;35.952248;-83.93313;790.54;NaN;;4.25;12.226105;51.6;15 / 19;85024;2022-10-17 20:04:05:084
-0.6141;-17.0255;8.2801;1.6481;-9.6382;-0.748;4.9123;-2.745;-3.2699;-3.5809;-0.2921;-1.3918;0.0;13.8;36.3;-7.41;358.47;79.36;-114.41;0.0;979.26;46.687;35.95225;-83.93311;790.9;NaN;;4.21;12.226105;54.4;14 / 19;85524;2022-10-17 20:04:05:584
-5.2537;-4.7498;4.1967;2.907;-9.352;-0.5094;-5.113;-0.9083;2.1202;0.5283;1.3329;1.6267;0.0;5.85;38.61;5.31;19.81;72.49;-99.94;0.0;978.05;53.091;35.95225;-83.93311;790.9;NaN;;4.21;12.226105;54.4;14 / 19;86023;2022-10-17 20:04:06:083
3.4056;-11.7993;-4.8781;0.9305;-9.7566;0.3356;-0.0753;-5.1875;2.4784;-3.0894;0.1017;-1.4705;1.0;12.11;37.28;-7.18;305.76;65.45;3.87;0.0;979.21;50.331;35.95226;-83.933105;791.21;NaN;;4.14;12.226105;47.7;14 / 19;86524;2022-10-17 20:04:06:584
-3.7816;-17.9067;3.4582;2.6001;-9.4526;0.2432;7.8104;-8.205;-2.3255;0.1281;1.4897;-0.4642;0.0;5.29;37.99;7.99;25.62;74.56;-84.66;0.0;977.97;48.135;35.95226;-83.933105;791.21;NaN;;4.14;12.226105;47.7;14 / 19;87024;2022-10-17 20:04:07:084
-2.5029;-12.8659;5.8992;0.911;-9.702;1.1006;3.8933;-4.9568;-3.857;-1.5606;0.8266;-1.0521;1.0;11.85;37.09;-5.04;306.35;81.62;-39.62;0.0;979.08;46.302;35.952267;-83.93309;794.14;NaN;;4.18;12.226105;54.5;15 / 19;87524;2022-10-17 20:04:07:584
-4.6648;-8.0895;4.5224;2.5003;-9.4796;0.2368;11.2864;-9.0784;-5.1524;-0.3111;1.125;-0.5494;1.0;4.16;37.8;5.49;22.58;76.86;-92.02;0.0;977.96;49.948;35.952267;-83.93309;794.14;NaN;;4.18;12.226105;54.5;15 / 19;88024;2022-10-17 20:04:08:084
-0.9434;-16.13;8.2576;1.5105;-9.6402;-0.9773;5.2618;-5.1028;-4.8872;-2.3093;0.5869;-1.0431;1.0;9.04;35.68;-7.11;309.13;67.2;4.98;0.0;979.1;45.463;35.952267;-83.93309;794.14;NaN;;4.18;12.226105;54.5;15 / 19;88524;2022-10-17 20:04:08:584
0.7798;-12.9383;1.7369;2.4971;-9.4402;-0.9044;8.6208;-10.6801;-9.892;0.76;2.4273;0.9117;0.0;4.8;35.51;4.24;22.85;74.29;-109.91;0.0;977.94;50.808;35.952274;-83.93308;794.03;NaN;;4.32;12.226105;36.2;15 / 19;89023;2022-10-17 20:04:09:083
0.4872;-15.1113;4.6361;1.1217;-9.7422;-0.0408;6.9022;-3.6158;-6.9243;-2.9364;0.7308;-0.9572;0.0;13.89;35.98;-7.44;340.46;83.43;-92.08;0.0;979.18;50.725;35.952274;-83.93308;794.03;NaN;;4.32;12.226105;36.2;15 / 19;89524;2022-10-17 20:04:09:584
-4.2745;-11.2361;0.8587;2.132;-9.5629;0.4203;-6.5233;-1.1493;0.4155;-0.4312;-0.1591;-0.3688;1.0;7.03;40.05;6.64;25.13;75.84;-94.42;0.0;978.26;57.309;35.95228;-83.93307;794.34;NaN;;4.32;12.226105;54.1;15 / 19;90024;2022-10-17 20:04:10:084
-0.7765;-13.7076;8.2439;1.8793;-9.5648;-1.0738;0.8981;-5.8889;0.6561;-3.9897;-0.181;-0.9128;1.0;15.96;40.95;-6.04;6.11;77.25;-119.74;0.0;979.17;61.284;35.95229;-83.93306;792.07;NaN;;4.25;12.226105;37.5;15 / 19;90524;2022-10-17 20:04:10:584
-2.1775;-7.8844;5.1906;1.6667;-9.6556;0.4031;-6.1212;-1.3151;-0.1105;0.615;-1.3079;1.5469;0.0;7.37;43.91;7.74;29.05;77.31;-96.0;0.0;978.24;58.243;35.95229;-83.93306;792.07;NaN;;4.25;12.226105;37.5;15 / 19;91023;2022-10-17 20:04:11:083
-3.5142;-15.8653;5.9722;1.9941;-9.5675;-0.8105;-0.0299;-5.2496;-0.5226;-3.4675;0.5424;-1.0909;0.0;14.12;41.57;-5.76;359.32;77.32;-112.12;0.0;979.34;61.928;35.952297;-83.93304;792.65;NaN;;4.61;12.226105;51.8;14 / 19;91524;2022-10-17 20:04:11:584
-4.716;-12.3347;1.1207;2.8865;-9.3621;-0.436;7.9315;-2.8537;-3.1001;0.1376;0.5824;1.6374;0.0;5.78;43.03;9.09;29.69;72.68;-98.59;0.0;978.27;59.148;35.952297;-83.93304;792.65;NaN;;4.61;12.226105;51.8;14 / 19;92024;2022-10-17 20:04:12:084
0.3165;-15.1484;2.9952;1.3268;-9.7154;0.1415;6.6788;-3.2465;-5.7639;-2.9267;0.9117;-0.8487;0.0;14.42;41.66;-3.99;344.03;82.18;-83.91;0.0;979.22;56.537;35.952305;-83.93303;793.21;NaN;;4.28;12.226105;53.3;14 / 19;92524;2022-10-17 20:04:12:584
-4.5359;-4.5446;2.182;2.4992;-9.4816;-0.1546;-5.9773;-2.7531;1.3917;0.0748;-1.1206;-0.431;0.0;5.89;41.4;8.61;39.29;74.96;-111.15;0.0;978.95;57.415;35.952305;-83.93303;793.21;NaN;;4.28;12.226105;53.3;14 / 19;93023;2022-10-17 20:04:13:083
-1.6795;-18.0826;9.1155;1.3487;-9.6973;0.5598;6.7342;-3.2128;-4.2647;-2.8022;-0.0409;-1.5953;1.0;13.31;41.29;-6.86;323.24;81.44;-67.46;0.0;978.9;51.705;35.952316;-83.93302;792.76;NaN;;4.25;12.226105;47.2;14 / 19;93524;2022-10-17 20:04:13:584
-4.6217;-5.2741;3.6425;2.2904;-9.5344;0.1427;1.6437;-4.5335;-6.6541;0.6747;1.2535;-0.5123;0.0;6.69;40.65;5.27;15.27;76.47;-86.44;0.0;980.07;52.88;35.952316;-83.93302;792.76;NaN;;4.25;12.226105;47.2;14 / 19;94024;2022-10-17 20:04:14:084
-0.3449;-15.5426;4.7617;0.9533;-9.6454;1.4928;3.9268;-2.8758;-4.6187;-1.597;0.0866;-0.596;0.0;12.53;38.25;-7.84;303.56;65.5;-1.23;0.0;978.92;49.805;35.952324;-83.933014;792.58;NaN;;4.18;12.226105;41.0;13 / 19;94524;2022-10-17 20:04:14:584
-5.6201;-3.3577;6.5408;2.5463;-9.4679;0.2149;-5.5509;-0.8698;2.1536;-0.2114;1.524;-0.6293;0.0;7.29;39.36;5.51;23.11;76.64;-94.61;0.0;979.6;43.091;35.952324;-83.933014;792.58;NaN;;4.18;12.226105;41.0;13 / 19;95024;2022-10-17 20:04:15:084
6.6413;-16.4115;-6.0547;0.8004;-9.5549;2.0577;5.1138;-2.4763;-1.7888;-0.7542;0.3528;-0.5766;0.0;14.78;37.78;-7.76;291.32;76.99;-21.26;0.0;978.86;48.208;35.952335;-83.93301;791.0;NaN;;4.39;12.226105;26.6;13 / 19;95524;2022-10-17 20:04:15:584
-2.8992;-4.1453;6.8913;2.8557;-9.3552;-0.7043;-1.098;0.1475;1.962;-0.3068;1.6546;-0.8013;1.0;8.57;39.3;3.38;16.27;75.74;-103.87;0.0;979.84;45.998;35.952335;-83.93301;791.0;NaN;;4.39;12.226105;26.6;13 / 19;96023;2022-10-17 20:04:16:083
1.5239;-16.4821;3.6858;0.1338;-9.53;2.3089;1.0011;0.1412;-3.2117;-3.2292;0.2536;-1.1365;0.0;12.86;38.87;-4.82;290.94;76.36;-3.32;0.0;978.84;66.511;35.952335;-83.93301;791.0;NaN;;4.39;12.226105;26.6;12 / 19;96524;2022-10-17 20:04:16:584
1.0624;-9.4513;5.5639;2.9692;-9.3456;-0.1219;13.7104;-8.2931;-5.7337;-0.2243;-2.1567;-0.1751;0.0;5.25;39.45;7.44;23.82;72.36;-92.35;0.0;980.53;53.087;35.952343;-83.933;790.08;NaN;;4.25;12.226105;40.4;12 / 19;97024;2022-10-17 20:04:17:084
4.0101;-13.075;-6.2106;1.5139;-9.6874;0.1828;3.3978;-3.2612;-6.2736;-3.386;0.4248;-1.6413;0.0;12.84;38.04;-5.44;340.15;81.05;-83.11;0.0;978.58;56.125;35.95235;-83.93299;789.79;NaN;;4.25;12.226105;42.7;12 / 19;97524;2022-10-17 20:04:17:584
-5.9399;-6.0888;3.9879;2.9244;-9.3529;0.3758;1.3106;-0.9405;0.6243;0.8217;2.3106;1.033;0.0;5.64;39.56;4.89;12.9;72.5;-82.68;0.0;978.09;52.733;35.95235;-83.93299;789.79;NaN;;4.25;12.226105;42.7;12 / 19;98024;2022-10-17 20:04:18:084
-1.343;-16.8015;6.0814;2.3865;-9.48;-0.7774;0.3383;-6.4112;4.1053;-3.1454;0.1868;-1.1285;1.0;13.84;38.68;-6.02;300.79;69.32;-1.08;0.0;978.97;57.245;35.95235;-83.93299;789.79;NaN;;4.25;12.226105;42.7;12 / 19;98523;2022-10-17 20:04:18:583
-4.8517;-6.9996;4.1997;2.3718;-9.5143;0.1494;-7.9075;0.7326;1.5676;-0.9535;-0.1393;-0.5516;0.0;7.03;41.72;5.94;23.26;73.69;-102.36;0.0;978.31;38.893;35.95236;-83.93298;790.1;NaN;;4.21;12.226105;44.3;12 / 19;99023;2022-10-17 20:04:19:083
1.1518;-15.2378;6.3191;1.5063;-9.661;-0.7532;5.7567;-4.8048;-5.4109;-3.5722;-1.3865;-1.2721;0.0;13.89;40.52;-7.76;299.07;67.44;4.04;0.0;978.91;39.114;35.952374;-83.932976;790.09;NaN;;4.25;12.226105;39.0;13 / 19;99524;2022-10-17 20:04:19:584
-4.4106;-6.0162;5.5196;2.6218;-9.4495;0.061;0.9501;-3.1237;0.2828;0.8923;1.1397;1.0002;0.0;7.43;42.38;2.29;6.1;77.26;-87.78;0.0;979.11;49.019;35.952374;-83.932976;790.09;NaN;;4.25;12.226105;39.0;13 / 19;100024;2022-10-17 20:04:20:084
8.2427;-12.9024;-2.7203;1.5234;-9.6739;0.5152;6.7596;-2.859;-4.5;-2.5711;-0.0742;-1.653;0.0;15.81;38.36;-15.52;308.49;80.56;-71.32;0.0;978.92;43.113;35.95238;-83.93296;791.39;NaN;;4.61;12.226105;50.7;14 / 19;100524;2022-10-17 20:04:20:584
-1.4782;-6.274;3.9455;2.8754;-9.2452;-1.5584;4.5393;-10.0403;-5.2112;0.745;3.5323;-0.5827;0.0;9.43;42.26;-1.88;10.86;74.77;-126.07;0.0;978.32;43.96;35.95238;-83.93296;791.39;NaN;;4.61;12.226105;50.7;14 / 19;101024;2022-10-17 20:04:21:084
-0.5746;-16.0041;3.4146;1.6103;-9.6664;-0.3719;6.8858;-3.9843;-6.1273;-3.4029;-0.1357;-1.8106;0.0;14.16;39.3;-11.87;282.61;67.57;3.84;0.0;978.92;44.111;35.95239;-83.93295;792.17;NaN;;4.32;12.226105;46.8;13 / 19;101523;2022-10-17 20:04:21:583
-5.6608;-10.8275;-0.818;2.932;-9.3153;-0.8937;2.2792;-1.2223;1.8101;0.3673;-1.1804;-0.1628;0.0;7.58;40.29;1.89;13.89;77.5;-104.16;0.0;979.42;52.182;35.95239;-83.93295;792.17;NaN;;4.32;12.226105;46.8;13 / 19;102023;2022-10-17 20:04:22:083
4.8084;-14.8442;-5.6961;1.0817;-9.6528;1.3503;5.8928;-4.3617;-2.1591;-1.6044;-0.3307;-1.0596;0.0;13.67;36.66;-11.02;290.6;79.84;-38.7;0.0;978.86;57.609;35.95239;-83.93295;792.17;NaN;;4.32;12.226105;46.8;13 / 19;102525;2022-10-17 20:04:22:585
-0.4463;-12.0814;1.413;2.8841;-9.336;-0.8309;7.1769;-8.4621;-6.5733;0.01;1.6378;-0.4381;0.0;11.03;37.26;-1.33;7.01;76.34;-107.55;0.0;979.75;42.135;35.9524;-83.932945;792.75;NaN;;4.36;12.226105;41.3;13 / 19;103024;2022-10-17 20:04:23:084
4.9926;-12.379;-2.4619;1.0019;-9.6413;1.4875;4.8438;-2.3748;-4.8612;-1.5617;0.6643;-0.5708;0.0;18.04;34.59;-7.65;289.55;67.08;-0.55;0.0;978.88;48.781;35.952408;-83.93294;793.88;NaN;;4.18;12.226105;50.3;13 / 19;103523;2022-10-17 20:04:23:583
3.7301;-14.8286;-0.7223;2.8731;-9.3419;-0.8026;8.6727;-8.6254;-7.4472;0.0019;-0.119;-0.1875;0.0;10.88;40.61;3.36;15.02;72.29;-105.61;0.0;979.45;50.331;35.952408;-83.93294;793.88;NaN;;4.18;12.226105;50.3;13 / 19;104024;2022-10-17 20:04:24:084
2.7353;-15.4639;-0.7747;1.379;-9.702;0.3739;7.2343;-2.887;-4.6342;-2.7616;-0.3022;-1.8142;0.0;18.09;38.57;-8.64;285.98;66.87;8.36;0.0;978.89;48.557;35.952415;-83.93293;795.32;NaN;;4.25;12.226105;59.4;13 / 19;104524;2022-10-17 20:04:24:584
-1.034;-9.8548;1.3914;2.8824;-9.2873;-1.2679;7.295;-12.1582;-5.182;2.2831;0.519;0.4357;0.0;10.43;42.17;2.98;17.87;71.27;-113.74;0.0;980.04;44.722;35.952415;-83.93293;795.32;NaN;;4.25;12.226105;59.4;13 / 19;105023;2022-10-17 20:04:25:083
7.672;-14.0213;-5.0381;0.9184;-9.6145;1.6998;4.1405;-1.8354;-4.851;-1.2567;0.4121;-0.5183;1.0;16.84;39.98;-8.96;292.69;78.64;-28.38;0.0;978.84;56.304;35.952423;-83.93292;795.1;NaN;;4.43;12.226105;44.5;13 / 19;105524;2022-10-17 20:04:25:584
5.8367;-8.6055;1.0056;2.6116;-9.4309;-0.6385;9.0337;-10.8955;-9.8435;0.0814;1.1688;-0.7852;0.0;10.89;40.14;2.1;19.95;75.9;-116.46;0.0;980.14;54.969;35.952423;-83.93292;795.1;NaN;;4.43;12.226105;44.5;13 / 19;106026;2022-10-17 20:04:26:086
7.3313;-13.5506;-3.6159;0.2484;-9.2963;3.1126;1.4507;-1.5499;-3.0048;0.3354;-0.3458;0.5379;0.0;12.0;38.08;-6.45;304.95;69.77;-6.43;0.0;978.78;48.892;35.95243;-83.932915;795.15;NaN;;4.39;12.226105;41.8;13 / 19;106524;2022-10-17 20:04:26:584
-1.768;-13.634;-0.1711;2.1384;-9.5492;-0.6414;0.8094;0.2711;-6.269;1.92;0.7232;0.2003;0.0;9.17;37.52;2.74;18.62;76.84;-106.7;0.0;980.02;42.121;35.95243;-83.932915;795.15;NaN;;4.39;12.226105;41.8;13 / 19;107023;2022-10-17 20:04:27:083
6.7917;-15.2031;-6.1047;1.1858;-9.6604;1.2006;4.5457;-2.7411;-3.3295;-1.7394;0.2632;-0.8483;0.0;12.17;36.28;-3.79;299.39;75.43;-8.88;0.0;978.72;47.113;35.95244;-83.9329;795.77;NaN;;4.28;12.226105;48.2;13 / 19;107524;2022-10-17 20:04:27:584
3.6302;-13.0522;-1.0409;2.5629;-9.3852;-1.2331;7.6216;-9.299;-7.4621;2.5855;0.7571;0.5388;0.0;10.31;35.98;1.28;19.86;74.9;-122.07;0.0;979.85;44.053;35.95244;-83.9329;795.77;NaN;;4.28;12.226105;48.2;13 / 19;108024;2022-10-17 20:04:28:084
8.5391;-11.7215;-2.9387;-0.21;-9.3704;2.8848;1.1623;-2.0588;-3.2102;-0.0969;0.2057;0.5085;0.0;13.89;35.61;-7.93;290.89;69.28;-0.52;0.0;978.77;46.546;35.952454;-83.932884;796.07;NaN;;4.25;12.226105;44.1;12 / 19;108524;2022-10-17 20:04:28:584
6.8797;-17.863;-10.261;1.6214;-9.5509;-1.5238;-2.9097;6.6741;-0.0239;0.3621;-0.8592;-0.4022;0.0;11.18;36.32;-0.15;24.92;65.01;-149.13;0.0;979.35;42.494;35.952454;-83.932884;796.07;NaN;;4.25;12.226105;44.1;12 / 19;109024;2022-10-17 20:04:29:084
0.0021;-10.3161;0.1923;0.3854;-9.2996;3.0885;3.122;1.3081;-1.9249;1.32;1.2091;0.0728;0.0;13.52;35.01;-9.34;285.93;71.5;-7.11;0.0;978.8;41.177;35.95246;-83.93288;796.55;NaN;;4.21;12.226105;44.9;12 / 19;109523;2022-10-17 20:04:29:583
10.9008;-12.3858;-1.2045;2.0464;-9.5898;0.1367;-5.2924;7.2617;1.1852;2.3739;0.0734;1.1083;0.0;11.06;36.26;-4.61;342.31;77.93;-86.18;0.0;978.94;45.911;35.95246;-83.93288;796.55;NaN;;4.21;12.226105;44.9;12 / 19;110024;2022-10-17 20:04:30:084
5.0578;-11.7933;-1.4512;-0.3765;-9.1413;3.5306;-0.3759;-1.0073;-2.3741;0.6358;-0.3048;0.8681;0.0;14.19;36.11;-11.66;274.33;71.5;-4.53;0.0;979.22;45.256;35.95247;-83.93287;795.91;NaN;;4.18;12.226105;38.2;12 / 19;110523;2022-10-17 20:04:30:583
8.0501;-15.9697;-7.7907;2.3078;-9.5167;-0.5254;-4.3999;7.103;-0.1145;0.5046;-2.0409;0.2543;0.0;10.97;38.44;-4.41;8.84;65.02;-130.2;0.0;979.2;41.563;35.95247;-83.93287;795.91;NaN;;4.18;12.226105;38.2;12 / 19;111024;2022-10-17 20:04:31:084
-0.9532;-9.8414;0.5602;-0.0118;-9.0002;3.8945;0.5917;0.4438;-2.2351;1.1556;1.4776;-0.0356;0.0;8.48;41.66;-6.96;300.33;75.78;-13.3;0.0;979.63;47.933;35.952473;-83.93286;796.96;NaN;;4.36;12.226105;51.7;12 / 19;111524;2022-10-17 20:04:31:584
-1.7961;-2.3342;1.555;2.204;-9.3678;-1.8861;-3.9177;6.6061;4.3934;2.6384;0.3284;0.5721;0.0;14.03;38.87;-7.99;5.76;68.54;-130.21;0.0;979.35;48.057;35.952473;-83.93286;796.96;NaN;;4.36;12.226105;51.7;12 / 19;112024;2022-10-17 20:04:32:084
1.4946;-8.7036;2.38;0.4921;-9.5731;2.0698;1.7477;-3.4656;-0.2553;0.974;1.5764;-0.4273;1.0;9.68;42.23;-0.22;319.45;77.47;-13.37;0.0;978.64;50.328;35.952473;-83.93286;796.96;NaN;;4.36;12.226105;51.7;12 / 19;112524;2022-10-17 20:04:32:584
-3.1316;-2.1245;3.0993;2.7277;-8.9493;-2.9393;0.3239;0.1141;3.856;-1.5161;-1.1654;-1.4944;0.0;12.45;40.09;0.77;22.27;65.86;-137.14;0.0;979.52;53.613;35.952484;-83.932846;795.43;NaN;;4.36;12.226105;22.5;12 / 19;113023;2022-10-17 20:04:33:083
2.5014;-8.7027;2.1852;0.3255;-9.3693;2.8778;5.4002;0.8835;-4.5226;0.8547;1.1468;0.1394;0.0;9.77;41.33;4.03;330.81;72.82;-6.45;0.0;978.28;55.878;35.952484;-83.932846;795.43;NaN;;4.36;12.226105;22.5;12 / 19;113523;2022-10-17 20:04:33:583
-2.4126;-2.5152;3.1839;2.7642;-8.8743;-3.1268;-0.9553;0.5928;5.2308;-0.8337;-0.5367;-1.8013;0.0;12.39;39.56;1.14;22.3;64.81;-138.52;0.0;979.33;50.314;35.952496;-83.932846;794.58;NaN;;4.07;12.226105;27.7;12 / 19;114024;2022-10-17 20:04:34:084
4.2547;-7.5613;-1.3831;0.4588;-9.5692;2.0954;4.3717;-4.5114;0.1219;2.4233;0.5394;0.8162;1.0;9.98;40.2;4.99;330.86;77.37;-12.35;0.0;977.73;45.865;35.952503;-83.93284;795.03;NaN;;3.89;12.226105;37.6;12 / 19;114524;2022-10-17 20:04:34:584
2.7864;-10.1357;0.213;3.0121;-9.2313;-1.3712;-5.3346;-3.8943;5.6068;-1.1412;-1.7111;-1.9071;0.0;15.15;38.61;-1.33;11.36;70.28;-114.48;0.0;978.96;46.207;35.952503;-83.93284;795.03;NaN;;3.89;12.226105;37.6;12 / 19;115023;2022-10-17 20:04:35:083
-0.8477;-13.7806;6.9685;2.5135;-9.4774;-0.1797;-8.1916;-3.3804;-1.3417;0.5367;1.0823;1.6114;1.0;7.37;41.01;5.94;21.03;75.11;-94.09;0.0;978.29;46.026;35.95251;-83.93283;796.31;NaN;;4.1;12.226105;37.4;12 / 18;115524;2022-10-17 20:04:35:584
0.2393;-10.7758;0.3694;1.6789;-9.6511;-0.4562;-0.3267;-4.9093;1.2843;-3.016;0.711;-1.1666;0.0;15.81;39.04;-4.44;0.83;79.78;-105.2;0.0;978.65;56.441;35.95251;-83.93283;796.31;NaN;;4.1;12.226105;37.4;12 / 18;116024;2022-10-17 20:04:36:084
-1.6379;-12.9093;6.9356;0.9903;-9.7488;0.3868;-6.8697;4.0332;2.9163;0.2219;1.3429;1.477;0.0;6.88;40.01;9.6;25.12;83.78;-68.67;0.0;980.59;52.436;35.952515;-83.932816;799.74;NaN;;4.43;12.226105;57.7;12 / 19;116524;2022-10-17 20:04:36:584
-1.6935;-13.8529;3.7528;2.2234;-9.5215;-0.7537;-3.2678;-6.3949;6.9603;-3.058;-0.803;-1.8771;0.0;14.18;39.08;-2.96;301.27;78.15;-14.85;0.0;978.86;48.589;35.952515;-83.932816;799.74;NaN;;4.43;12.226105;57.7;12 / 19;117024;2022-10-17 20:04:37:084
-3.3368;-6.1822;5.3426;1.7999;-9.6401;-8.0E-4;-7.9518;0.8931;1.9705;0.4626;2.3008;0.1586;0.0;5.21;40.37;10.05;39.23;79.42;-90.03;0.0;980.24;51.362;35.952515;-83.932816;799.74;NaN;;4.43;12.226105;57.7;12 / 19;117524;2022-10-17 20:04:37:584
-0.0206;-16.5206;5.6719;1.4511;-9.6774;-0.6429;4.498;-4.3211;-5.2558;-2.6454;1.2451;-0.947;0.0;12.69;41.03;-3.75;4.61;80.69;-113.89;0.0;978.89;48.713;35.952522;-83.9328;800.41;NaN;;4.25;12.226105;52.9;12 / 19;118024;2022-10-17 20:04:38:084
-6.0003;-12.2752;-0.6347;2.5481;-9.4361;-0.7984;8.7288;-10.6003;-9.7608;0.1523;2.0378;-0.036;0.0;1.74;41.34;8.74;41.42;74.2;-107.4;0.0;980.06;44.468;35.95253;-83.932785;801.48;NaN;;4.32;12.226105;63.6;12 / 19;118524;2022-10-17 20:04:38:584
2.8256;-15.8243;1.9002;0.3126;-9.4949;2.433;3.625;-1.9357;-3.1968;-2.9438;-0.7002;-1.8674;0.0;10.91;42.32;-10.33;280.51;75.51;-7.32;0.0;979.54;43.832;35.95253;-83.932785;801.48;NaN;;4.32;12.226105;63.6;12 / 19;119024;2022-10-17 20:04:39:084
-2.828;-12.9392;1.3152;2.9485;-9.3334;-0.603;7.6028;-5.3466;-4.5076;-0.2688;-0.3344;-0.5401;0.0;-1.82;54.86;6.45;21.55;72.13;-101.56;0.0;979.0;43.888;35.95253;-83.932785;801.48;NaN;;4.32;12.226105;63.6;12 / 19;119524;2022-10-17 20:04:39:584
6.9368;-14.799;-5.6219;1.3577;-9.6938;0.5972;3.9322;-2.8713;-4.0381;0.4649;0.2369;0.3867;0.0;-1.41;53.79;-2.66;338.89;81.3;-66.26;0.0;979.15;54.06;35.952538;-83.93278;801.55;NaN;;3.92;12.226105;51.3;12 / 19;120024;2022-10-17 20:04:40:084
-4.3819;-13.0391;-0.4621;3.1644;-9.2819;-0.0522;10.1582;-3.1255;-1.755;-0.4101;-0.2045;-0.6709;0.0;-1.12;44.03;5.42;29.53;77.69;-83.37;0.0;979.1;44.465;35.952545;-83.93276;801.53;NaN;;5.29;12.226105;67.2;11 / 19;120524;2022-10-17 20:04:40:584
2.179;-11.8546;-0.8115;0.1837;-9.4264;2.698;4.3979;-2.1338;-4.2985;-2.8571;-0.7778;-2.0488;0.0;6.98;39.24;-2.62;330.69;66.95;5.33;0.0;979.38;58.317;35.952545;-83.93276;801.53;NaN;;5.29;12.226105;67.2;11 / 19;121023;2022-10-17 20:04:41:083
9.079;-17.0632;-7.4477;1.5981;-9.6046;-1.1697;-5.0492;8.8911;3.9713;-0.379;-0.9359;-0.5902;1.0;7.91;36.39;5.29;39.3;78.35;-126.2;0.0;979.06;50.517;35.952553;-83.93275;803.52;NaN;;5.83;12.226105;61.7;11 / 19;121524;2022-10-17 20:04:41:584
8.8726;-13.2467;-5.4398;-0.1714;-8.8727;4.1732;-1.4499;-0.0641;-4.7623;-0.3357;0.5284;0.1462;0.0;11.06;35.89;-3.19;318.33;64.79;2.35;0.0;978.87;57.176;35.952553;-83.93275;803.52;NaN;;5.83;12.226105;61.7;11 / 19;122024;2022-10-17 20:04:42:084
12.3147;-17.5505;-5.4972;2.3093;-9.4981;-0.7893;3.6917;-5.449;-7.8055;1.0339;0.3411;-0.0758;0.0;7.13;37.09;4.09;22.83;75.59;-108.87;0.0;979.41;42.021;35.95256;-83.93273;801.92;NaN;;4.82;12.226105;49.0;11 / 19;122524;2022-10-17 20:04:42:584
2.3453;-10.9992;0.2432;-0.4622;-8.9634;3.9514;-0.7491;-0.8709;-3.6201;1.4711;1.4344;-0.0941;0.0;10.28;37.09;-3.73;313.11;71.02;-9.39;0.0;978.74;52.075;35.95256;-83.93273;801.92;NaN;;4.82;12.226105;49.0;11 / 19;123024;2022-10-17 20:04:43:084
2.1532;-8.6354;-6.0482;2.1284;-9.5081;-1.1117;-6.1137;8.9186;3.7422;1.8923;-0.5271;0.5986;0.0;8.16;37.28;2.48;20.01;75.83;-117.58;0.0;979.54;44.471;35.95256;-83.93273;801.92;NaN;;4.82;12.226105;49.0;11 / 19;123524;2022-10-17 20:04:43:584
2.8149;-9.1418;2.4906;0.1805;-9.0541;3.7632;2.009;0.3471;-1.4712;0.8994;1.1889;0.6309;0.0;9.96;38.57;-3.15;321.33;67.41;-2.75;0.0;978.71;46.413;35.952568;-83.93272;801.96;NaN;;4.28;12.226105;38.2;11 / 19;124023;2022-10-17 20:04:44:083
-4.3202;-1.395;3.6736;3.2997;-8.8756;-2.5508;-2.3871;-1.432;0.7391;1.9603;-0.3748;0.8647;1.0;13.26;38.21;-2.91;1.89;77.52;-106.0;0.0;979.28;41.995;35.95257;-83.93271;803.3;NaN;;4.25;12.226105;52.3;11 / 19;124524;2022-10-17 20:04:44:584
-0.9939;-9.7699;0.9574;0.4416;-9.355;2.9085;5.695;0.8737;-4.5669;1.6617;1.0391;-0.0913;1.0;7.59;39.17;3.99;350.88;81.16;-48.33;0.0;978.9;44.502;35.95257;-83.93271;803.3;NaN;;4.25;12.226105;52.3;11 / 19;125024;2022-10-17 20:04:45:084
-2.9163;-2.2262;2.6417;2.5232;-9.2577;-2.0246;-2.8781;4.8282;3.9971;-0.0179;-2.1591;-0.03;0.0;13.01;36.86;-2.1;13.61;70.35;-124.49;0.0;979.03;41.573;35.952576;-83.9327;800.83;NaN;;4.25;12.226105;43.6;11 / 19;125523;2022-10-17 20:04:45:583
1.8239;-8.8451;2.0306;0.8274;-9.2719;3.0851;3.8916;1.6375;-6.4885;3.2744;-1.6531;1.3636;0.0;10.03;37.76;-0.28;336.56;81.76;-54.25;0.0;979.66;47.694;35.952576;-83.9327;800.83;NaN;;4.25;12.226105;43.6;11 / 19;126024;2022-10-17 20:04:46:084
-0.233;-4.6792;1.8197;3.1298;-8.9045;-2.6616;0.1373;-0.2649;3.4633;-1.3765;-1.349;-1.5724;1.0;12.56;36.53;-2.81;13.15;65.23;-130.38;0.0;978.8;47.657;35.952583;-83.932686;798.84;NaN;;4.25;12.226105;54.3;11 / 19;126524;2022-10-17 20:04:46:584
-1.6711;-12.4376;4.71;0.7998;-9.4649;2.4385;-1.6359;-2.882;1.8584;1.0358;1.4766;0.2623;0.0;9.08;39.26;1.59;331.74;74.83;-18.16;0.0;978.7;51.261;35.952583;-83.932686;798.84;NaN;;4.25;12.226105;54.3;11 / 19;127024;2022-10-17 20:04:47:084
2.1628;-10.4264;-0.6547;2.3655;-9.4945;-0.6555;-0.244;-5.9043;2.501;-1.3559;-2.2132;-1.7078;0.0;13.65;37.11;-3.88;359.71;75.5;-105.49;0.0;979.0;44.391;35.952583;-83.932686;798.84;NaN;;4.25;12.226105;54.3;11 / 19;127524;2022-10-17 20:04:47:584
1.3307;-12.6368;3.0135;1.0932;-9.5685;1.849;-4.3408;1.3815;1.432;2.0527;-0.3037;1.1621;0.0;7.13;39.08;2.55;342.8;77.35;-30.59;0.0;978.62;45.056;35.952587;-83.93268;799.02;NaN;;3.96;12.226105;46.0;11 / 19;128024;2022-10-17 20:04:48:084
-0.1786;-4.3552;3.0625;3.0195;-8.9355;-2.685;-0.0567;-1.13;3.2578;-1.4053;-1.5197;-1.7454;1.0;14.44;37.03;-6.69;3.44;77.35;-121.71;0.0;979.0;48.164;35.952595;-83.93267;796.02;NaN;;3.96;12.226105;33.7;11 / 19;128525;2022-10-17 20:04:48:585
6.0359;-9.5219;0.5934;0.3079;-9.3928;2.8019;0.8279;-1.2041;-1.9949;1.0454;-0.3417;1.8748;1.0;7.5;37.95;4.46;357.87;75.97;-59.17;0.0;978.75;58.993;35.952595;-83.93267;796.02;NaN;;3.96;12.226105;33.7;11 / 19;129024;2022-10-17 20:04:49:084
0.3401;-6.7451;2.8445;2.8777;-8.867;-3.0441;-1.0743;-1.5855;3.5174;-1.4983;-2.1345;-1.8902;1.0;15.6;35.08;-5.02;2.99;78.31;-111.55;0.0;978.6;50.068;35.952602;-83.932655;795.34;NaN;;4.28;12.226105;43.4;11 / 19;129524;2022-10-17 20:04:49:584
-1.3971;-15.0766;4.407;0.4751;-9.4137;2.707;-0.7743;-5.3166;1.4464;0.9982;2.1567;-0.0065;0.0;9.47;37.8;0.69;326.41;73.72;-9.95;0.0;978.63;46.937;35.952602;-83.932655;795.34;NaN;;4.28;12.226105;43.4;11 / 19;130024;2022-10-17 20:04:50:084
1.6878;-7.0436;2.56;2.6721;-9.3604;-1.1889;-5.267;-5.8509;10.4393;-0.7591;-2.5696;-0.3412;0.0;13.99;36.0;-2.59;6.98;72.65;-113.99;0.0;978.74;44.421;35.952602;-83.932655;795.34;NaN;;4.28;12.226105;43.4;11 / 19;130523;2022-10-17 20:04:50:583
3.4693;-7.6992;3.4289;0.6625;-9.5706;2.0335;-1.6881;-5.2265;2.6389;0.9514;1.0068;0.1035;0.0;9.88;38.38;2.16;8.49;73.68;-95.74;0.0;978.67;44.74;35.952614;-83.93265;792.22;NaN;;4.32;12.226105;30.5;11 / 19;131024;2022-10-17 20:04:51:084
2.6133;-7.4731;2.1173;3.0452;-8.9401;-2.6405;-4.0327;-1.519;2.0057;-1.6459;-0.7673;-1.1578;1.0;13.95;35.79;-4.14;5.82;77.25;-114.79;0.0;979.02;42.451;35.95262;-83.93264;791.24;NaN;;4.36;12.226105;47.3;11 / 19;131523;2022-10-17 20:04:51:583
-0.1845;-11.4957;3.1292;0.7333;-9.4985;2.3261;-0.0854;-1.5588;0.6665;0.8144;0.119;1.1831;1.0;7.35;38.31;6.04;14.15;76.48;-76.82;0.0;978.57;45.288;35.95262;-83.93264;791.24;NaN;;4.36;12.226105;47.3;11 / 19;132024;2022-10-17 20:04:52:084
2.1837;-10.2963;-1.1171;3.0049;-9.173;-1.7313;-4.5329;-2.729;7.6585;-0.4686;-0.113;-1.3983;1.0;14.23;37.63;-7.65;339.84;81.29;-92.72;0.0;979.07;43.899;35.952625;-83.932625;792.44;NaN;;4.07;12.226105;58.8;11 / 19;132523;2022-10-17 20:04:52:583
-3.7403;-3.984;5.5714;0.9032;-9.664;1.4007;-4.1736;5.204;4.6006;2.3299;-0.8685;1.7982;0.0;7.52;40.33;4.59;15.16;71.53;-93.04;0.0;978.1;44.468;35.952625;-83.932625;792.44;NaN;;4.07;12.226105;58.8;11 / 19;133024;2022-10-17 20:04:53:084
-0.6655;-12.1274;-0.1427;1.7653;-9.6206;-0.7053;3.9019;-5.0169;-3.7786;-1.8928;-0.8475;-1.4485;0.0;14.12;39.9;-5.38;305.29;67.65;4.4;0.0;979.06;43.262;35.952633;-83.93261;791.3;NaN;;4.18;12.226105;53.6;11 / 18;133523;2022-10-17 20:04:53:583
0.2414;-10.619;2.5678;0.7104;-9.6576;1.5478;-3.9725;2.4315;2.495;1.8178;-0.5311;1.0584;1.0;5.29;40.48;9.79;40.0;77.28;-96.63;0.0;978.46;47.649;35.952633;-83.93261;791.3;NaN;;4.18;12.226105;53.6;11 / 18;134024;2022-10-17 20:04:54:084
-0.1522;-5.3686;2.5914;2.8186;-9.0686;-2.4467;-0.6136;-1.8348;1.8595;-1.2277;-1.4788;-1.5333;1.0;12.81;38.83;-0.84;18.19;78.24;-123.22;0.0;979.08;48.116;35.952637;-83.9326;792.37;NaN;;4.18;12.226105;53.6;11 / 18;134524;2022-10-17 20:04:54:584
5.2472;-9.4349;-2.7057;0.1971;-9.5646;2.1565;0.0343;-4.3775;3.2454;0.3354;0.2918;1.5432;1.0;7.39;40.46;5.57;22.75;78.64;-91.1;0.0;978.48;48.412;35.952637;-83.9326;792.37;NaN;;4.18;12.226105;53.6;11 / 18;135024;2022-10-17 20:04:55:084
3.1167;-9.7268;0.6096;2.5987;-9.3467;-1.4338;-5.5415;-4.5591;8.0421;-0.8327;-0.2078;-1.1058;0.0;14.42;38.64;-3.71;7.34;72.38;-118.89;0.0;978.93;46.55;35.952644;-83.932594;790.34;NaN;;4.25;12.226105;43.7;11 / 18;135523;2022-10-17 20:04:55:583
-5.0049;-2.7051;6.3661;1.0819;-9.6433;1.4164;-5.5443;6.2491;4.3645;2.8616;-2.2436;1.8866;0.0;6.45;41.66;3.94;350.73;79.53;-37.37;0.0;978.31;41.875;35.952644;-83.932594;790.34;NaN;;4.25;12.226105;43.7;11 / 18;136024;2022-10-17 20:04:56:084
-0.891;-12.7487;4.1094;1.6231;-9.6663;-0.3143;5.7107;-4.2288;-6.1355;-0.9855;0.1489;-1.5825;0.0;14.59;39.39;-7.18;349.82;80.29;-100.96;0.0;978.85;53.599;35.952644;-83.932594;790.34;NaN;;4.25;12.226105;43.7;11 / 18;136524;2022-10-17 20:04:56:584
2.5938;-13.1378;2.8899;1.7909;-9.6404;-0.1624;-7.915;1.4737;2.6119;1.4602;-1.1966;1.9892;0.0;5.25;41.4;8.59;39.03;79.43;-95.18;0.0;978.02;47.016;35.952652;-83.93258;788.23;NaN;;4.25;12.226105;41.1;11 / 18;137024;2022-10-17 20:04:57:084
-0.708;-11.1398;1.5981;2.3795;-9.4055;-1.4298;-4.7649;-6.0104;9.1171;-2.007;0.608;-0.8963;0.0;12.3;39.69;-5.04;312.53;66.79;1.47;0.0;979.09;41.824;35.952652;-83.93258;788.23;NaN;;4.25;12.226105;41.1;11 / 18;137524;2022-10-17 20:04:57:584
-3.1971;-8.1123;4.2425;1.7977;-9.6372;0.2503;-8.3049;2.7589;1.7716;-0.5687;0.4368;-0.8472;1.0;5.68;38.59;8.81;34.44;73.64;-102.6;0.0;978.07;46.515;35.952656;-83.93257;787.12;NaN;;4.21;12.226105;46.2;11 / 18;138023;2022-10-17 20:04:58:083
-2.7072;-16.6262;5.648;1.3722;-9.6425;1.1442;5.9164;-2.9841;-2.4369;-3.4973;0.3199;-1.293;0.0;13.22;37.29;-7.16;311.57;79.5;-50.18;0.0;979.02;43.577;35.952663;-83.93255;787.08;NaN;;4.21;12.226105;56.5;11 / 18;138526;2022-10-17 20:04:58:586
3.7304;-9.3586;0.9392;2.9615;-9.3373;-0.4635;-1.9136;-0.8309;1.3263;0.2718;2.6496;1.1036;0.0;5.19;38.31;6.15;27.82;74.47;-104.55;0.0;978.39;48.481;35.952663;-83.93255;787.08;NaN;;4.21;12.226105;56.5;11 / 18;139024;2022-10-17 20:04:59:084
7.3863;-13.9466;-5.7622;-0.1781;-9.113;3.6183;0.0;-1.064;-3.2058;-3.1607;-0.8094;-1.5277;0.0;12.3;37.09;-5.48;305.84;68.32;2.82;0.0;978.76;44.561;35.952667;-83.93254;787.22;NaN;;4.0;12.226105;65.6;11 / 18;139524;2022-10-17 20:04:59:584
-6.1226;-8.6614;0.7286;2.7869;-9.3847;-0.5755;10.7886;-8.3235;-7.2433;-0.3445;0.9507;-0.9935;0.0;5.55;37.76;5.61;24.59;73.13;-101.67;0.0;979.59;43.708;35.952667;-83.93254;787.22;NaN;;4.0;12.226105;65.6;11 / 18;140024;2022-10-17 20:05:00:084
5.9423;-13.4234;-6.1944;1.3567;-9.6789;0.8051;6.6545;-2.4519;-3.4854;-1.9526;0.0271;-1.2354;1.0;12.81;36.56;-5.91;299.12;68.44;5.47;0.0;978.66;42.391;35.952675;-83.932526;787.47;NaN;;4.21;12.226105;52.4;11 / 18;140524;2022-10-17 20:05:00:584
4.5924;-9.0939;0.7005;2.8978;-9.2971;-1.1567;10.9777;-11.7277;-8.4116;2.3775;1.2298;0.7591;1.0;8.79;37.35;4.44;23.29;74.83;-111.61;0.0;980.12;44.8;35.952675;-83.932526;787.47;NaN;;4.21;12.226105;52.4;11 / 18;141023;2022-10-17 20:05:01:083
6.1627;-13.2114;-0.2833;0.1013;-9.0013;3.8907;-0.6326;-0.0937;-2.5379;0.1817;-0.0736;0.4498;0.0;12.15;38.23;-5.32;311.64;66.62;-1.49;0.0;978.63;45.767;35.95268;-83.93251;790.39;NaN;;3.85;12.226105;64.6;11 / 18;141523;2022-10-17 20:05:01:583
-0.0586;-3.5602;-0.4738;2.6224;-9.4437;-0.3317;-0.8402;4.1613;-2.4379;-0.4503;-0.9554;-0.3046;0.0;10.48;37.69;1.97;22.64;67.33;-133.73;0.0;979.4;41.961;35.95268;-83.93251;790.39;NaN;;3.85;12.226105;64.6;11 / 18;142024;2022-10-17 20:05:02:084
1.7465;-11.3862;-0.3036;0.2385;-9.1234;3.5884;2.6781;1.0195;-0.8448;-0.1209;-0.2756;0.3404;1.0;10.03;38.66;-2.06;322.26;68.49;-3.8;0.0;978.64;43.501;35.952686;-83.932495;791.8;NaN;;4.14;12.226105;47.4;11 / 18;142524;2022-10-17 20:05:02:584
15.2264;-19.9149;-8.0979;2.0893;-9.5815;-0.0046;-5.9867;7.8111;3.2778;1.7763;0.7319;0.5485;0.0;7.56;36.98;5.21;17.74;77.7;-90.13;0.0;978.78;45.676;35.952686;-83.932495;791.8;NaN;;4.14;12.226105;47.4;11 / 18;143023;2022-10-17 20:05:03:083
1.7339;-11.269;0.0449;-0.2089;-9.0416;3.7917;-1.2483;0.062;-3.7523;0.8414;0.3657;0.6799;0.0;10.59;36.39;-3.11;311.62;72.39;-11.09;0.0;979.22;49.878;35.952698;-83.93248;792.54;NaN;;3.92;12.226105;61.7;11 / 18;143524;2022-10-17 20:05:03:584
1.0283;-6.5495;-4.1198;2.3929;-9.5097;0.1026;-6.7615;8.3382;3.0217;2.2621;-0.5978;0.6787;1.0;9.98;35.55;-0.99;11.57;64.79;-124.09;0.0;979.18;44.668;35.952698;-83.93248;792.54;NaN;;3.92;12.226105;61.7;11 / 18;144024;2022-10-17 20:05:04:084
1.96;-10.8081;-0.6197;0.3146;-9.2113;3.35;4.0574;0.9727;-6.3056;0.0719;-0.4797;0.1819;0.0;8.46;36.38;-4.93;308.55;77.81;-31.5;0.0;979.49;47.841;35.952705;-83.93247;792.11;NaN;;4.21;12.226105;46.2;11 / 18;144524;2022-10-17 20:05:04:584
-3.4134;-1.7976;3.0586;2.5343;-9.4508;-0.6554;-6.1068;8.0258;3.1909;2.0324;0.037;0.3158;1.0;9.21;36.28;-3.15;9.62;63.8;-133.37;0.0;979.03;42.509;35.952705;-83.93247;792.11;NaN;;4.21;12.226105;46.2;11 / 18;145024;2022-10-17 20:05:05:084
-0.7875;-10.2132;0.6796;0.6783;-9.2504;3.1845;5.7418;1.463;-4.7382;0.7468;0.3318;0.6298;0.0;11.08;37.71;-7.42;304.26;70.61;-12.02;0.0;979.45;46.545;35.952713;-83.93246;790.15;NaN;;4.18;12.226105;54.0;11 / 18;145524;2022-10-17 20:05:05:584
5.2831;-12.6879;-7.2224;2.6618;-9.1792;-2.1972;-5.264;7.4655;5.2303;2.4768;0.326;0.9577;0.0;9.54;37.88;1.14;19.64;69.39;-129.54;0.0;979.18;45.11;35.952713;-83.93246;790.15;NaN;;4.18;12.226105;54.0;11 / 18;146024;2022-10-17 20:05:06:084
-1.0364;-9.428;0.443;0.2714;-9.1364;3.5529;0.625;0.7471;-2.3112;1.3062;1.4037;-0.1277;0.0;11.16;39.26;-3.45;307.25;78.49;-19.68;0.0;979.44;45.58;35.95272;-83.93245;786.12;NaN;;4.21;12.226105;37.4;11 / 18;146524;2022-10-17 20:05:06:584
-3.1777;-2.091;2.1281;2.4795;-9.25;-2.1121;-5.1181;7.3381;5.1188;0.1446;-1.6826;0.0567;0.0;13.5;38.57;-4.27;9.26;67.61;-124.0;0.0;979.36;49.334;35.95272;-83.93245;786.12;NaN;;4.21;12.226105;37.4;11 / 18;147024;2022-10-17 20:05:07:084
1.6358;-8.7272;2.8427;0.657;-9.547;2.1434;0.8794;-3.2759;0.9345;1.3702;0.9941;0.0989;1.0;10.07;40.58;1.2;324.84;76.79;-17.04;0.0;978.51;50.991;35.952732;-83.93244;785.56;NaN;;4.18;12.226105;48.5;11 / 18;147524;2022-10-17 20:05:07:584
2.135;-7.8999;1.9277;3.1317;-9.0579;-2.0779;-1.7439;2.6356;4.2499;-0.4448;-1.8638;-0.7643;1.0;11.78;38.89;0.26;15.34;67.47;-123.56;0.0;979.27;57.1;35.952732;-83.93244;785.56;NaN;;4.18;12.226105;48.5;11 / 18;148024;2022-10-17 20:05:08:084
3.5264;-8.3456;2.196;0.704;-9.5598;2.0702;-0.5711;-1.9754;2.5361;1.4819;0.9701;-0.1734;1.0;9.45;40.48;-0.47;324.04;77.12;-18.78;0.0;978.48;49.696;35.95274;-83.932434;783.98;NaN;;4.03;12.226105;29.6;11 / 18;148523;2022-10-17 20:05:08:583
-2.8717;-2.7945;2.8484;3.7096;-8.7896;-2.2697;-2.0315;-1.1863;2.5916;-0.6157;-2.2783;-0.616;0.0;11.63;38.4;-2.51;7.69;63.67;-121.46;0.0;979.36;50.751;35.95274;-83.932434;783.98;NaN;;4.03;12.226105;29.6;11 / 18;149024;2022-10-17 20:05:09:084
6.0003;-7.8808;1.8814;0.5494;-9.4525;2.5534;4.6534;-0.5703;-3.1462;1.4534;-0.0345;0.8903;0.0;6.77;40.11;1.63;359.75;79.85;-73.56;0.0;977.75;48.359;35.95275;-83.93243;783.04;NaN;;4.28;12.226105;47.2;11 / 18;149524;2022-10-17 20:05:09:584
1.8993;-7.9573;1.1973;2.7408;-9.0979;-2.4262;-1.0856;-0.3234;3.2751;-1.5023;-0.1904;-1.1967;0.0;12.92;37.97;-3.24;6.86;78.7;-113.54;0.0;979.11;44.29;35.95275;-83.93243;783.04;NaN;;4.28;12.226105;47.2;11 / 18;150024;2022-10-17 20:05:10:084
5.7356;-10.7668;-0.309;0.3498;-9.6657;1.6193;-1.4984;-2.803;1.6699;1.0401;0.5322;0.3457;1.0;6.36;39.32;9.06;30.65;73.84;-94.47;0.0;977.9;44.115;35.95276;-83.93242;775.8;NaN;;4.82;12.226105;17.5;11 / 18;150523;2022-10-17 20:05:10:583
-1.086;-14.5059;7.8503;2.7671;-9.239;-1.7759;-4.0202;-4.1253;9.4453;-1.1376;0.4976;-1.1766;0.0;13.63;38.4;-3.21;341.36;82.43;-77.18;0.0;978.71;51.21;35.95276;-83.93242;775.8;NaN;;4.82;12.226105;17.5;11 / 18;151024;2022-10-17 20:05:11:084
-2.1981;-3.4519;6.0891;2.9457;-9.2752;-1.2098;0.2661;1.5512;0.5663;0.7093;1.2205;1.4901;0.0;4.01;38.59;8.98;37.29;71.05;-112.33;0.0;979.85;45.771;35.95277;-83.9324;774.54;NaN;;4.46;12.226105;40.7;11 / 18;151524;2022-10-17 20:05:11:584
-2.275;-15.5115;7.8168;1.3176;-9.6669;0.9925;7.0382;-3.6757;-4.7244;-3.3517;-0.1083;-1.212;0.0;13.22;37.16;-5.83;315.64;80.32;-53.01;0.0;978.97;44.852;35.95277;-83.9324;774.54;NaN;;4.46;12.226105;40.7;11 / 18;152023;2022-10-17 20:05:12:083
-4.2649;-5.8406;3.5755;2.4265;-9.5017;0.0094;-4.3117;-1.194;1.4252;-0.0926;0.9054;-0.3867;0.0;4.41;37.97;9.24;34.02;75.67;-89.78;0.0;979.05;43.82;35.952778;-83.93238;773.87;NaN;;4.25;12.226105;60.7;11 / 18;152523;2022-10-17 20:05:12:583
4.4665;-14.7706;-6.7854;1.701;-9.5171;-1.6438;1.7013;-5.4384;-3.3609;-3.981;0.0239;-1.0104;0.0;11.03;37.99;-2.29;312.23;73.52;-6.82;0.0;979.05;45.917;35.952778;-83.93238;773.87;NaN;;4.25;12.226105;60.7;11 / 18;153024;2022-10-17 20:05:13:084
-3.1645;-8.0575;4.0741;1.8839;-9.6224;0.1747;-6.7257;0.5484;1.5907;0.9544;-1.3927;1.9247;0.0;7.33;37.8;9.83;40.23;75.05;-106.01;0.0;979.86;49.0;35.952778;-83.93238;773.87;NaN;;4.25;12.226105;60.7;12 / 18;153523;2022-10-17 20:05:13:583
5.3414;-14.0626;-4.7943;1.4806;-9.6857;-0.4073;2.733;-4.1286;-3.3426;-3.1026;-0.6301;-1.0049;0.0;13.41;37.24;-3.81;358.78;80.99;-105.38;0.0;978.74;47.561;35.952785;-83.93237;773.46;NaN;;3.92;12.226105;59.4;12 / 18;154024;2022-10-17 20:05:14:084
-6.0416;-6.0275;2.8059;2.6225;-9.4171;-0.7821;4.1383;-3.14;-4.3968;1.0991;2.1905;1.0115;0.0;7.58;37.88;6.02;32.16;70.69;-126.63;0.0;979.79;44.917;35.95279;-83.932365;772.76;NaN;;4.36;12.226105;52.7;12 / 18;154524;2022-10-17 20:05:14:584
-2.3928;-13.9792;4.8353;1.5256;-9.6856;-0.1812;7.1996;-2.8553;-3.9326;-3.0569;1.2478;-1.016;0.0;13.88;36.32;-5.1;299.25;68.46;4.29;0.0;978.94;48.792;35.95279;-83.932365;772.76;NaN;;4.36;12.226105;52.7;12 / 18;155024;2022-10-17 20:05:15:084
-2.7251;-11.5567;4.5727;1.5413;-9.66;0.6922;-6.2586;5.626;4.5883;0.77;1.202;1.2231;0.0;6.36;38.55;4.58;18.71;72.01;-97.86;0.0;980.08;46.839;35.95279;-83.932365;772.76;NaN;;4.36;12.226105;52.7;12 / 18;155523;2022-10-17 20:05:15:583
-0.606;-16.1964;4.873;2.4786;-9.4174;-1.1575;-4.0567;-6.0637;7.7529;-2.6404;1.3746;-0.7951;0.0;13.74;36.56;-8.33;302.93;77.67;-38.56;0.0;978.65;45.855;35.952797;-83.93235;771.78;NaN;;4.07;12.226105;55.8;12 / 18;156023;2022-10-17 20:05:16:083
-1.9786;-11.0686;4.8957;1.329;-9.7155;0.1169;-6.8772;4.3775;2.8288;1.754;-2.0198;2.0662;0.0;6.56;38.79;4.91;19.05;82.18;-84.97;0.0;979.12;47.023;35.9528;-83.93235;772.03;NaN;;4.36;12.226105;41.4;12 / 18;156523;2022-10-17 20:05:16:583
2.109;-14.54;-3.6757;1.5146;-9.6766;-0.4907;-0.6585;-4.1924;-1.8313;-3.3236;0.3034;-0.6692;0.0;15.47;36.84;-6.11;357.17;80.66;-107.95;0.0;978.64;45.337;35.9528;-83.93235;772.03;NaN;;4.36;12.226105;41.4;12 / 18;157024;2022-10-17 20:05:17:084
-4.4695;-9.7986;0.8171;2.3407;-9.5193;-0.2714;8.1625;-7.5254;-5.1069;0.1893;0.5641;1.1553;0.0;7.93;39.32;6.6;25.78;76.1;-96.61;0.0;979.76;51.772;35.95281;-83.932335;772.92;NaN;;4.07;12.226105;46.7;12 / 18;157524;2022-10-17 20:05:17:584
-1.7411;-10.7991;2.4712;1.6943;-9.6271;-0.7871;5.8598;-4.4202;-4.4973;-2.4635;0.6957;-0.6662;1.0;16.18;37.89;-5.7;294.2;68.76;4.83;0.0;978.57;59.667;35.95281;-83.932335;772.92;NaN;;4.07;12.226105;46.7;12 / 18;158024;2022-10-17 20:05:18:084
-3.038;-9.7355;5.2875;1.7977;-9.6387;0.1867;-8.8828;4.7056;2.4284;-0.6947;1.1741;-1.114;0.0;7.65;41.19;6.66;20.88;79.38;-84.07;0.0;979.95;66.036;35.952816;-83.93233;772.67;NaN;;4.5;12.226105;45.8;12 / 18;158524;2022-10-17 20:05:18:584
4.4779;-15.242;-2.7027;2.1469;-9.5201;-0.9639;0.9322;-6.0806;0.5758;-3.3224;-0.4027;-0.9952;0.0;14.51;40.09;-3.64;299.85;73.31;-4.36;0.0;978.75;60.363;35.952816;-83.93233;772.67;NaN;;4.5;12.226105;45.8;12 / 18;159023;2022-10-17 20:05:19:083
-3.1878;-5.5256;3.6715;2.4042;-9.5029;0.2926;-5.6159;-1.263;0.7394;0.6769;0.8205;1.5399;0.0;5.83;39.54;9.34;26.17;75.7;-83.06;0.0;980.16;40.971;35.952824;-83.93232;772.77;NaN;;4.18;12.226105;49.8;11 / 18;159523;2022-10-17 20:05:19:583
0.4609;-14.0797;2.0483;0.881;-9.4639;2.4143;3.064;-1.6103;-3.2761;-3.109;-0.4144;-1.8421;0.0;12.98;38.01;-3.86;308.05;74.81;-20.05;0.0;978.93;40.782;35.952824;-83.93232;772.77;NaN;;4.18;12.226105;49.8;11 / 18;160024;2022-10-17 20:05:20:084
-2.3773;-7.9962;3.6739;3.2334;-9.229;-0.7353;4.9519;-2.8539;-1.3134;0.2785;2.0479;-0.1152;0.0;6.88;38.78;10.01;38.26;74.81;-103.96;0.0;979.52;43.536;35.95283;-83.932304;771.57;NaN;;4.1;12.226105;48.9;11 / 18;160523;2022-10-17 20:05:20:583
0.8198;-14.1574;3.9419;1.6802;-9.6581;-0.2603;6.1177;-2.9951;-5.7259;-0.4258;-0.0938;0.1583;0.0;12.49;38.61;-1.22;318.75;68.57;-2.02;0.0;979.19;42.417;35.95283;-83.932304;771.57;NaN;;4.1;12.226105;48.9;11 / 18;161024;2022-10-17 20:05:21:084
-2.7245;-13.6726;-2.3868;2.7304;-9.4057;-0.4983;2.4124;-1.9262;-5.5395;0.0557;-0.6659;-0.111;0.0;4.26;39.28;10.33;38.88;73.56;-100.34;0.0;978.94;45.957;35.952835;-83.9323;771.77;NaN;;3.53;12.226105;40.9;11 / 18;161523;2022-10-17 20:05:21:583
8.505;-12.9832;-4.4064;0.6304;-9.3426;2.9134;1.8975;-2.1569;-3.0303;-2.7433;-0.513;-1.5165;0.0;10.48;39.0;-2.06;323.99;67.79;-6.75;0.0;978.85;43.361;35.952835;-83.9323;771.77;NaN;;3.53;12.226105;40.9;11 / 18;162024;2022-10-17 20:05:22:084
8.7996;-8.129;-1.051;2.5;-9.4702;-0.4861;-5.4444;7.7577;2.8615;1.5006;0.5015;0.2174;0.0;8.59;37.28;3.9;17.97;74.95;-101.0;0.0;979.22;42.672;35.95284;-83.93229;771.98;NaN;;4.03;12.226105;45.3;11 / 18;162524;2022-10-17 20:05:22:584
9.6479;-13.5748;-2.9136;0.0859;-9.0311;3.8214;-1.8302;-0.7455;-3.7296;0.8102;0.0851;0.7057;0.0;11.33;36.94;-4.18;311.23;71.59;-12.1;0.0;978.7;42.67;35.95284;-83.93229;771.98;NaN;;4.03;12.226105;45.3;11 / 18;163024;2022-10-17 20:05:23:084
11.6076;-16.1019;-5.4987;2.953;-9.1146;-2.0913;-4.2287;5.5221;4.7836;0.8194;-0.2783;0.1149;0.0;9.45;36.28;0.32;10.48;65.84;-116.96;0.0;979.34;43.585;35.95284;-83.93229;771.98;NaN;;4.03;12.226105;45.3;11 / 18;163524;2022-10-17 20:05:23:584
1.2024;-10.9301;-0.1232;0.1764;-9.0852;3.6876;1.8077;0.75;-0.6526;0.9112;0.4607;0.7265;0.0;8.79;38.08;-0.9;318.23;76.96;-15.69;0.0;978.62;44.715;35.952847;-83.93228;770.33;NaN;;4.1;12.226105;29.7;11 / 18;164024;2022-10-17 20:05:24:084
-3.8174;-0.9036;3.3685;2.3395;-9.5228;-0.1165;-5.8226;8.8693;2.6518;0.0499;-2.2306;0.1254;1.0;10.31;36.49;0.79;18.55;63.28;-132.15;0.0;979.27;42.947;35.95286;-83.932274;770.64;NaN;;4.14;12.226105;39.4;11 / 18;164524;2022-10-17 20:05:24:584
-1.1321;-10.1381;-0.3018;0.2482;-8.943;4.0164;0.4189;0.4277;-1.8893;1.568;0.81;0.1314;0.0;9.94;38.55;-4.39;321.64;65.77;-3.54;0.0;978.53;44.163;35.95286;-83.932274;770.64;NaN;;4.14;12.226105;39.4;11 / 18;165023;2022-10-17 20:05:25:083
-1.9558;-2.4843;3.1017;2.3404;-9.5228;0.1009;-5.4864;7.9379;2.6918;1.589;0.677;0.3199;0.0;10.28;38.31;-2.06;352.6;76.18;-87.53;0.0;979.31;47.68;35.952866;-83.93227;771.72;NaN;;4.21;12.226105;38.7;11 / 18;165524;2022-10-17 20:05:25:584
-1.2173;-10.2365;0.7113;-0.3529;-8.8688;4.1702;0.8917;0.4623;-3.0076;1.1737;1.4327;0.2218;0.0;10.54;39.17;-6.43;314.84;64.74;4.84;0.0;978.63;46.272;35.952866;-83.93227;771.72;NaN;;4.21;12.226105;38.7;11 / 18;166023;2022-10-17 20:05:26:083
11.2298;-21.0957;-9.5408;2.5953;-9.0632;-2.7005;-1.5527;3.8734;4.6875;1.2438;-0.225;0.1583;0.0;8.49;39.13;1.59;20.95;67.55;-136.14;0.0;979.34;49.306;35.952866;-83.93227;771.72;NaN;;4.21;12.226105;38.7;11 / 18;166523;2022-10-17 20:05:26:583
3.9374;-12.1576;-2.0297;0.0324;-9.0577;3.7587;2.086;0.7808;-1.5776;0.6338;0.2195;0.6926;0.0;9.11;39.84;-1.52;311.16;78.14;-11.48;0.0;978.52;44.665;35.952877;-83.93226;773.33;NaN;;4.07;12.226105;33.2;11 / 18;167024;2022-10-17 20:05:27:084
-2.0327;-1.4225;1.2811;2.3136;-9.4846;-0.9274;-2.0388;5.1977;-2.9808;1.2239;-1.3667;0.2229;0.0;9.62;37.28;0.11;20.35;66.94;-139.42;0.0;979.47;49.761;35.952885;-83.93225;774.36;NaN;;4.28;12.226105;13.5;11 / 18;167524;2022-10-17 20:05:27:584
0.146;-10.8009;1.0546;-0.3817;-8.9656;3.9551;-0.0685;-0.2537;-3.3203;0.8926;1.2762;0.4202;0.0;7.97;39.06;-2.55;6.37;79.45;-73.12;0.0;978.59;43.843;35.952885;-83.93225;774.36;NaN;;4.28;12.226105;13.5;11 / 18;168023;2022-10-17 20:05:28:083
-3.0057;-2.126;-0.6751;2.6081;-8.9481;-3.0495;-2.7131;4.1583;5.4128;2.2242;1.1951;0.544;0.0;9.26;37.28;0.34;18.47;65.85;-139.46;0.0;979.28;45.312;35.952885;-83.93225;774.36;NaN;;4.28;12.226105;13.5;11 / 18;168523;2022-10-17 20:05:28:583
4.5069;-11.4269;-2.0411;0.1551;-9.1868;3.4277;3.0164;0.6409;-2.135;1.5634;1.7918;-0.4123;0.0;9.41;38.68;-2.32;323.24;69.52;-2.59;0.0;978.66;44.002;35.952892;-83.93224;773.8;NaN;;4.32;12.226105;33.0;11 / 18;169024;2022-10-17 20:05:29:084
11.6486;-33.1858;-11.0465;2.3626;-9.5131;0.2995;-5.0735;6.5117;1.5333;3.7562;1.4111;0.9848;0.0;8.59;37.93;2.08;20.61;62.66;-138.43;0.0;979.38;44.889;35.9529;-83.932236;775.35;NaN;;4.18;12.226105;38.0;11 / 18;169524;2022-10-17 20:05:29:584
1.0044;-11.2427;-1.2317;0.2919;-9.0973;3.6502;3.6492;1.2416;-2.0933;1.2477;1.2922;-0.1345;0.0;8.89;39.04;-2.74;313.35;76.9;-19.17;0.0;978.67;47.93;35.9529;-83.932236;775.35;NaN;;4.18;12.226105;38.0;11 / 18;170024;2022-10-17 20:05:30:084
6.7932;-14.7368;-11.8914;2.7253;-9.4089;-0.4652;-3.6746;6.6822;0.1726;2.8966;1.1529;0.5752;0.0;8.93;38.16;-0.88;14.11;62.25;-137.52;0.0;979.28;41.242;35.9529;-83.932236;775.35;NaN;;4.18;12.226105;38.0;11 / 18;170524;2022-10-17 20:05:30:584
-1.8135;-10.8847;0.1101;0.4368;-9.1459;3.5118;5.7443;1.6495;-3.674;0.2244;-0.0088;0.6434;0.0;9.15;39.51;-7.16;312.55;68.85;-7.09;0.0;978.41;44.164;35.952908;-83.93222;775.2;NaN;;4.25;12.226105;22.5;11 / 18;171024;2022-10-17 20:05:31:084
5.747;-11.2334;-8.3136;2.9124;-9.0289;-2.4834;-1.5625;3.6691;4.7958;1.3351;-0.7679;0.447;1.0;12.34;37.99;-3.79;8.56;65.42;-126.97;0.0;979.14;44.079;35.95292;-83.93221;772.36;NaN;;4.25;12.226105;20.3;11 / 18;171524;2022-10-17 20:05:31:584
-0.2163;-9.9437;-0.2812;0.2098;-9.043;3.7882;3.8622;1.1595;-3.2573;1.0174;1.2035;0.182;0.0;7.93;40.93;-0.04;326.07;77.63;-18.56;0.0;978.62;43.853;35.95292;-83.93221;772.36;NaN;;4.25;12.226105;20.3;11 / 18;172023;2022-10-17 20:05:32:083
-3.3951;-0.0305;3.393;3.026;-8.6845;-3.4048;0.6532;-2.3878;2.4789;1.4111;-0.9685;0.4329;0.0;11.1;37.88;-0.64;16.22;77.06;-123.47;0.0;979.37;45.009;35.95292;-83.93221;772.36;NaN;;4.25;12.226105;20.3;11 / 18;172524;2022-10-17 20:05:32:584
5.4494;-8.779;-1.404;0.756;-9.5417;2.1344;4.1632;-0.6005;-3.6791;1.7284;0.9261;-0.0469;1.0;9.36;39.71;2.19;330.82;76.65;-19.5;0.0;978.51;44.616;35.952927;-83.932205;770.54;NaN;;4.39;12.226105;38.9;11 / 18;173024;2022-10-17 20:05:33:084
-2.3665;-2.7538;2.0548;2.4973;-9.347;-1.6026;-4.2383;6.6336;3.7871;-1.2461;-1.4862;-1.3262;0.0;9.58;38.81;2.27;20.65;72.39;-122.69;0.0;979.28;44.728;35.952934;-83.9322;770.36;NaN;;3.71;12.226105;48.8;11 / 18;173524;2022-10-17 20:05:33:584
-0.8985;-8.8926;0.422;0.1225;-9.322;3.0424;4.9667;1.4002;-2.9031;0.9378;1.1839;0.1336;0.0;9.24;40.39;2.4;331.8;80.61;-30.0;0.0;978.99;43.92;35.952934;-83.9322;770.36;NaN;;3.71;12.226105;48.8;11 / 18;174024;2022-10-17 20:05:34:084
2.0797;-7.5377;2.1811;3.3565;-8.8728;-2.4856;-3.1627;-0.8581;3.1213;-1.3776;-3.6632;-1.4896;1.0;15.13;37.28;-0.09;18.51;64.79;-126.52;0.0;978.58;46.497;35.952946;-83.93218;771.24;NaN;;4.32;12.226105;44.4;11 / 18;174524;2022-10-17 20:05:34:584
4.724;-9.4508;-1.1225;0.7952;-9.668;1.4377;-4.764;-3.5811;2.7369;1.549;0.5831;2.1392;0.0;7.16;40.16;6.79;350.34;80.36;-28.95;0.0;978.32;46.222;35.952946;-83.93218;771.24;NaN;;4.32;12.226105;44.4;11 / 18;175023;2022-10-17 20:05:35:083
-2.202;-14.6991;-1.2293;0.8067;-9.7371;0.8413;4.7961;-2.316;-5.9359;-1.3128;1.262;-1.4105;1.0;17.53;37.63;-6.39;287.38;66.34;18.82;0.0;978.84;51.102;35.95295;-83.932175;767.99;NaN;;4.18;12.226105;46.5;11 / 18;175524;2022-10-17 20:05:35:584
-6.0858;-5.4948;2.5098;2.7348;-9.4026;0.5323;-8.0192;-0.7576;1.5329;0.6828;0.8805;1.8468;1.0;5.7;40.03;6.32;14.68;73.49;-78.99;0.0;977.81;45.241;35.95295;-83.932175;767.99;NaN;;4.18;12.226105;46.5;11 / 18;176023;2022-10-17 20:05:36:083
-2.9456;-15.2689;7.2284;2.6193;-9.3722;-1.2129;-5.2628;-6.9237;9.483;-3.2971;-0.5763;-1.3848;0.0;13.71;38.14;-5.1;315.26;79.62;-46.31;0.0;979.05;44.781;35.952957;-83.93216;768.45;NaN;;4.28;12.226105;41.6;11 / 18;176524;2022-10-17 20:05:36:584
-0.2082;-15.8243;4.8538;1.2379;-9.722;0.3478;-6.3698;6.595;4.6054;0.7873;3.1093;1.2938;1.0;6.56;39.62;7.22;30.35;72.14;-113.47;0.0;977.57;42.92;35.952957;-83.93216;768.45;NaN;;4.28;12.226105;41.6;11 / 18;177024;2022-10-17 20:05:37:084
-2.6889;-14.1341;5.5023;1.7114;-9.6341;-0.652;2.1546;-3.6086;-2.9335;-1.9103;0.741;-1.0233;1.0;15.62;37.65;-3.84;4.83;79.24;-110.86;0.0;979.06;45.19;35.95296;-83.93215;769.35;NaN;;4.14;12.226105;59.7;11 / 18;177524;2022-10-17 20:05:37:584
-4.4635;-3.9832;3.4783;2.7846;-9.3658;-0.8357;-0.478;0.6306;2.2432;-0.1361;1.0252;-0.6245;0.0;6.79;39.75;7.69;31.06;72.76;-106.7;0.0;978.49;40.926;35.95296;-83.93215;769.35;NaN;;4.14;12.226105;59.7;11 / 18;178023;2022-10-17 20:05:38:083
2.8184;-14.2774;-3.5097;-0.0271;-9.1663;3.4856;-0.3907;-1.4623;-4.4229;-3.5266;-0.0544;-1.735;0.0;15.09;38.42;-6.43;297.52;69.18;0.45;0.0;978.69;48.464;35.95296;-83.93215;769.35;NaN;;4.14;12.226105;59.7;11 / 18;178524;2022-10-17 20:05:38:584
12.1962;-18.784;-7.5586;2.6844;-9.4203;-0.4709;8.9201;-10.5492;-10.1876;-0.3009;0.7303;-0.4662;0.0;6.71;39.47;9.41;32.25;73.86;-99.95;0.0;979.6;45.068;35.95297;-83.932144;770.37;NaN;;4.21;12.226105;41.1;11 / 18;179024;2022-10-17 20:05:39:084
9.8507;-13.2209;-3.8731;1.7449;-9.6049;0.9338;7.2762;-3.0998;-3.4547;0.1978;-0.3321;0.4371;0.0;13.65;39.08;-4.27;330.77;78.36;-61.85;0.0;978.63;43.452;35.952976;-83.93213;769.7;NaN;;4.03;12.226105;48.9;11 / 18;179523;2022-10-17 20:05:39:583
-2.8355;-9.8668;1.4402;2.3869;-9.3379;-1.81;6.2227;-8.4542;-5.8561;-0.142;-0.8612;-0.5497;0.0;7.44;39.23;8.83;48.22;74.73;-128.29;0.0;980.03;40.7;35.952976;-83.93213;769.7;NaN;;4.03;12.226105;48.9;11 / 18;180024;2022-10-17 20:05:40:084
6.5405;-12.0153;-1.0866;-0.1017;-9.182;3.4426;0.9134;-0.612;-1.1741;-0.7633;0.3903;-0.2052;0.0;10.95;39.92;2.66;329.63;73.54;-14.87;0.0;978.59;45.672;35.952984;-83.93212;769.43;NaN;;3.92;12.226105;41.4;11 / 18;180523;2022-10-17 20:05:40:583
4.3911;-11.7547;-7.1806;2.4781;-9.4292;-1.0581;-5.1936;6.5628;2.4866;1.5358;-0.8067;0.3948;0.0;9.39;38.96;4.65;24.42;63.41;-128.55;0.0;978.94;44.103;35.952984;-83.93212;769.43;NaN;;3.92;12.226105;41.4;11 / 18;181024;2022-10-17 20:05:41:084
-1.0594;-9.8447;-0.3269;0.6788;-9.26;3.1561;3.5204;1.6232;-0.7416;1.2898;0.7678;0.1499;0.0;8.93;40.31;2.72;332.68;77.24;-19.38;0.0;979.69;46.16;35.95299;-83.93211;769.5;NaN;;4.21;12.226105;53.0;12 / 18;181524;2022-10-17 20:05:41:584
-2.3629;-2.4458;1.8861;2.4338;-9.4977;-0.204;-5.4969;6.8615;0.8877;2.1724;-0.024;0.864;1.0;8.46;38.64;2.94;19.01;64.08;-127.7;0.0;978.96;43.45;35.95299;-83.93211;769.5;NaN;;4.21;12.226105;53.0;12 / 18;182023;2022-10-17 20:05:42:083
-0.3553;-9.1636;1.3364;0.068;-9.1612;3.4984;0.7404;0.4776;-1.8655;0.8768;0.8565;-0.1687;1.0;9.86;39.34;-0.97;322.73;69.1;-1.11;0.0;979.08;42.281;35.953;-83.9321;769.6;NaN;;3.96;12.226105;58.9;12 / 18;182524;2022-10-17 20:05:42:584
-1.2577;-3.6132;-0.9873;3.0238;-9.1502;-1.8166;-5.2597;6.0402;4.3173;0.3486;-2.1322;0.0392;0.0;9.43;37.74;1.11;11.76;66.05;-114.82;0.0;979.28;49.765;35.953;-83.9321;769.6;NaN;;3.96;12.226105;58.9;12 / 18;183024;2022-10-17 20:05:43:084
0.1068;-8.7006;1.2787;0.4998;-9.2769;3.1399;5.7488;0.5175;-4.9738;1.1771;1.9604;-0.1632;1.0;8.16;39.04;-2.76;322.8;71.08;-9.04;0.0;978.41;41.853;35.953007;-83.93209;768.73;NaN;;4.64;12.226105;36.0;12 / 18;183523;2022-10-17 20:05:43:583
-3.4367;-2.5669;3.1478;3.2813;-8.9438;-2.3261;-1.5219;0.3462;3.3773;-0.9373;-2.2546;-1.4306;0.0;10.88;37.16;-1.35;13.07;65.79;-125.33;0.0;979.15;54.21;35.953007;-83.93209;768.73;NaN;;4.64;12.226105;36.0;12 / 18;184023;2022-10-17 20:05:44:083
3.7932;-8.2884;2.0892;0.6544;-9.5065;2.3171;3.5444;-2.896;-0.9268;1.1508;0.8737;-0.2947;1.0;5.59;39.02;4.74;346.29;78.77;-23.39;0.0;978.0;45.596;35.953014;-83.93208;766.38;NaN;;4.86;12.226105;51.1;12 / 18;184524;2022-10-17 20:05:44:584
1.4779;-10.2458;0.1391;2.7392;-9.1913;-2.0461;-3.832;6.5116;4.865;-0.1223;-1.8832;-0.0317;0.0;12.83;36.68;-4.87;2.27;68.83;-115.33;0.0;979.24;43.075;35.953014;-83.93208;766.38;NaN;;4.86;12.226105;51.1;12 / 18;185024;2022-10-17 20:05:45:084
5.0904;-8.0061;-1.9507;0.4818;-9.3696;2.8545;4.8618;1.0866;-5.189;2.4691;-1.53;1.671;0.0;7.89;38.93;2.7;359.0;83.43;-67.93;0.0;978.07;39.069;35.95302;-83.93206;767.56;NaN;;4.21;12.226105;54.2;12 / 18;185525;2022-10-17 20:05:45:585
-2.3004;-2.6145;2.6004;3.5188;-8.8046;-2.5036;-2.1711;-0.7801;3.3958;-1.155;-1.7441;-1.8901;0.0;13.37;36.92;-2.19;6.86;76.57;-109.89;0.0;979.05;40.9;35.95302;-83.93206;767.56;NaN;;4.21;12.226105;54.2;12 / 18;186024;2022-10-17 20:05:46:084
5.295;-8.2289;-0.2503;0.6259;-9.553;2.1258;0.1018;-4.2555;1.6833;0.5706;1.3348;-0.0303;0.0;8.08;39.9;0.21;325.68;76.94;-16.41;0.0;977.66;39.342;35.953033;-83.93205;767.13;NaN;;4.32;12.226105;33.2;12 / 18;186523;2022-10-17 20:05:46:583
1.1767;-5.8128;1.8347;3.2897;-8.9347;-2.3491;-5.3892;-2.6091;4.1685;-1.4037;-0.9436;-0.9444;1.0;13.29;37.59;-5.04;7.11;65.66;-125.53;0.0;978.99;42.358;35.953033;-83.93205;767.13;NaN;;4.32;12.226105;33.2;12 / 18;187024;2022-10-17 20:05:47:084
4.3481;-8.4182;-0.3371;1.0797;-9.5239;2.0738;-1.0748;-1.5262;0.8555;1.1766;0.74;0.1896;0.0;9.13;40.58;-1.41;326.89;76.21;-27.5;0.0;977.9;45.403;35.95304;-83.932045;769.22;NaN;;4.03;12.226105;36.5;11 / 18;187524;2022-10-17 20:05:47:584
1.8984;-11.0115;1.5084;3.3667;-8.9877;-2.0141;-1.3108;0.391;3.6835;-0.5701;-1.8777;-1.1886;1.0;12.49;39.23;-7.65;352.52;74.0;-110.92;0.0;979.17;51.628;35.95304;-83.932045;769.22;NaN;;4.03;12.226105;36.5;11 / 18;188023;2022-10-17 20:05:48:083
3.7214;-10.3531;0.7863;0.8361;-9.4296;2.5599;1.2654;-1.8697;-0.0731;0.6954;-0.4688;1.6694;1.0;6.04;42.56;-4.65;321.21;74.06;-18.09;0.0;977.79;51.694;35.95305;-83.93204;770.67;NaN;;4.07;12.226105;51.2;11 / 18;188524;2022-10-17 20:05:48:584
2.1805;-9.2166;1.3729;3.3381;-9.1362;-1.248;-4.0033;-3.2441;7.3748;-0.5956;0.8737;-1.4602;1.0;13.74;40.22;-12.52;321.47;80.71;-82.5;0.0;978.61;50.051;35.95305;-83.93204;770.67;NaN;;4.07;12.226105;51.2;11 / 18;189024;2022-10-17 20:05:49:084
3.8809;-11.0638;1.0268;0.9307;-9.7031;1.0747;-2.9809;3.3387;4.1903;2.7353;-1.0182;1.0207;0.0;1.44;45.36;2.72;12.63;72.12;-103.74;0.0;978.55;41.11;35.953056;-83.93203;772.73;NaN;;4.03;12.226105;41.5;11 / 18;189523;2022-10-17 20:05:49:583
0.7292;-10.9789;-0.073;2.69;-9.363;-1.1261;-2.568;-6.9603;6.3391;-2.8536;1.0241;-0.8475;0.0;8.72;42.81;-10.71;344.93;72.7;-112.72;0.0;978.69;39.028;35.953056;-83.93203;772.73;NaN;;4.03;12.226105;41.5;11 / 18;190024;2022-10-17 20:05:50:084
-2.1452;-9.9975;3.2486;2.0707;-9.5654;0.6217;-5.3012;0.9372;3.118;0.6992;1.3295;-0.0824;0.0;0.0;42.54;4.89;23.75;77.26;-73.29;0.0;978.24;41.2;35.953064;-83.93203;771.1;NaN;;4.21;12.226105;31.3;11 / 18;190524;2022-10-17 20:05:50:584
3.7881;-13.5054;-3.5456;2.3245;-9.4764;-0.9821;-3.8299;-5.1092;6.7386;-2.3071;0.7014;-0.8627;0.0;9.21;40.71;-7.5;298.16;78.56;-33.07;0.0;978.56;42.731;35.953064;-83.93203;771.1;NaN;;4.21;12.226105;31.3;11 / 18;191023;2022-10-17 20:05:51:083
-5.7619;-7.5858;1.1752;2.493;-9.4791;0.3177;-8.1886;-1.9206;-1.1258;-0.3216;0.0951;-0.4965;1.0;0.92;41.36;5.42;21.81;75.15;-82.74;0.0;979.93;41.009;35.95307;-83.932014;771.99;NaN;;4.36;12.226105;50.5;11 / 18;191524;2022-10-17 20:05:51:584
-0.5557;-15.189;3.5172;1.5432;-9.6602;0.6846;6.5258;-3.1637;-3.9077;-2.5458;-0.2401;-1.5308;0.0;10.33;39.24;-8.03;309.46;66.5;-0.36;0.0;978.87;40.189;35.95307;-83.932014;771.99;NaN;;4.36;12.226105;50.5;11 / 18;192024;2022-10-17 20:05:52:084
-3.4439;-8.0596;0.4361;2.949;-9.3301;-0.6501;8.2574;-6.7192;-3.3134;-0.3967;1.0046;-0.2596;0.0;4.82;40.54;6.38;23.38;72.06;-102.43;0.0;978.98;43.937;35.95308;-83.93201;775.43;NaN;;4.07;12.226105;58.7;11 / 18;192524;2022-10-17 20:05:52:584
4.8443;-14.752;-4.3884;1.1417;-9.6397;1.3943;2.7614;-1.9155;-4.2066;-1.1885;-0.2217;-0.3402;0.0;11.29;39.58;-6.28;308.05;79.41;-39.31;0.0;979.06;44.16;35.95308;-83.93201;775.43;NaN;;4.07;12.226105;58.7;11 / 18;193024;2022-10-17 20:05:53:084
0.3176;-11.9839;1.8494;2.7626;-9.3896;-0.612;9.2277;-8.5999;-8.5651;0.1349;-0.9431;0.0106;0.0;8.01;40.61;1.78;16.92;65.87;-128.05;0.0;978.74;44.261;35.95308;-83.93201;775.43;NaN;;4.07;12.226105;58.7;11 / 18;193523;2022-10-17 20:05:53:583
0.5468;-10.2637;0.9383;1.0329;-9.4365;2.4607;5.0254;-2.4407;-2.2267;-0.5626;0.1458;-0.5325;0.0;13.63;40.93;-7.42;303.08;67.92;-1.33;0.0;978.81;41.603;35.953087;-83.932;775.99;NaN;;4.32;12.226105;40.3;11 / 18;194024;2022-10-17 20:05:54:084
7.9499;-17.5555;-6.8605;2.4279;-9.4965;-0.3042;1.0048;-0.059;-4.405;2.0349;-0.1599;0.8972;0.0;5.33;41.4;6.56;28.07;75.55;-97.14;0.0;979.04;45.961;35.953087;-83.932;775.99;NaN;;4.32;12.226105;40.3;11 / 18;194524;2022-10-17 20:05:54:584
4.835;-11.5732;-1.4121;-0.0863;-9.0147;3.8599;-1.6741;-0.4669;-3.5592;0.8405;0.9158;0.6725;0.0;8.06;38.96;-3.11;320.4;73.72;-16.13;0.0;978.58;42.8;35.953094;-83.932;776.49;NaN;;4.0;12.226105;46.5;11 / 18;195024;2022-10-17 20:05:55:084
3.3954;-8.9656;-6.3215;2.2348;-9.4487;-1.3775;-4.1358;6.5921;4.1935;1.3843;0.1056;0.4855;0.0;8.66;38.01;0.13;15.06;74.47;-121.65;0.0;979.23;41.389;35.953102;-83.931984;776.54;NaN;;4.18;12.226105;46.1;11 / 18;195525;2022-10-17 20:05:55:585
-0.5512;-9.1421;-0.1555;0.5811;-9.5671;2.0744;1.4289;-2.265;-2.2547;1.446;1.1893;-0.2841;0.0;10.07;39.88;-1.95;313.17;77.31;-15.65;0.0;978.55;47.153;35.953102;-83.931984;776.54;NaN;;4.18;12.226105;46.1;11 / 18;196024;2022-10-17 20:05:56:084
-3.0218;-2.3345;3.3547;2.8015;-8.9588;-2.8392;0.6051;1.3739;4.6596;-1.1289;-1.6021;-1.3274;0.0;10.28;38.38;1.74;22.5;66.0;-135.38;0.0;978.89;45.17;35.953117;-83.931984;778.27;NaN;;4.03;12.226105;34.6;11 / 18;196523;2022-10-17 20:05:56:583
3.8979;-10.4886;0.6287;0.635;-9.2615;3.161;4.3632;1.5063;-3.8917;1.1436;1.2137;-0.2085;0.0;7.99;40.18;3.17;341.87;80.63;-37.79;0.0;979.37;41.652;35.953117;-83.931984;778.27;NaN;;4.03;12.226105;34.6;11 / 18;197024;2022-10-17 20:05:57:084
0.9395;-6.6087;2.2777;3.1976;-8.8469;-2.7708;-0.8478;0.6326;4.8512;-1.1266;-0.4433;-1.4388;0.0;12.34;38.74;-5.08;310.34;77.6;-33.79;0.0;978.6;44.947;35.953117;-83.931984;778.27;NaN;;4.03;12.226105;34.6;11 / 18;197524;2022-10-17 20:05:57:584
2.715;-8.5843;2.3429;0.9104;-9.5481;2.0434;3.4551;-4.3746;0.3756;2.4095;0.2278;0.6252;0.0;5.38;39.83;6.71;34.46;79.51;-98.36;0.0;978.76;42.409;35.953125;-83.93198;778.66;NaN;;4.0;12.226105;40.9;11 / 18;198024;2022-10-17 20:05:58:084
0.5548;-6.4606;2.4574;3.403;-8.9425;-2.1499;-3.571;-2.3899;4.9236;-1.0837;-2.0551;-1.1603;1.0;12.86;37.71;-5.12;353.49;78.91;-101.24;0.0;978.79;39.338;35.953125;-83.93196;781.93;NaN;;4.5;12.226105;69.1;11 / 18;198524;2022-10-17 20:05:58:584
4.8727;-9.1813;0.4705;1.4868;-9.646;0.9563;-6.0194;2.8558;3.1879;1.5767;-1.6421;1.627;1.0;6.47;39.84;3.24;357.0;79.61;-57.25;0.0;978.53;46.18;35.953125;-83.93196;781.93;NaN;;4.5;12.226105;69.1;11 / 18;199023;2022-10-17 20:05:59:083
1.0274;-8.1649;2.4314;3.4376;-8.8161;-2.5747;-2.8597;-2.5181;5.9385;-1.3178;-0.3818;-1.5884;0.0;9.38;38.64;-3.94;4.88;64.03;-126.83;0.0;978.57;45.313;35.953133;-83.93195;780.06;NaN;;3.96;12.226105;49.4;11 / 18;199523;2022-10-17 20:05:59:583
-1.7118;-10.2864;4.3403;0.7269;-9.6062;1.8337;1.009;-3.7922;0.7715;2.2905;-1.1739;1.1272;0.0;4.43;39.98;3.9;19.11;77.15;-94.74;0.0;978.27;40.917;35.953133;-83.93195;780.06;NaN;;3.96;12.226105;49.4;11 / 18;200024;2022-10-17 20:06:00:084
1.0606;-12.0523;0.0634;3.5377;-8.9205;-2.0199;-3.7631;-3.6572;5.5377;-2.9415;0.2713;-0.877;0.0;11.89;38.25;-6.13;1.51;65.46;-119.73;0.0;978.62;52.795;35.953133;-83.93195;780.06;NaN;;3.96;12.226105;49.4;11 / 18;200524;2022-10-17 20:06:00:584
-1.6283;-12.4517;4.4001;0.971;-9.5865;1.8238;-3.6127;0.2581;2.5807;0.8486;-0.4487;2.0527;1.0;4.13;40.86;3.75;353.24;77.84;-28.03;0.0;978.02;49.86;35.953144;-83.931946;781.53;NaN;;3.89;12.226105;45.9;11 / 18;201024;2022-10-17 20:06:01:084
2.0734;-11.0453;2.2101;2.1421;-9.5436;-0.7074;-2.1018;-4.6612;3.2877;-0.6347;0.8438;-1.6186;0.0;12.26;39.15;-7.95;294.63;74.36;-16.03;0.0;978.97;39.722;35.95315;-83.93194;782.49;NaN;;3.85;12.226105;48.8;11 / 18;201524;2022-10-17 20:06:01:584
-5.9067;-14.5185;-3.0165;2.9162;-9.3592;-0.2668;7.179;-1.4139;-1.9661;0.146;1.6391;-0.0822;0.0;4.05;40.39;8.93;31.94;72.63;-95.23;0.0;978.04;39.631;35.95315;-83.93194;782.49;NaN;;3.85;12.226105;48.8;11 / 18;202024;2022-10-17 20:06:02:084
-0.376;-15.1104;3.982;1.752;-9.6399;0.4168;7.1017;-2.9603;-4.1082;-2.6207;-0.0993;-1.589;0.0;11.51;39.56;-5.74;308.02;68.15;-0.56;0.0;978.72;42.923;35.95315;-83.93194;782.49;NaN;;3.85;12.226105;48.8;11 / 18;202524;2022-10-17 20:06:02:584
6.7223;-5.8531;3.1211;2.1489;-9.5683;-0.0072;-7.5801;-3.0976;-0.3783;0.3932;1.5755;0.1568;1.0;2.18;40.48;7.41;31.75;73.41;-103.26;0.0;978.09;43.63;35.953156;-83.93192;784.44;NaN;;3.96;12.40401;52.7;11 / 18;203024;2022-10-17 20:06:03:084
8.2789;-13.3403;-5.065;1.6977;-9.6397;0.6029;6.4748;-3.0151;-2.9354;-0.0761;-0.0308;0.1225;1.0;10.33;39.08;-5.49;331.41;79.41;-70.45;0.0;978.51;43.832;35.95316;-83.931915;785.95;NaN;;4.03;12.267499;60.3;11 / 18;203523;2022-10-17 20:06:03:583
7.9567;-8.9581;-1.3588;3.063;-9.2875;-0.7284;6.6662;-0.4052;-3.8257;0.5537;-0.4087;-0.084;0.0;4.2;39.38;5.93;28.42;71.89;-114.9;0.0;979.46;41.099;35.95316;-83.931915;785.95;NaN;;4.03;12.267499;60.3;11 / 18;204024;2022-10-17 20:06:04:084
7.6848;-14.5947;-3.6526;0.5836;-9.2854;3.1002;0.3088;-1.4142;-3.478;-1.7743;-0.1519;-1.3619;1.0;9.19;39.04;-2.32;324.52;70.26;-10.92;0.0;978.45;41.566;35.953167;-83.93191;787.09;NaN;;4.0;12.226105;54.5;11 / 18;204524;2022-10-17 20:06:04:584
4.3807;-9.0963;-6.2201;2.4007;-9.4318;-1.2034;-5.6231;7.218;4.3094;-0.4615;-1.3672;-0.1684;0.0;6.88;38.12;5.93;31.56;74.11;-116.62;0.0;978.84;45.057;35.953167;-83.93191;787.09;NaN;;4.0;12.226105;54.5;11 / 18;205023;2022-10-17 20:06:05:083
4.666;-11.5971;-0.1169;0.1919;-9.0988;3.6532;-1.2215;-0.5838;-3.9094;0.2022;-0.4452;0.2907;1.0;11.83;37.5;-6.07;306.8;68.1;-3.01;0.0;978.59;53.672;35.953175;-83.931885;787.44;NaN;;3.96;12.226105;45.0;11 / 18;205523;2022-10-17 20:06:05:583
-2.0231;-2.7805;1.3789;2.8862;-9.3687;-0.2589;2.6964;-1.3696;-5.7345;1.6794;0.5384;0.1347;0.0;8.59;37.78;1.89;17.95;69.14;-121.38;0.0;978.69;41.086;35.953175;-83.931885;787.44;NaN;;3.96;12.226105;45.0;11 / 18;206024;2022-10-17 20:06:06:084
-0.5151;-10.9397;-0.2321;0.1772;-9.1463;3.5333;-2.0611;-1.075;-3.0799;1.1317;1.5723;-0.1887;1.0;10.78;37.59;-6.19;307.41;68.85;-2.87;0.0;978.98;54.911;35.953182;-83.93188;789.23;NaN;;3.89;12.226105;40.5;12 / 18;206523;2022-10-17 20:06:06:583
12.6547;-19.1219;-6.0942;2.7117;-9.4212;-0.2395;-4.1049;5.3559;-0.5761;2.2997;0.7596;0.7797;0.0;8.44;37.95;0.66;14.76;64.82;-127.22;0.0;978.86;47.579;35.953182;-83.93188;789.23;NaN;;3.89;12.226105;40.5;12 / 18;207023;2022-10-17 20:06:07:083
1.0983;-9.9948;-0.6278;0.2898;-9.1467;3.5247;-0.0051;0.4737;-2.1647;0.6288;-0.5003;0.6651;0.0;8.78;39.39;-2.4;317.69;76.87;-20.07;0.0;978.62;52.891;35.953194;-83.93187;788.77;NaN;;3.74;12.226105;40.1;12 / 18;207525;2022-10-17 20:06:07:585
-2.9833;-2.7051;1.768;3.2821;-8.8971;-2.498;-2.2795;1.8299;4.2914;1.9155;0.4796;0.7513;0.0;7.69;38.1;1.78;17.3;65.13;-127.27;0.0;978.74;53.925;35.953194;-83.93187;788.77;NaN;;3.74;12.226105;40.1;12 / 18;208024;2022-10-17 20:06:08:084
-0.108;-9.2504;-0.084;0.9118;-9.2763;3.0479;4.0229;2.1419;-1.946;1.2357;1.6607;-0.0289;1.0;8.18;38.83;-1.63;327.66;71.07;-16.66;0.0;979.68;56.664;35.953194;-83.93187;788.77;NaN;;3.74;12.226105;40.1;12 / 18;208524;2022-10-17 20:06:08:584
1.9044;-8.2301;2.1511;3.1924;-8.9981;-2.2389;-5.7939;6.1021;3.9819;0.0712;-1.7976;0.1381;0.0;10.01;37.29;-2.27;5.22;64.52;-114.21;0.0;979.13;50.876;35.9532;-83.93186;789.87;NaN;;4.0;12.226105;50.9;12 / 18;209023;2022-10-17 20:06:09:083
5.0605;-7.3561;-0.0805;0.6819;-9.4355;2.5838;4.9342;2.0925;-4.4992;2.4011;-1.7545;1.4931;0.0;6.53;38.66;5.06;359.67;82.66;-53.95;0.0;977.99;50.154;35.95321;-83.931854;790.66;NaN;;3.92;12.226105;51.3;12 / 18;209524;2022-10-17 20:06:09:584
-1.8132;-3.0505;2.6979;3.6163;-8.5111;-3.264;-0.0294;-1.9014;3.4907;-1.2143;-2.3628;-1.8435;0.0;10.95;37.69;-1.22;8.39;73.48;-111.45;0.0;979.1;46.368;35.95321;-83.931854;790.66;NaN;;3.92;12.226105;51.3;12 / 18;210024;2022-10-17 20:06:10:084
6.4768;-8.0091;-3.0727;0.569;-9.642;1.6968;-0.8552;-2.3657;3.1115;1.1414;1.1635;0.2957;0.0;3.6;39.99;6.04;22.82;71.56;-98.73;0.0;977.72;46.525;35.953217;-83.93184;790.89;NaN;;4.43;12.226105;41.5;13 / 18;210523;2022-10-17 20:06:10:583
-2.3318;-14.5552;4.9905;2.0037;-9.5347;-1.1157;1.6167;-4.038;-3.4363;-1.1829;-0.5171;-1.3461;1.0;15.53;36.69;-8.19;1.75;76.48;-119.11;0.0;978.71;48.485;35.953217;-83.93184;790.89;NaN;;4.43;12.226105;41.5;13 / 18;211024;2022-10-17 20:06:11:084
-1.0986;-12.1959;5.0967;2.1589;-9.5646;0.1659;-9.3616;1.4569;-0.9512;0.585;-0.4138;2.1735;1.0;5.27;39.62;4.24;17.19;70.86;-105.08;0.0;978.59;51.814;35.953224;-83.93184;790.72;NaN;;4.03;12.226105;32.9;13 / 18;211524;2022-10-17 20:06:11:584
5.2337;-13.9636;-3.8303;2.7684;-9.3105;-1.3492;-3.7681;-6.561;8.3432;-2.3189;1.0504;-0.9509;0.0;13.71;37.97;-6.92;309.69;78.41;-44.51;0.0;978.41;46.201;35.953224;-83.93184;790.72;NaN;;4.03;12.226105;32.9;13 / 18;212024;2022-10-17 20:06:12:084
-4.177;-7.1749;3.2665;1.6594;-9.6434;0.6497;-6.5186;1.9064;2.3114;-0.4443;0.5566;-0.3081;1.0;4.93;39.39;6.28;15.24;79.53;-68.62;0.0;979.62;43.47;35.95323;-83.93182;789.3;NaN;;4.03;12.226105;44.7;12 / 18;212524;2022-10-17 20:06:12:584
-2.8947;-13.4701;6.4328;1.9292;-9.5217;-1.3365;0.3723;-3.9816;-4.6903;-3.4874;0.0583;-1.4841;0.0;13.69;37.86;-3.92;299.02;72.85;-1.92;0.0;978.66;44.891;35.95323;-83.93182;789.3;NaN;;4.03;12.226105;44.7;12 / 18;213024;2022-10-17 20:06:13:084
-5.7643;-6.1502;2.3572;2.839;-9.3867;-0.0251;0.8026;-1.0803;1.5439;0.294;1.9792;0.5846;0.0;5.44;39.0;10.05;32.13;73.17;-90.51;0.0;979.39;45.182;35.95324;-83.931816;788.1;NaN;;3.96;12.226105;38.5;12 / 18;213523;2022-10-17 20:06:13:583
8.9907;-12.7849;-1.287;-0.1562;-9.2467;3.2626;-1.0946;-0.5994;-2.1565;-3.1409;-0.1206;-1.402;0.0;12.0;38.7;-1.59;311.62;70.54;2.74;0.0;979.06;42.119;35.95324;-83.931816;788.1;NaN;;3.96;12.226105;38.5;12 / 18;214024;2022-10-17 20:06:14:084
3.5094;-9.3443;3.2871;2.6911;-9.4273;-0.2324;5.0315;-7.5503;-7.3245;0.1991;0.0631;-0.0721;0.0;7.16;38.61;6.26;25.48;70.69;-111.06;0.0;978.6;44.784;35.953247;-83.93181;788.64;NaN;;4.0;12.226105;51.2;12 / 18;214523;2022-10-17 20:06:14:583
0.2509;-10.5921;1.0528;0.9798;-9.4473;2.4411;5.3174;-2.0929;-2.7407;-0.4828;-0.0651;-0.4726;0.0;10.05;39.28;-2.66;318.56;68.91;-0.86;0.0;978.65;47.532;35.953247;-83.93181;788.64;NaN;;4.0;12.226105;51.2;12 / 18;215024;2022-10-17 20:06:15:084
8.1135;-15.0473;-8.3312;2.5371;-9.4378;-0.813;2.3508;-0.0303;-5.5158;1.7486;-0.0103;0.3961;0.0;8.19;38.42;5.23;28.8;68.7;-130.83;0.0;978.96;48.023;35.953247;-83.9318;791.23;NaN;;4.32;12.226105;75.1;12 / 18;215524;2022-10-17 20:06:15:584
3.2423;-11.036;-0.1792;-0.2659;-9.0856;3.6814;-1.2161;-0.0353;-3.9447;0.8208;0.9052;0.6219;1.0;9.92;39.23;-0.19;324.55;67.89;4.13;0.0;978.41;43.995;35.953247;-83.9318;791.23;NaN;;4.32;12.226105;75.1;12 / 18;216024;2022-10-17 20:06:16:084
-0.2405;-4.1429;-1.6259;2.7745;-9.3427;-1.0893;-5.3613;4.9744;3.6545;2.5733;0.5757;0.7971;1.0;8.04;38.27;4.05;21.07;72.31;-111.44;0.0;979.02;43.832;35.953255;-83.93179;790.64;NaN;;4.07;12.226105;60.7;12 / 18;216524;2022-10-17 20:06:16:584
2.7051;-9.0903;2.2783;1.2079;-9.632;1.3916;2.3944;-2.1127;-1.1092;0.9619;1.0236;0.1319;0.0;6.39;39.83;2.94;349.32;79.17;-40.96;0.0;978.42;43.873;35.953255;-83.93179;790.64;NaN;;4.07;12.226105;60.7;12 / 18;217024;2022-10-17 20:06:17:084
-1.5646;-3.4825;2.2149;3.5042;-8.6395;-3.0413;0.1345;-2.2998;1.9803;-0.2709;-1.9533;-0.1469;1.0;6.6;37.95;5.27;22.95;61.76;-130.95;0.0;978.47;48.699;35.953262;-83.93178;791.66;NaN;;3.71;12.226105;62.2;12 / 18;217523;2022-10-17 20:06:17:583
-2.3408;-8.4132;0.3858;1.1944;-9.7203;0.5086;-0.4515;-1.0584;0.5179;0.7568;-0.2107;0.9638;0.0;4.11;38.4;11.91;49.02;75.87;-100.86;0.0;977.99;56.734;35.953262;-83.93178;791.66;NaN;;3.71;12.226105;62.2;12 / 18;218024;2022-10-17 20:06:18:084
5.3303;-11.2654;-0.3338;0.0532;-9.2443;3.2727;4.4831;-1.7039;-3.2723;0.6757;0.3399;0.6481;0.0;13.11;38.29;-4.37;309.26;68.1;-1.06;0.0;978.52;46.716;35.953262;-83.93177;790.72;NaN;;3.89;12.226105;75.2;13 / 18;218524;2022-10-17 20:06:18:584
0.6215;-4.2906;-1.2141;2.1756;-9.3943;-1.7847;-3.3187;6.2162;1.7277;1.0381;-0.5106;0.2889;0.0;9.98;37.5;4.52;28.86;66.68;-131.71;0.0;978.86;55.544;35.953262;-83.93177;790.72;NaN;;3.89;12.226105;75.2;13 / 18;219023;2022-10-17 20:06:19:083
-0.5456;-9.3236;-1.0008;0.6911;-9.3264;2.9516;1.4204;1.6332;0.2559;1.1811;1.2974;0.1966;1.0;10.11;39.04;4.61;348.46;83.83;-47.66;0.0;978.76;57.908;35.953266;-83.93176;789.43;NaN;;3.85;12.226105;77.1;13 / 18;219524;2022-10-17 20:06:19:584
1.0687;-8.1506;1.1815;1.4224;-9.7029;0.0092;0.0103;-0.5852;-0.6748;-0.2489;0.2149;-1.3988;1.0;15.9;36.64;-5.04;346.44;81.66;-89.63;0.0;978.43;44.374;35.953266;-83.93176;789.43;NaN;;3.85;12.226105;77.1;13 / 18;220023;2022-10-17 20:06:20:083
-1.0101;-7.2547;7.0253;2.4523;-9.4674;-0.7249;-8.0692;-2.4573;-0.1908;1.6643;1.4709;1.621;0.0;3.81;39.45;9.24;40.56;74.88;-106.47;0.0;979.96;46.698;35.953278;-83.93175;791.39;NaN;;4.75;12.226105;39.3;13 / 18;220524;2022-10-17 20:06:20:584
8.0441;-13.6286;-3.5001;1.696;-9.6498;-0.4195;0.3858;-3.2365;-1.5589;-2.9008;-0.1161;-1.4267;0.0;15.75;37.26;-4.87;290.61;70.73;6.72;0.0;978.61;52.221;35.953278;-83.93175;791.39;NaN;;4.75;12.226105;39.3;13 / 18;221024;2022-10-17 20:06:21:084
-4.7638;-10.0657;0.0885;2.97;-9.3256;-0.6192;-3.3037;-3.2872;-0.6584;0.1857;-0.5695;-0.2294;0.0;5.44;39.99;6.24;23.49;71.98;-101.78;0.0;979.04;49.334;35.95328;-83.93174;794.78;NaN;;3.96;12.226105;54.6;13 / 18;221524;2022-10-17 20:06:21:584
1.5972;-13.1949;-2.6683;0.6437;-9.6187;1.7991;7.9049;-2.4601;-2.3148;-1.0053;-0.2358;-0.8977;0.0;15.11;36.71;-6.82;292.11;66.92;11.77;0.0;978.98;47.647;35.95328;-83.93174;794.78;NaN;;3.96;12.226105;54.6;13 / 18;222024;2022-10-17 20:06:22:084
6.2821;-8.7517;-2.6025;2.8629;-9.1695;-1.9732;2.7634;-2.8248;-6.0175;0.0927;-1.6274;-0.3747;0.0;6.88;38.79;6.21;29.07;69.23;-124.58;0.0;978.92;45.857;35.95329;-83.93172;796.52;NaN;;3.67;12.226105;37.6;14 / 18;222524;2022-10-17 20:06:22:584
2.2908;-11.3719;1.1142;0.4256;-9.1301;3.554;2.534;0.8897;-1.7581;0.4924;0.3693;0.69;0.0;11.79;38.19;-3.52;312.87;68.59;-6.83;0.0;978.39;48.46;35.95329;-83.93172;796.52;NaN;;3.67;12.226105;37.6;14 / 18;223024;2022-10-17 20:06:23:084
-1.5996;-3.4205;0.7247;2.4932;-9.3497;-1.5929;-4.4975;5.7599;4.0929;2.6983;0.1598;0.7292;0.0;12.08;37.14;0.43;14.53;69.97;-119.12;0.0;978.97;45.315;35.953293;-83.93171;795.63;NaN;;4.1;12.226105;57.6;14 / 18;223524;2022-10-17 20:06:23:584
3.5656;-8.3025;1.5194;-0.0064;-9.085;3.6923;0.8911;0.6911;-1.3403;1.2993;1.61;-0.0231;0.0;6.81;40.13;6.56;344.46;77.13;-15.85;0.0;978.42;47.832;35.953293;-83.93171;795.63;NaN;;4.1;12.226105;57.6;14 / 18;224024;2022-10-17 20:06:24:084
-3.3682;-1.9624;2.7248;2.7769;-9.1616;-2.1272;-5.1371;6.8043;4.6798;-1.6097;-2.0976;-1.4908;0.0;8.98;38.33;3.84;20.73;66.88;-118.02;0.0;979.02;46.052;35.953293;-83.93171;795.63;NaN;;4.1;12.226105;57.6;13 / 18;224524;2022-10-17 20:06:24:584
0.1866;-8.8331;1.9205;0.4317;-9.3732;2.8509;2.6846;1.81;-2.8888;1.3811;-0.7797;0.397;1.0;6.23;40.22;8.96;2.27;81.64;-37.16;0.0;978.32;48.134;35.953297;-83.931694;796.8;NaN;;3.92;12.226105;64.9;13 / 18;225025;2022-10-17 20:06:25:085
-3.7645;-2.1837;2.9976;3.4159;-8.742;-2.8423;-2.0598;0.2304;4.9853;0.5313;-1.6474;0.0868;0.0;6.68;38.23;8.04;31.33;63.05;-129.76;0.0;978.88;65.085;35.953297;-83.93168;799.06;NaN;;3.89;12.226105;58.5;13 / 18;225524;2022-10-17 20:06:25:584
3.4738;-8.4129;0.9485;0.9058;-9.6633;1.404;-3.1409;4.2175;4.8777;0.7016;1.1249;-0.0095;1.0;5.42;38.87;9.68;3.97;80.19;-32.83;0.0;979.46;59.67;35.953297;-83.93168;799.06;NaN;;3.89;12.226105;58.5;13 / 18;226023;2022-10-17 20:06:26:083
-1.2203;-3.7651;2.7123;3.3634;-8.8449;-2.574;-2.2943;-2.3285;2.2858;-0.6946;-1.8795;-0.6029;1.0;8.55;37.89;5.49;25.14;64.41;-127.43;0.0;978.39;66.615;35.953297;-83.93168;799.06;NaN;;3.89;12.226105;58.5;13 / 18;226523;2022-10-17 20:06:26:583
3.1496;-13.4581;5.4042;0.7933;-9.6597;1.4939;0.4336;-2.4829;5.5086;-0.3264;0.3451;1.563;0.0;5.04;38.49;11.53;3.59;80.07;-27.97;2.0;979.16;66.541;35.953304;-83.93166;802.6;NaN;;3.78;12.226105;60.0;13 / 18;227024;2022-10-17 20:06:27:084
2.8768;-11.187;0.1603;3.0776;-9.1858;-1.5229;-1.9352;-4.1972;12.9644;-0.9366;-1.8366;-1.8493;0.0;9.04;39.36;4.73;23.88;69.5;-116.33;2.0;978.32;54.93;35.953304;-83.93165;805.71;NaN;;4.0;12.226105;81.1;13 / 18;227524;2022-10-17 20:06:27:584
2.4706;-8.1206;0.6547;1.7094;-9.6379;-0.5988;-8.4132;-2.2481;-1.6082;1.2902;-0.9746;0.6817;2.0;3.92;38.85;11.78;60.99;79.36;-109.3;2.0;977.53;53.195;35.953304;-83.93165;805.71;NaN;;4.0;12.226105;81.1;13 / 18;228024;2022-10-17 20:06:28:084
5.4897;-10.3352;-4.4231;1.3727;-9.6464;-1.1105;4.5221;-4.7543;-4.7072;-3.5751;0.4223;-1.2556;2.0;16.11;36.98;-4.93;290.93;72.67;0.56;2.0;978.62;52.987;35.953304;-83.93164;808.25;NaN;;3.78;12.226105;75.7;13 / 18;228524;2022-10-17 20:06:28:584
-6.2378;-0.6212;5.7434;3.4481;-9.1796;0.1267;1.1454;-0.755;-4.5277;-0.8191;0.1329;-0.1429;7.0;3.94;40.18;3.64;12.11;69.4;-87.9;2.0;979.05;53.042;35.953304;-83.93164;808.25;NaN;;3.78;12.226105;75.7;13 / 18;229024;2022-10-17 20:06:29:084
3.2369;-11.9692;-5.4933;0.256;-9.0314;3.8129;-0.4102;-0.6018;-2.1091;0.6614;-0.005;0.3899;3.0;13.41;36.6;-12.86;283.31;67.07;-3.84;2.0;978.36;49.318;35.953312;-83.931625;806.65;NaN;;3.96;12.226105;51.8;13 / 18;229524;2022-10-17 20:06:29:584
8.0321;-15.594;-7.8514;2.3928;-9.4339;-1.2028;1.2558;1.6704;-5.0302;1.4615;0.2377;0.2102;2.0;10.65;37.39;0.13;21.76;67.49;-139.09;2.0;978.91;54.831;35.953312;-83.931625;806.65;NaN;;3.96;12.226105;51.8;13 / 18;230024;2022-10-17 20:06:30:084
0.4585;-9.993;2.6922;0.3598;-9.1834;3.4213;2.0282;0.653;-0.322;0.7793;-0.1475;0.6122;3.0;10.61;39.32;1.73;327.15;69.46;-6.0;2.0;978.19;52.72;35.95332;-83.93162;805.49;NaN;;3.78;12.226105;49.0;14 / 18;230523;2022-10-17 20:06:30:583
0.516;-3.2572;-1.2425;2.4949;-9.1791;-2.3855;-5.1368;6.9655;4.5413;0.2283;-1.435;0.3392;0.0;8.98;37.44;7.11;37.72;69.39;-133.72;2.0;978.91;62.341;35.95332;-83.93162;805.49;NaN;;3.78;12.226105;49.0;14 / 18;231024;2022-10-17 20:06:31:084
5.0524;-7.9543;0.2608;0.4133;-9.3294;2.9935;3.7605;1.5492;-2.1978;1.0965;1.1314;0.1675;0.0;9.71;38.85;8.79;339.76;81.99;-19.92;2.0;978.44;51.918;35.95332;-83.9316;808.34;NaN;;4.39;12.226105;67.6;15 / 18;231523;2022-10-17 20:06:31:583
-2.2457;-4.0792;1.8461;3.0554;-9.0503;-2.2198;-2.8659;-2.6501;4.323;0.4005;-1.7334;-0.0194;0.0;11.89;39.73;4.91;27.14;67.35;-126.0;2.0;978.83;56.001;35.95332;-83.9316;808.34;NaN;;4.39;12.226105;67.6;15 / 18;232024;2022-10-17 20:06:32:084
1.3256;-9.0915;2.7434;0.6239;-9.6506;1.6269;2.1712;-4.0234;1.8791;0.8582;0.9334;-0.2323;0.0;8.79;42.34;5.18;336.53;79.77;-20.98;2.0;977.73;64.622;35.953327;-83.931595;808.17;NaN;;3.78;12.226105;60.4;15 / 18;232523;2022-10-17 20:06:32:583
-0.128;-6.6984;1.9911;3.8212;-8.6579;-2.5708;0.9693;-2.6262;2.3938;-1.0778;-1.5315;-2.1068;0.0;10.65;39.08;-2.31;4.64;75.84;-108.76;2.0;979.01;59.146;35.953327;-83.931595;808.17;NaN;;3.78;12.226105;60.4;15 / 18;233024;2022-10-17 20:06:33:084
4.7815;-12.087;-1.6902;0.8772;-9.6676;1.3923;-2.5959;-5.3536;2.3765;1.6785;-0.9263;2.0973;0.0;3.36;37.93;2.87;354.87;80.34;-32.21;2.0;977.43;58.78;35.95333;-83.93158;805.68;NaN;;3.85;12.226105;47.8;15 / 18;233524;2022-10-17 20:06:33:584
-1.1614;-12.612;6.2809;1.076;-9.7361;0.4707;3.8278;-2.5151;-3.3465;-0.4287;1.2289;-1.5242;0.0;13.39;35.46;-5.06;325.08;83.12;-66.37;2.0;978.43;64.467;35.95333;-83.93158;805.68;NaN;;3.85;12.226105;47.8;15 / 18;234023;2022-10-17 20:06:34:083
11.7796;-14.4888;-1.8066;2.9327;-9.3537;0.2793;6.1669;-3.1947;-1.4291;-0.6128;-0.854;-0.2003;0.0;2.25;37.95;6.81;25.92;72.52;-84.56;2.0;978.68;60.784;35.953335;-83.931564;803.91;NaN;;3.85;12.239131;53.6;15 / 18;234524;2022-10-17 20:06:34:584
7.8847;-13.6223;-0.7436;0.0375;-9.2887;3.1446;-1.028;-0.2205;-3.0184;-1.362;0.0318;-1.0729;0.0;11.94;37.59;-5.61;298.81;71.3;-0.68;2.0;978.75;64.556;35.953335;-83.931564;803.91;NaN;;3.85;12.239131;53.6;15 / 18;235024;2022-10-17 20:06:35:084
8.4538;-12.3374;-5.0836;2.1798;-9.5143;-0.9468;-2.3763;5.0843;0.7608;0.3158;-0.7167;-0.0529;0.0;8.06;37.88;7.07;35.2;75.98;-113.48;2.0;978.81;67.195;35.953342;-83.93156;805.38;NaN;;3.49;12.694178;35.6;15 / 18;235523;2022-10-17 20:06:35:583
-1.3834;-10.308;0.3153;0.124;-9.2393;3.285;0.279;0.2932;-2.1598;1.2441;1.3863;-0.0763;0.0;11.49;37.91;-1.44;312.0;79.66;-20.09;2.0;978.15;60.193;35.953342;-83.93156;805.38;NaN;;3.49;12.694178;35.6;15 / 18;236023;2022-10-17 20:06:36:083
-2.91;-3.2154;0.9302;3.0683;-9.0061;-2.3761;1.0102;-0.0912;2.9208;1.387;-1.1778;0.2655;1.0;12.08;36.79;-1.46;15.33;66.69;-127.76;2.0;978.66;56.21;35.953354;-83.93155;807.28;NaN;;3.82;12.569536;41.2;16 / 18;236524;2022-10-17 20:06:36:584
1.9104;-9.2749;3.4881;0.6347;-9.632;1.7296;5.609;0.3842;-5.5037;0.5882;1.6822;-0.4476;1.0;7.67;39.3;-0.09;323.19;79.17;-20.15;2.0;979.39;55.763;35.953354;-83.93155;807.28;NaN;;3.82;12.569536;41.2;16 / 18;237023;2022-10-17 20:06:37:083
2.6575;-8.7458;1.6687;3.5024;-8.8892;-2.2105;-4.8414;-6.4809;5.5341;-0.9549;-1.6442;-1.5267;1.0;14.38;36.43;-10.07;347.57;78.37;-108.14;2.0;978.63;60.723;35.953358;-83.93154;808.33;NaN;;3.89;12.596459;26.5;16 / 18;237527;2022-10-17 20:06:37:587
1.6268;-15.6012;2.5331;2.3302;-9.5214;0.2884;-4.8007;1.8518;2.864;0.6201;0.5766;2.1958;1.0;4.97;39.9;0.08;357.56;76.15;-82.94;2.0;977.78;49.152;35.953358;-83.93154;808.33;NaN;;3.89;12.596459;26.5;16 / 18;238024;2022-10-17 20:06:38:084
-0.268;-7.0962;1.6531;2.2625;-9.5237;-0.5926;-4.7109;-2.7842;7.4023;-0.6002;-0.1304;-1.7281;0.0;14.01;37.05;-7.31;352.25;76.2;-104.68;2.0;978.74;56.931;35.95336;-83.93153;809.06;NaN;;3.67;12.918506;39.8;16 / 18;238527;2022-10-17 20:06:38:587
-0.51;-13.8535;4.3155;2.214;-9.5266;0.7166;3.4783;-4.7072;-1.5403;-0.2204;-0.5697;2.5528;0.0;3.23;40.05;2.57;12.66;69.53;-103.35;2.0;977.72;56.337;35.95336;-83.93153;809.06;NaN;;3.67;12.918506;39.8;16 / 18;239024;2022-10-17 20:06:39:084
-3.2883;-13.7901;6.8662;0.7047;-9.554;2.0966;4.1102;-2.1498;-4.1561;-2.6832;0.4289;-1.6733;1.0;14.55;36.15;-13.59;269.53;76.97;-18.58;2.0;978.35;49.684;35.95337;-83.931526;809.18;NaN;;3.67;12.612977;27.1;16 / 18;239524;2022-10-17 20:06:39:584
10.3208;-14.6626;-6.1361;2.954;-9.3307;0.6188;1.1811;3.3119;-3.4157;-0.3258;0.9822;-0.3328;0.0;6.28;39.38;3.79;8.32;72.08;-78.17;2.0;979.28;50.585;35.95337;-83.931526;809.18;NaN;;3.67;12.612977;27.1;16 / 18;240024;2022-10-17 20:06:40:084
6.0841;-12.3174;-2.6623;0.0155;-9.3014;3.1072;1.8828;-0.5211;-2.794;0.4448;-0.6502;0.4789;0.0;14.51;37.89;-5.92;293.13;71.53;-0.29;2.0;978.4;56.353;35.953377;-83.93152;808.83;NaN;;3.78;12.915265;45.0;16 / 18;240524;2022-10-17 20:06:40:584
6.3721;-14.9453;-1.8829;2.6141;-9.417;-0.8102;-6.5276;6.8536;4.0902;-0.1382;-0.6141;-0.368;0.0;9.08;38.4;7.2;29.0;73.79;-107.22;2.0;978.65;59.932;35.953377;-83.93152;808.83;NaN;;3.78;12.915265;45.0;16 / 18;241024;2022-10-17 20:06:41:084
6.3574;-12.9751;-1.6017;0.1738;-9.1464;3.5331;-1.3245;-0.2804;-2.8458;0.2537;-0.6576;0.4534;0.0;9.86;39.34;1.88;328.98;74.99;-17.55;2.0;978.48;61.014;35.953377;-83.9315;809.38;NaN;;3.96;12.755033;65.7;16 / 18;241525;2022-10-17 20:06:41:585
4.6062;-11.4;-7.1264;2.3142;-9.4538;-1.2;-2.2633;5.25;0.1877;2.1403;0.4355;0.5934;0.0;10.91;36.9;5.34;30.46;63.63;-138.38;2.0;978.52;49.511;35.953377;-83.9315;809.38;NaN;;3.96;12.755033;65.7;16 / 18;242024;2022-10-17 20:06:42:084
-0.542;-9.1259;0.0796;0.6387;-9.3026;3.0371;1.4444;0.8096;0.5712;1.5525;1.6271;-0.3058;0.0;11.36;37.01;5.7;339.78;80.88;-32.09;0.0;979.46;51.923;35.95338;-83.93149;810.92;NaN;;3.71;12.739808;70.2;15 / 18;242523;2022-10-17 20:06:42:583
6.0027;-9.6589;-1.1462;2.9317;-8.895;-2.9076;-2.4534;-0.8686;5.5086;-0.2968;-1.9319;-0.533;0.0;13.22;34.31;6.83;37.79;65.1;-134.76;2.0;979.01;54.904;35.95338;-83.93149;810.92;NaN;;3.71;12.739808;70.2;15 / 18;243023;2022-10-17 20:06:43:083
-0.5545;-13.7719;5.2104;1.2251;-9.7283;-0.1723;-4.032;8.0383;5.3145;1.4392;2.7203;0.8335;1.0;12.66;35.74;11.1;38.81;82.75;-98.01;0.0;978.81;56.673;35.95339;-83.93148;810.66;NaN;;4.25;12.661759;41.9;16 / 17;243526;2022-10-17 20:06:43:586
-0.449;-13.0618;3.6511;1.0145;-9.6724;1.2596;5.7486;-3.4142;-4.715;-2.5593;1.1896;-0.6674;0.0;17.29;36.09;-4.05;310.35;80.51;-38.85;0.0;978.35;54.652;35.95339;-83.93148;810.66;NaN;;4.25;12.661759;41.9;16 / 17;244024;2022-10-17 20:06:44:084
-2.2352;-12.9383;6.4863;2.466;-9.4751;-0.5588;-5.5069;-2.7691;0.6251;0.5533;1.0747;1.8982;0.0;7.05;39.08;10.5;39.79;74.43;-102.65;0.0;979.37;51.189;35.953396;-83.93147;812.04;NaN;;4.0;12.335184;48.8;14 / 18;244524;2022-10-17 20:06:44:584
-3.1558;-13.2805;3.8722;2.277;-9.4689;-1.1509;-5.2162;-6.1723;6.6221;-2.4852;1.1373;-1.0187;0.0;14.96;37.84;-2.64;312.86;78.19;-32.64;0.0;978.15;45.538;35.953396;-83.93147;812.04;NaN;;4.0;12.335184;48.8;14 / 18;245023;2022-10-17 20:06:45:083
-1.9481;-9.1678;5.755;1.1051;-9.742;0.207;-6.9893;2.2091;1.0551;0.232;2.5098;1.4565;0.0;7.74;38.87;8.79;35.52;72.0;-112.05;0.0;979.19;46.382;35.9534;-83.93146;816.11;NaN;;3.85;12.226105;59.9;14 / 18;245524;2022-10-17 20:06:45:584
6.5435;-13.3448;-4.838;2.0425;-9.5817;-0.4346;2.4919;-3.2046;-4.2523;-2.4549;0.609;-0.7229;0.0;14.55;38.21;-4.73;303.83;68.05;-2.58;0.0;978.43;50.954;35.9534;-83.93146;816.11;NaN;;3.85;12.226105;59.9;14 / 18;246024;2022-10-17 20:06:46:084
-6.4672;-11.4009;-2.0243;2.1605;-9.4253;-1.6329;-4.2771;1.3125;1.0931;0.4234;1.3543;-0.053;0.0;7.29;38.19;13.63;61.53;70.88;-133.61;0.0;979.68;48.959;35.9534;-83.93145;820.99;NaN;;3.82;12.226105;60.6;15 / 18;246524;2022-10-17 20:06:46:584
3.0188;-13.2242;-3.6715;-0.1379;-9.2451;3.268;0.5373;-1.5407;-2.9737;-2.8872;-0.6296;-1.266;0.0;13.97;38.29;0.86;312.95;70.52;2.42;0.0;978.77;44.95;35.9534;-83.93145;820.99;NaN;;3.82;12.226105;60.6;15 / 18;247024;2022-10-17 20:06:47:084
3.9126;-5.7081;0.3404;2.4655;-9.2675;-2.0507;-0.4074;2.7247;-2.9709;-0.0716;-1.9362;-0.3628;0.0;7.31;37.44;12.81;57.19;70.91;-129.75;0.0;978.66;48.199;35.953403;-83.931435;824.71;NaN;;3.6;12.226105;51.0;15 / 18;247524;2022-10-17 20:06:47:584
1.8323;-11.6677;-1.1474;-0.3381;-9.0497;3.7627;-0.8158;-0.5761;-2.3657;1.336;1.808;-0.0684;1.0;12.86;38.08;1.8;322.51;72.43;-12.38;2.0;978.25;49.931;35.953403;-83.931435;824.71;NaN;;3.6;12.226105;51.0;15 / 18;248024;2022-10-17 20:06:48:084
5.1497;-9.0153;-5.4069;2.5987;-9.3955;-1.0684;-5.4949;7.8993;2.7069;2.1929;-0.0661;0.7099;0.0;12.38;37.41;2.89;23.65;61.81;-132.33;2.0;978.88;48.244;35.953407;-83.93143;828.48;NaN;;3.78;12.226105;47.3;15 / 18;248524;2022-10-17 20:06:48:584
1.3499;-8.5463;2.2172;-0.0061;-9.0447;3.79;-0.0057;0.8197;-2.7558;1.0447;-0.1649;0.934;0.0;12.26;38.7;-2.77;310.62;76.69;-21.4;0.0;978.13;51.977;35.953407;-83.93143;828.48;NaN;;3.78;12.226105;47.3;15 / 18;249024;2022-10-17 20:06:49:084
-4.4016;-0.8148;3.1388;3.0165;-8.9455;-2.6549;-4.8488;5.0691;5.7135;-0.6146;-2.3394;0.015;0.0;11.29;38.14;1.8;21.82;65.81;-131.35;0.0;978.99;52.783;35.953415;-83.93141;828.57;NaN;;4.1;12.226105;55.9;15 / 18;249524;2022-10-17 20:06:49:584
-1.1136;-9.8073;0.3018;0.6926;-9.5788;1.9844;2.6233;-3.0895;-0.1282;1.4715;1.9167;-0.221;1.0;8.59;40.37;4.13;334.66;77.62;-19.24;0.0;978.18;52.326;35.953415;-83.93141;828.57;NaN;;4.1;12.226105;55.9;15 / 18;250024;2022-10-17 20:06:50:084
