sep=;
ACCELEROMETER X (m/s²);ACCELEROMETER Y (m/s²);ACCELEROMETER Z (m/s²);GRAVITY X (m/s²);GRAVITY Y (m/s²);GRAVITY Z (m/s²);LINEAR ACCELERATION X (m/s²);LINEAR ACCELERATION Y (m/s²);LINEAR ACCELERATION Z (m/s²);GYROSCOPE X (rad/s);GYROSCOPE Y (rad/s);GYROSCOPE Z (rad/s);LIGHT (lux);MAGNETIC FIELD X (μT);MAGNETIC FIELD Y (μT);MAGNETIC FIELD Z (μT);ORIENTATION Z (azimuth °);ORIENTATION X (pitch °);ORIENTATION Y (roll °);PROXIMITY (i);ATMOSPHERIC PRESSURE (hPa);SOUND LEVEL (dB);LOCATION Latitude : ;LOCATION Longitude : ;LOCATION Altitude ( m);LOCATION Altitude-google ( m);LOCATION Altitude-atmospheric pressure ( m);LOCATION Speed ( Kmh);LOCATION Accuracy ( m);LOCATION ORIENTATION (°);Satellites in range;Time since start in ms ;YYYY-MO-DD HH-MI-SS_SSS
-0.8043;4.453;9.0054;-0.3508;1.6009;9.6687;-0.8614;0.7813;-1.8952;-1.1508;1.2212;-0.2943;30132.998;5.03;-37.44;-24.69;183.98;-20.89;7.32;5.0;979.57;52.92;35.958263;-83.92478;787.28;NaN;;4.75;20.165695;142.1;12 / 18;26;2022-10-13 12:43:20:556
0.0502;1.0714;10.2108;-0.2561;1.0748;9.7442;0.255;-0.3163;0.4422;-0.5197;0.1003;-0.3673;44558.0;-2.38;-32.74;-31.28;173.89;-8.55;1.85;5.0;979.58;55.583;35.958256;-83.92478;782.49;NaN;;4.46;18.575172;145.2;12 / 18;527;2022-10-13 12:43:21:057
0.2118;-0.0933;9.1035;-0.727;0.3274;9.7742;-1.5887;0.6096;1.5035;0.0964;-1.0013;0.6663;84924.0;0.47;-26.89;-35.29;174.26;-1.91;4.25;5.0;979.54;56.954;35.958256;-83.92478;782.49;NaN;;4.46;18.575172;145.2;12 / 18;1026;2022-10-13 12:43:21:556
2.2672;0.3006;8.5576;1.2734;-0.177;9.722;0.9396;-1.6139;2.8593;-0.055;0.035;-0.479;99600.0;-6.54;-22.26;-39.92;175.61;1.03;-7.46;5.0;979.57;55.35;35.95825;-83.924774;780.98;NaN;;4.75;16.346098;148.6;12 / 18;1526;2022-10-13 12:43:22:056
0.9924;-0.65;9.9512;0.2077;0.0794;9.8041;0.5069;-0.9233;0.5421;0.8931;-0.4663;0.8712;99131.0;-5.59;-22.37;-41.25;167.79;3.47;-0.99;5.0;979.54;57.485;35.95825;-83.924774;780.98;NaN;;4.75;16.346098;148.6;12 / 18;2027;2022-10-13 12:43:22:557
2.345;0.0455;10.3256;0.6744;-0.3311;9.7778;0.4467;-0.4587;1.4975;0.0978;-0.2788;-0.0234;84134.0;-7.01;-25.18;-41.16;166.56;-1.96;-1.9;5.0;979.53;56.492;35.958237;-83.92477;777.44;NaN;;4.79;15.350099;152.1;12 / 18;2527;2022-10-13 12:43:23:057
-0.8991;0.2827;8.2035;0.1087;-0.4161;9.7972;-1.2014;-1.495;3.2142;-0.1579;0.3412;0.4868;105318.0;-6.04;-23.08;-41.61;169.33;5.06;-1.34;5.0;979.54;54.227;35.958237;-83.92477;777.44;NaN;;4.79;15.350099;152.1;12 / 18;3029;2022-10-13 12:43:23:559
1.9259;1.2879;10.7686;0.2896;0.5997;9.784;0.0934;-1.6403;-0.712;0.2244;-0.8976;-0.3332;95628.0;-7.11;-24.94;-38.27;165.45;-3.51;-1.7;5.0;979.55;58.52;35.958225;-83.92477;775.8;NaN;;4.32;15.484321;154.8;12 / 18;3527;2022-10-13 12:43:24:057
-0.0036;1.78;10.8691;0.6782;2.3008;9.5088;0.184;0.4157;0.7745;0.2427;0.1249;-0.0022;32036.0;-12.17;-30.71;-32.21;158.22;-15.07;-6.11;5.0;979.53;55.381;35.958225;-83.92477;775.8;NaN;;4.32;15.484321;154.8;12 / 18;4027;2022-10-13 12:43:24:557
-0.5758;-0.1005;12.4158;0.6961;2.0871;9.5567;0.4271;0.7371;-1.1632;-0.2871;-0.0773;-0.5098;38617.0;-12.6;-30.53;-33.21;155.4;-12.29;-4.17;5.0;979.55;54.797;35.958218;-83.92476;772.74;NaN;;4.68;14.721355;156.7;12 / 18;4528;2022-10-13 12:43:25:058
-2.7054;1.7225;9.9404;-0.8506;2.7131;9.3854;0.8607;1.7315;1.3571;-2.4506;1.2616;-0.3003;32659.002;-12.58;-33.09;-32.87;145.24;-16.06;5.18;5.0;979.56;55.68;35.958218;-83.92476;772.74;NaN;;4.68;14.721355;156.7;12 / 18;5027;2022-10-13 12:43:25:557
-0.0239;0.8055;10.4312;0.8935;2.2513;9.5028;0.7417;-0.4786;1.2519;-0.43;-0.6911;-0.0694;64219.0;-8.74;-29.94;-34.44;159.09;-15.27;-2.35;5.0;979.5;56.285;35.958202;-83.92476;776.02;NaN;;4.68;15.230403;154.0;11 / 18;5527;2022-10-13 12:43:26:057
-0.9829;1.7895;9.6673;0.7462;2.6058;9.4246;-0.2636;-0.402;2.8385;0.8687;0.1455;0.4016;38313.0;-13.86;-33.81;-30.32;157.68;-12.6;-5.94;5.0;979.51;56.117;35.958202;-83.92476;776.02;NaN;;4.68;15.230403;154.0;11 / 18;6026;2022-10-13 12:43:26:556
2.9363;4.1118;9.4017;1.2167;3.6712;9.0118;1.7282;1.2377;-0.0247;0.1323;-0.1416;-0.0017;21619.0;-15.21;-37.41;-25.69;154.76;-23.76;-9.24;5.0;979.52;55.632;35.95819;-83.92475;774.77;NaN;;4.79;15.141535;157.3;11 / 18;6526;2022-10-13 12:43:27:056
0.5782;5.3414;8.6055;0.7828;4.6905;8.5766;0.5931;0.0654;1.5794;-0.4283;0.5566;0.3411;19693.0;-14.85;-40.26;-22.65;151.36;-28.57;-5.21;5.0;979.53;54.94;35.95819;-83.92475;774.77;NaN;;4.79;15.141535;157.3;11 / 18;7026;2022-10-13 12:43:27:556
1.6747;1.6687;12.4588;1.4461;2.992;9.2264;1.0122;0.2864;1.779;-0.1271;0.1813;-0.4025;21001.0;-15.43;-38.91;-24.0;159.18;-17.76;-8.91;5.0;979.53;58.371;35.95818;-83.92474;775.3;NaN;;5.18;15.276504;148.5;11 / 18;7527;2022-10-13 12:43:28:057
-4.3537;5.2035;7.223;-3.6876;4.0626;8.1282;0.4489;0.1118;-0.5052;0.9145;1.6161;-1.5906;25669.0;-13.29;-37.14;-26.46;139.53;-29.05;12.23;5.0;979.49;56.157;35.95818;-83.92474;775.3;NaN;;5.18;15.276504;148.5;11 / 18;8026;2022-10-13 12:43:28:556
-3.6449;2.3127;10.692;-1.4687;2.7111;9.3093;-0.3853;1.0494;2.0922;0.058;-0.4891;0.0376;24568.0;-0.83;-39.51;-24.36;167.69;-19.09;13.57;5.0;979.53;55.689;35.958168;-83.924736;775.22;NaN;;4.9;15.269913;149.1;11 / 18;8527;2022-10-13 12:43:29:057
-0.7552;2.1966;11.2104;0.3586;2.8139;9.3874;-1.0564;-0.6916;1.2952;-0.2348;-0.0405;0.5588;28496.998;-8.74;-38.03;-26.78;163.06;-18.25;-1.27;5.0;979.51;57.541;35.958168;-83.924736;775.22;NaN;;4.9;15.269913;149.1;11 / 18;9027;2022-10-13 12:43:29:557
1.7489;2.6755;8.9839;0.6687;3.1914;9.2487;0.1777;0.929;-0.3259;-0.4558;-0.4946;-0.6984;25318.0;-17.81;-38.44;-24.99;149.48;-18.99;-4.14;5.0;979.49;57.137;35.958153;-83.924736;774.58;NaN;;4.68;15.109294;152.0;11 / 18;9528;2022-10-13 12:43:30:058
-0.4274;0.6559;11.3946;-0.1446;1.498;9.6905;0.0992;0.4714;0.7918;0.2971;-0.7224;0.3796;52694.0;-15.6;-38.34;-25.29;152.45;-10.71;2.62;5.0;979.47;55.928;35.958153;-83.924736;774.58;NaN;;4.68;15.109294;152.0;11 / 18;10026;2022-10-13 12:43:30:556
1.2066;0.5327;11.4509;1.0669;2.0595;9.5284;0.0074;0.5796;-0.0854;-0.5753;-0.429;-0.6654;44201.0;-13.37;-36.26;-26.44;161.21;-12.12;-6.39;5.0;979.51;56.486;35.958138;-83.924736;776.67;NaN;;4.72;14.548283;141.7;11 / 18;10527;2022-10-13 12:43:31:057
0.0562;0.1627;13.0454;1.09;1.8637;9.566;-0.7909;-0.001;1.0073;0.1627;0.5873;0.3079;48944.0;-11.17;-37.16;-25.72;165.63;-10.96;-6.5;5.0;979.5;55.338;35.958138;-83.924736;776.67;NaN;;4.72;14.548283;141.7;11 / 18;11026;2022-10-13 12:43:31:556
1.555;2.3964;9.2351;0.4167;2.1945;9.5489;0.9433;-0.2143;1.8402;-0.736;-0.2923;-0.5677;38384.0;-10.35;-37.12;-23.7;162.97;-16.08;-2.8;5.0;979.49;55.598;35.958122;-83.92473;777.55;NaN;;4.79;14.452042;148.9;11 / 18;11526;2022-10-13 12:43:32:056
-1.8924;1.6579;7.9783;-0.7198;2.8883;9.344;-0.8943;0.2061;0.0236;-0.6263;-0.4549;-0.3108;32195.002;-6.56;-37.69;-22.78;163.63;-16.46;4.66;5.0;979.49;54.948;35.958122;-83.92473;777.55;NaN;;4.79;14.452042;148.9;11 / 18;12027;2022-10-13 12:43:32:557
0.8752;0.7744;11.4413;-0.4501;1.5155;9.6784;0.306;-0.6776;1.1419;0.6105;0.0649;-0.1136;77460.0;-3.97;-32.66;-26.31;170.6;-5.71;2.23;5.0;979.46;54.991;35.95811;-83.92473;776.88;NaN;;4.75;14.413703;153.5;11 / 18;12527;2022-10-13 12:43:33:057
-1.6663;1.2317;11.208;-0.5762;2.5148;9.4612;0.2033;0.345;1.0615;0.1056;0.0664;0.0108;37032.0;-2.36;-34.8;-23.01;173.08;-14.86;3.49;5.0;979.47;56.177;35.95811;-83.92473;776.88;NaN;;4.75;14.413703;153.5;11 / 18;13027;2022-10-13 12:43:33:557
2.0554;3.2118;10.2658;0.3139;3.1779;9.2722;-0.3206;0.8799;0.4674;-0.6322;-0.186;-0.3816;25558.0;-3.62;-35.98;-19.09;173.13;-18.91;-1.94;5.0;979.45;55.725;35.958096;-83.92472;776.03;NaN;;4.75;14.545861;146.7;11 / 18;13526;2022-10-13 12:43:34:056
-1.343;2.7832;11.0213;-0.2886;2.4488;9.4916;-0.6761;0.2205;1.4493;-0.0905;0.5672;0.0596;30467.002;-4.65;-34.48;-18.68;169.19;-14.94;1.03;5.0;979.47;56.246;35.958096;-83.92472;776.03;NaN;;4.75;14.545861;146.7;11 / 18;14026;2022-10-13 12:43:34:556
-1.5203;1.2269;12.1322;-1.9194;0.8617;9.5783;0.5248;1.7681;-1.3504;-0.2799;-0.751;-0.5301;33962.0;-3.21;-29.98;-20.68;170.31;-14.83;2.86;5.0;979.44;55.716;35.958084;-83.92472;775.35;NaN;;4.72;14.447221;142.3;10 / 18;14527;2022-10-13 12:43:35:057
2.0148;2.7138;10.3472;0.0205;1.8934;9.6221;-0.8302;-0.0769;0.4697;0.1975;-9.0E-4;-0.2754;56549.0;-5.38;-25.16;-25.01;167.16;-10.36;-0.97;5.0;979.44;56.793;35.958084;-83.92472;775.35;NaN;;4.72;14.447221;142.3;10 / 18;15026;2022-10-13 12:43:35:556
-0.067;3.1029;10.3113;-0.0525;2.4985;9.4829;-0.3546;0.4482;-2.2282;-0.056;-0.2566;-0.0381;53003.0;-8.46;-28.18;-26.74;158.04;-14.76;0.32;5.0;979.44;56.129;35.958073;-83.92471;774.33;NaN;;4.64;13.414637;147.3;10 / 18;15527;2022-10-13 12:43:36:057
0.2321;3.2704;9.6362;0.4151;3.0031;9.3263;0.7012;0.4629;-0.9814;0.2361;0.0041;-0.0387;38183.0;-11.1;-31.16;-27.81;156.86;-13.73;-2.06;5.0;979.46;55.753;35.958073;-83.92471;774.33;NaN;;4.64;13.414637;147.3;10 / 18;16026;2022-10-13 12:43:36:556
-0.2668;4.2568;8.5134;-0.9608;3.7441;9.0127;1.2256;-1.0449;-1.7476;0.3955;-0.0613;0.0355;24403.0;-10.78;-36.56;-26.38;151.07;-22.44;6.09;5.0;979.41;55.71;35.958057;-83.92471;775.7;NaN;;4.68;12.813378;159.5;10 / 18;16527;2022-10-13 12:43:37:057
-0.4298;4.9439;8.5026;-0.4705;4.4428;8.7299;0.6215;-0.2057;-0.4121;0.3418;0.1358;0.1616;18882.0;-9.73;-41.93;-23.27;157.64;-26.94;3.09;5.0;979.39;55.987;35.958057;-83.92471;775.7;NaN;;4.68;12.813378;159.5;10 / 18;17027;2022-10-13 12:43:37:557
-1.0439;4.8733;7.7246;-0.3418;4.5756;8.6671;-0.2061;0.0621;-1.3261;0.2751;0.1332;0.2899;19471.0;-8.7;-43.31;-22.89;160.68;-26.7;2.28;5.0;979.45;56.838;35.958042;-83.92471;772.7;NaN;;4.46;12.226105;152.9;10 / 18;17527;2022-10-13 12:43:38:057
0.1974;4.9187;7.9472;-0.3377;4.7958;8.5473;0.3385;-0.2464;-1.1641;0.1788;0.6202;-0.0419;15898.0;-9.06;-45.3;-21.45;162.42;-30.62;-0.36;5.0;979.42;56.792;35.958042;-83.92471;772.7;NaN;;4.46;12.226105;152.9;10 / 18;18027;2022-10-13 12:43:38:557
-1.1001;5.1688;7.794;-0.9623;4.7643;8.5174;-0.1826;-0.3454;-1.0572;-0.4521;-0.1895;-0.0276;16138.0;-6.56;-45.34;-20.03;161.95;-31.02;6.96;5.0;979.37;55.527;35.95803;-83.92471;771.09;NaN;;4.32;12.226105;154.0;10 / 18;18527;2022-10-13 12:43:39:057
-0.3999;4.6373;7.8957;-0.442;4.778;8.5525;0.9313;-0.5311;1.0163;-0.3741;-0.1834;-0.1633;18851.0;-6.94;-43.2;-20.89;163.64;-29.16;2.96;5.0;979.43;56.0;35.95803;-83.92471;771.09;NaN;;4.32;12.226105;154.0;10 / 18;19027;2022-10-13 12:43:39:557
-0.0826;3.955;7.6289;-0.2095;3.8366;9.0226;0.2789;0.1353;-0.788;0.0146;0.1507;0.4529;19877.0;-8.78;-40.61;-22.5;161.97;-23.03;1.33;5.0;979.37;57.101;35.95802;-83.92471;769.55;NaN;;4.72;12.226105;154.6;10 / 18;19526;2022-10-13 12:43:40:056
0.1244;3.5755;8.4787;0.4019;3.9301;8.9757;0.2414;-0.822;-0.7615;-0.2519;-0.335;-0.4248;20848.0;-12.24;-38.42;-24.22;156.2;-24.13;-2.67;5.0;979.36;56.343;35.95802;-83.92471;769.55;NaN;;4.72;12.226105;154.6;10 / 18;20027;2022-10-13 12:43:40:557
-0.1807;3.2237;7.7318;0.0791;3.5323;9.1481;-1.9376;-2.5972;1.8498;0.0531;0.0745;0.1805;21969.0;-12.3;-38.19;-24.22;157.61;-20.69;-2.16;5.0;979.37;55.767;35.958008;-83.92472;766.41;NaN;;4.43;12.226105;159.4;10 / 18;20526;2022-10-13 12:43:41:056
0.1819;2.4419;8.3602;1.1185;3.5131;9.0872;-0.0721;-0.7629;0.7751;-0.4384;-0.4126;-0.0661;20314.0;-14.92;-38.08;-22.86;154.6;-22.79;-6.96;5.0;979.36;56.13;35.958008;-83.92472;766.41;NaN;;4.43;12.226105;159.4;10 / 18;21027;2022-10-13 12:43:41:557
-0.1974;2.7209;7.9735;0.1689;3.9623;8.969;0.3821;0.9558;0.8055;-0.5918;0.0414;0.2821;20959.0;-13.22;-37.93;-21.84;153.98;-23.83;-1.08;5.0;979.49;56.015;35.958;-83.92472;768.59;NaN;;4.39;12.226105;154.1;10 / 18;21526;2022-10-13 12:43:42:056
2.6815;4.7091;7.9591;1.3877;4.5572;8.5719;0.3528;-0.2071;0.1137;-0.1911;0.2959;-0.4628;17982.0;-12.52;-37.28;-20.31;155.25;-26.52;-5.84;5.0;979.34;56.38;35.958;-83.92472;768.59;NaN;;4.39;12.226105;154.1;10 / 18;22027;2022-10-13 12:43:42:557
-2.4969;3.6006;11.0345;-1.6829;4.4063;8.5978;-2.2843;1.1454;-0.3149;-0.5967;-0.7686;0.5002;20452.0;-8.36;-38.48;-17.03;157.73;-26.7;11.07;5.0;979.38;56.842;35.95799;-83.92471;769.84;NaN;;4.39;12.226105;155.5;10 / 18;22526;2022-10-13 12:43:43:056
1.9044;3.7313;10.582;0.8014;4.4506;8.7017;0.042;0.1259;1.8436;0.1149;-0.3806;-0.1119;22073.0;-13.29;-35.4;-18.92;153.08;-26.99;-5.26;5.0;979.38;56.863;35.95799;-83.92471;769.84;NaN;;4.39;12.226105;155.5;10 / 18;23027;2022-10-13 12:43:43:557
-1.8494;1.8529;12.6168;0.1448;3.7356;9.0661;-0.2968;0.099;2.2193;-0.6143;0.4188;0.1565;19503.0;-16.48;-36.09;-16.44;148.97;-24.97;-2.02;5.0;979.37;56.386;35.957977;-83.92471;768.86;NaN;;4.54;12.226105;156.2;10 / 18;23526;2022-10-13 12:43:44:056
-2.2277;0.2584;12.7546;0.1521;3.7998;9.0393;0.0336;0.8995;0.2577;-1.6587;0.4857;-0.7651;21799.0;-17.16;-35.72;-17.23;146.98;-24.56;-1.39;5.0;979.38;57.39;35.957977;-83.92471;768.86;NaN;;4.54;12.226105;156.2;10 / 18;24026;2022-10-13 12:43:44:556
-1.1958;4.8374;9.9165;-0.1251;3.9226;8.9871;-1.4747;0.5509;0.6564;0.3899;0.0622;0.1113;27296.998;-13.76;-36.86;-19.11;152.21;-21.42;1.77;5.0;979.39;56.836;35.95796;-83.92471;769.06;NaN;;5.22;12.226105;188.3;10 / 18;24526;2022-10-13 12:43:45:056
1.5802;4.7764;8.93;0.3801;4.6124;8.6459;0.0295;0.5168;-1.073;0.0573;-0.344;-0.257;20971.0;-12.43;-42.6;-15.28;159.71;-28.06;-2.52;5.0;979.38;55.409;35.95796;-83.92471;769.06;NaN;;5.22;12.226105;188.3;10 / 18;25027;2022-10-13 12:43:45:557
0.3532;4.8314;8.1171;0.7053;4.1253;8.8687;-0.2735;0.3342;-0.3207;-0.1601;-0.001;0.4558;24021.0;-16.31;-43.72;-17.19;155.64;-24.88;-4.55;5.0;979.35;56.37;35.957947;-83.924706;768.96;NaN;;5.33;12.226105;152.7;10 / 18;25527;2022-10-13 12:43:46:057
-0.4968;2.1476;12.2614;0.437;2.9516;9.3417;0.7095;0.8741;0.5689;-0.0129;0.1322;-0.0699;25728.0;-51.86;-35.27;-32.01;111.2;-21.61;-7.16;5.0;979.39;56.404;35.957947;-83.924706;768.96;NaN;;5.33;12.226105;152.7;10 / 18;26026;2022-10-13 12:43:46:556
0.0347;2.2014;11.0321;0.4068;2.3291;9.5174;0.2232;0.1794;-0.0231;0.5762;0.4759;0.1728;46699.0;-65.02;-34.33;-52.37;109.93;-11.44;-4.37;5.0;979.35;56.888;35.95794;-83.9247;770.52;NaN;;4.5;12.226105;146.4;10 / 18;26526;2022-10-13 12:43:47:056
-0.3664;4.7007;8.6797;0.4595;4.2403;8.8306;-0.6343;0.2733;-0.1102;0.2965;-0.1929;0.3477;28648.0;-69.34;-40.43;-62.47;101.26;-22.31;1.1;5.0;979.33;56.043;35.95794;-83.9247;770.52;NaN;;4.5;12.226105;146.4;10 / 18;27028;2022-10-13 12:43:47:558
0.6811;3.7217;8.6856;0.5617;3.2468;9.2365;0.4111;-0.2626;-0.7169;-0.0024;0.3457;-0.2205;27199.002;-70.46;-42.06;-60.49;105.52;-19.33;-3.48;5.0;979.31;57.147;35.95793;-83.92469;770.68;NaN;;4.36;12.226105;152.7;10 / 18;27527;2022-10-13 12:43:48:057
0.4358;3.0344;9.8207;0.3371;2.8203;9.3863;-0.3271;0.1798;-1.1819;0.2757;-0.4955;0.1353;34393.0;-58.63;-48.11;-54.9;118.17;-15.43;0.13;5.0;979.35;58.077;35.95793;-83.92469;770.68;NaN;;4.36;12.226105;152.7;10 / 18;28026;2022-10-13 12:43:48:556
-0.6141;5.2274;8.4942;0.3163;3.2578;9.2443;0.5226;-0.2462;-1.2303;0.353;0.3196;-0.3651;28712.0;-63.6;-57.32;-53.16;119.69;-19.4;-1.96;5.0;979.33;56.681;35.957928;-83.924675;768.71;NaN;;4.61;12.226105;153.1;10 / 18;28527;2022-10-13 12:43:49:057
-0.7828;3.6365;8.0154;-0.5203;3.0163;9.3167;-0.0716;-0.4831;-1.2664;-0.3733;0.2735;0.4965;33407.0;-60.69;-56.85;-46.57;122.74;-17.91;3.2;5.0;979.31;56.71;35.957928;-83.924675;768.71;NaN;;4.61;12.226105;153.1;10 / 18;29027;2022-10-13 12:43:49:557
-0.583;2.2923;8.4488;0.2781;2.6931;9.4255;-1.2132;-0.9675;-1.5077;0.268;-0.2323;-0.4376;41404.0;-24.28;-48.21;-27.64;148.82;-15.94;-1.69;5.0;979.33;56.758;35.957924;-83.92466;764.14;NaN;;4.43;12.226105;154.9;11 / 18;29526;2022-10-13 12:43:50:056
-0.5004;3.6377;7.8108;-0.7211;3.6527;9.0724;0.4366;-0.2015;0.2032;0.1264;0.2679;0.5492;24198.0;-1.86;-45.52;-15.96;173.31;-26.65;7.23;5.0;979.29;57.106;35.957924;-83.92466;764.14;NaN;;4.43;12.226105;154.9;11 / 18;30026;2022-10-13 12:43:50:556
1.2317;1.6232;8.0285;-0.644;3.0908;9.2845;2.0438;-0.4694;-0.3828;0.366;0.7306;1.1091;35443.0;-3.54;-43.91;-17.83;174.99;-15.43;-2.23;5.0;979.29;57.352;35.95792;-83.924644;764.48;NaN;;4.54;12.226105;161.1;12 / 18;30527;2022-10-13 12:43:51:057
-0.6117;4.1812;7.1154;-0.1175;3.9923;8.9565;-0.9023;-0.586;-0.3725;0.222;0.3822;0.4395;23990.0;-8.38;-44.23;-16.93;166.13;-24.02;0.75;5.0;979.28;57.31;35.95792;-83.924644;764.48;NaN;;4.54;12.226105;161.1;12 / 18;31026;2022-10-13 12:43:51:556
-0.1615;4.1142;8.4308;0.2094;4.0937;8.9089;0.8009;-0.0082;-0.9234;0.0939;0.0544;0.0644;22551.0;-15.06;-44.89;-15.88;156.77;-24.67;-1.35;5.0;979.28;56.96;35.957916;-83.92464;765.66;NaN;;4.54;12.226105;145.6;12 / 18;31526;2022-10-13 12:43:52:056
-0.0957;3.4343;8.3877;-0.0636;3.827;9.0289;0.1606;-0.2035;0.1238;-0.3927;-0.002;0.2093;24405.0;-14.53;-44.7;-17.12;156.12;-23.62;0.95;5.0;979.23;56.377;35.957916;-83.92464;765.66;NaN;;4.54;12.226105;145.6;12 / 18;32027;2022-10-13 12:43:52:557
0.1723;3.6966;8.2071;0.35;3.9174;8.9834;1.1841;-0.0164;0.9557;-0.0909;0.2605;-0.2812;24683.0;-15.43;-45.13;-18.56;157.54;-23.77;-3.82;5.0;979.29;56.782;35.957912;-83.92462;766.17;NaN;;4.46;12.226105;133.5;12 / 18;32526;2022-10-13 12:43:53:056
-0.0502;3.8641;7.046;0.1647;4.0237;8.9417;-0.7197;-0.6089;-0.1229;0.2988;0.3312;0.3619;26004.0;-14.14;-45.41;-19.12;157.98;-23.61;-1.36;5.0;979.25;55.955;35.957912;-83.92462;766.17;NaN;;4.46;12.226105;133.5;12 / 18;33027;2022-10-13 12:43:53:557
-0.207;3.6257;8.0584;0.4996;4.3318;8.7839;0.3258;-0.1591;0.7569;-0.2469;0.2017;-0.3899;25026.0;-17.46;-46.22;-18.41;154.14;-26.21;-3.26;5.0;979.3;56.688;35.957905;-83.92461;764.58;NaN;;4.61;12.226105;150.4;12 / 18;33527;2022-10-13 12:43:54:057
-0.6811;3.7756;9.4424;-0.5766;3.9801;8.9441;-0.3307;-0.3879;2.4229;-0.1169;0.0648;0.4276;25081.0;-15.36;-47.46;-18.54;155.49;-26.24;1.43;5.0;979.26;57.511;35.957905;-83.92461;764.58;NaN;;4.61;12.226105;150.4;12 / 18;34026;2022-10-13 12:43:54:556
2.0411;2.7293;12.0951;0.2283;4.1086;8.9015;0.5992;1.0169;0.8917;-0.5304;-0.7728;-0.6278;22885.0;-15.73;-46.11;-20.36;155.01;-24.77;-1.47;5.0;979.27;57.227;35.957897;-83.9246;764.71;NaN;;4.39;12.226105;151.0;12 / 18;34526;2022-10-13 12:43:55:056
-1.1133;3.0607;11.5074;-0.5748;3.955;8.9553;-0.687;0.4699;0.6167;-0.0948;-0.0026;0.4321;21261.0;-11.42;-47.94;-18.19;161.83;-23.78;3.67;5.0;979.27;57.424;35.957897;-83.9246;764.71;NaN;;4.39;12.226105;151.0;12 / 18;35026;2022-10-13 12:43:55:556
0.5937;3.6138;8.6797;-0.1667;4.2141;8.8535;1.918;-0.2604;2.1511;-0.3808;-0.4222;-0.2331;20501.0;-11.44;-47.77;-17.72;162.38;-25.45;1.08;5.0;979.3;58.011;35.95789;-83.92459;765.3;NaN;;4.46;12.226105;151.7;12 / 18;35527;2022-10-13 12:43:56:057
-1.6065;2.764;10.6705;-0.1805;4.0241;8.9412;-0.8738;1.1711;0.2748;-0.2841;-0.02;0.3923;17839.0;-9.53;-47.91;-16.72;164.1;-26.26;0.44;5.0;979.29;58.045;35.95789;-83.92459;765.3;NaN;;4.46;12.226105;151.7;12 / 18;36026;2022-10-13 12:43:56:556
1.9765;4.0603;12.97;0.4645;3.9718;8.9543;-0.1005;0.7708;-0.0736;0.0179;0.0556;0.0503;17211.0;-12.71;-44.83;-20.16;158.62;-24.41;-0.62;5.0;979.3;58.449;35.95788;-83.92458;766.65;NaN;;4.5;12.226105;159.1;12 / 18;36527;2022-10-13 12:43:57:057
0.9003;3.3709;11.0608;-0.4299;4.2197;8.8419;0.3006;-0.3064;1.9233;0.0312;0.2946;0.479;15889.0;-12.54;-44.94;-19.76;156.63;-25.49;2.78;5.0;979.28;57.649;35.95788;-83.92458;766.65;NaN;;4.5;12.226105;159.1;12 / 18;37027;2022-10-13 12:43:57:557
0.4262;4.331;9.6912;0.1098;4.9247;8.4797;0.0291;0.1689;1.0367;-0.1649;-0.387;-0.3549;14711.0;-14.42;-45.9;-17.04;156.14;-30.14;-0.74;5.0;979.3;57.797;35.95787;-83.924576;768.47;NaN;;4.5;12.226105;156.9;12 / 18;37527;2022-10-13 12:43:58:057
0.0491;2.5077;10.5281;-0.444;4.5331;8.6847;-0.1453;0.9237;1.8588;-0.1157;-0.1653;-0.0755;15857.0;-14.08;-45.68;-16.97;155.01;-28.64;4.42;5.0;979.29;57.095;35.95787;-83.924576;768.47;NaN;;4.5;12.226105;156.9;12 / 18;38027;2022-10-13 12:43:58:557
0.6452;3.7851;11.4568;0.1986;4.5915;8.6631;0.2362;0.0472;0.6165;-0.563;-0.3535;-0.5415;16402.0;-14.1;-44.53;-19.37;156.84;-25.96;-0.87;5.0;979.29;57.807;35.957863;-83.92457;770.53;NaN;;4.54;12.226105;149.0;12 / 18;38526;2022-10-13 12:43:59:056
0.0371;5.8283;8.2717;-0.1648;4.4529;8.7359;0.2019;1.1598;0.3257;0.4964;0.2593;0.0118;17589.0;-11.81;-46.65;-18.21;160.61;-26.34;0.04;5.0;979.3;58.365;35.957863;-83.92457;770.53;NaN;;4.54;12.226105;149.0;12 / 18;39027;2022-10-13 12:43:59:557
-0.2572;5.0659;9.883;0.137;4.7083;8.6014;-0.2597;-0.4864;-0.525;0.1849;-0.1001;-0.1629;18639.0;-9.21;-47.38;-17.44;165.18;-28.69;-0.91;5.0;979.28;57.508;35.95786;-83.92455;771.43;NaN;;4.36;12.226105;151.2;12 / 18;39526;2022-10-13 12:44:00:056
0.3891;5.4718;10.0014;-0.3207;4.8844;8.4976;0.2032;0.496;0.7687;-0.361;-0.2659;-0.2475;18762.0;-7.03;-48.62;-15.22;168.99;-29.92;-0.76;5.0;979.26;57.753;35.95786;-83.92455;771.43;NaN;;4.36;12.226105;151.2;12 / 18;40026;2022-10-13 12:44:00:556
0.5435;4.6624;11.3743;0.4113;4.3861;8.7615;0.0333;0.2464;-1.7596;0.0576;-0.3977;-0.3997;19659.0;-5.21;-45.96;-16.63;172.85;-26.57;-2.69;5.0;979.28;57.802;35.95785;-83.924545;771.54;NaN;;4.68;12.226105;149.4;12 / 18;40527;2022-10-13 12:44:01:057
-0.7612;5.9889;8.1123;0.5917;5.1772;8.3077;-0.0025;0.2778;0.8592;-0.3167;0.5474;0.0525;17688.0;-6.67;-45.96;-13.8;169.21;-31.87;-4.07;5.0;979.33;57.697;35.95785;-83.924545;771.54;NaN;;4.68;12.226105;149.4;12 / 18;41027;2022-10-13 12:44:01:557
0.4585;6.8459;9.1119;0.4168;6.1743;7.6075;0.3814;0.1602;0.0177;0.5778;0.1527;0.192;16892.0;-6.67;-46.52;-12.36;167.57;-39.02;-3.14;5.0;979.28;56.981;35.95784;-83.92454;772.22;NaN;;4.75;12.226105;165.1;12 / 18;41527;2022-10-13 12:44:02:057
-1.3167;5.085;10.4839;-0.0319;4.6481;8.6351;0.86;1.5952;-3.1409;-0.9732;-0.2702;-0.4276;13716.0;-8.49;-48.15;-9.32;167.35;-38.02;-5.22;5.0;979.25;58.232;35.95784;-83.92454;772.22;NaN;;4.75;12.226105;165.1;12 / 18;42026;2022-10-13 12:44:02:556
-1.5969;3.463;7.6528;-3.2595;1.3231;9.154;0.738;0.047;-0.1464;-0.2401;1.2713;2.279;12301.0;-3.28;-39.58;-24.11;164.67;-2.55;19.1;5.0;979.27;56.836;35.957832;-83.92454;770.85;NaN;;4.21;12.226105;157.6;12 / 18;42527;2022-10-13 12:44:03:057
-7.4013;1.4545;7.5858;-5.8076;0.5734;7.8812;1.2085;0.5487;-2.0498;0.1447;-0.4179;-0.2226;7821.0;6.84;-30.38;-31.28;155.7;-3.35;36.39;5.0;979.25;56.758;35.957832;-83.92454;770.85;NaN;;4.21;12.226105;157.6;12 / 18;43027;2022-10-13 12:44:03:557
0.6093;3.0787;8.3016;0.1912;3.7411;9.063;-0.8721;-2.0622;-0.6924;0.6619;-0.1426;0.5201;7124.0;-0.97;-34.67;-28.69;178.96;-22.43;-1.21;5.0;979.26;56.815;35.957825;-83.92454;768.1;NaN;;3.92;12.226105;162.1;12 / 18;43527;2022-10-13 12:44:04:057
0.1101;5.5843;8.7494;0.7029;4.8469;8.4961;-0.4987;0.3266;-0.9444;0.9613;-0.4155;-0.1641;6921.0;-10.58;-41.7;-21.6;160.93;-26.34;-3.76;5.0;979.3;58.454;35.957825;-83.92454;768.1;NaN;;3.92;12.226105;162.1;12 / 18;44027;2022-10-13 12:44:04:557
0.874;4.0579;5.176;0.7319;4.9846;8.4136;-1.2523;-1.4967;-1.6354;-0.1322;-0.2921;0.4131;6097.0;-10.42;-45.51;-13.97;164.81;-29.95;-4.7;5.0;979.25;56.937;35.957817;-83.92453;768.82;NaN;;4.1;12.226105;159.6;12 / 18;44526;2022-10-13 12:44:05:056
-0.4561;2.7126;9.1944;1.0942;3.2154;9.1997;-0.1937;-0.1068;0.2692;-0.6526;-0.6486;-0.7607;5104.0;-13.42;-41.46;-18.66;161.55;-19.12;-6.7;5.0;979.33;57.922;35.957817;-83.92453;768.82;NaN;;4.1;12.226105;159.6;12 / 18;45027;2022-10-13 12:44:05:557
0.8151;4.3334;7.4025;1.1866;3.2687;9.1694;0.1814;0.3309;0.8622;0.4565;0.3607;0.5043;8630.0;-12.45;-40.22;-19.67;163.03;-19.47;-7.37;5.0;979.29;56.084;35.957806;-83.92453;766.97;NaN;;4.39;12.226105;156.2;12 / 18;45526;2022-10-13 12:44:06:056
1.0869;4.0364;7.1201;1.0324;3.2162;9.2066;-0.0378;-0.2779;-1.6258;0.0398;-0.0998;-0.3187;6375.0;-14.25;-39.23;-20.91;160.07;-18.6;-8.45;5.0;979.24;56.431;35.957806;-83.92453;766.97;NaN;;4.39;12.226105;156.2;12 / 18;46027;2022-10-13 12:44:06:557
-0.9099;2.3521;7.5293;-0.4614;2.7155;9.4119;1.3812;0.3637;2.272;0.2489;1.1027;0.3402;5484.0;-11.76;-37.59;-24.81;156.07;-16.08;2.81;5.0;979.3;58.685;35.95779;-83.92452;766.21;NaN;;4.43;12.226105;164.2;12 / 18;46526;2022-10-13 12:44:07:056
-1.5311;3.717;5.5196;-1.8251;3.429;9.0045;2.8048;0.6314;0.1499;0.2921;-0.3525;-0.4845;10176.0;-7.86;-39.58;-24.86;156.51;-20.47;11.46;5.0;979.25;58.835;35.95779;-83.92452;766.21;NaN;;4.43;12.226105;164.2;12 / 18;47027;2022-10-13 12:44:07:557
-2.8071;2.9949;5.8463;-2.7253;4.061;8.5001;0.2438;-1.5659;-1.6352;0.4587;0.3098;0.1955;15674.0;-2.29;-40.54;-25.07;161.01;-24.46;17.78;5.0;979.27;56.647;35.957783;-83.924515;767.06;NaN;;4.46;12.226105;153.8;12 / 18;47527;2022-10-13 12:44:08:057
-1.2832;3.3829;6.0308;-1.9099;3.0181;9.1331;1.054;0.498;0.707;-0.0879;0.2917;-0.385;17165.0;-3.94;-42.3;-23.32;164.08;-19.73;13.37;5.0;979.26;56.847;35.957783;-83.924515;767.06;NaN;;4.46;12.226105;153.8;12 / 18;48027;2022-10-13 12:44:08:557
-1.4557;1.5239;8.4464;-2.7046;1.0991;9.362;1.6964;0.667;1.112;0.3472;-0.371;0.5059;49424.0;0.02;-36.49;-28.29;169.39;-6.03;12.72;5.0;979.27;56.069;35.95777;-83.92451;766.71;NaN;;4.43;12.226105;147.0;12 / 18;48526;2022-10-13 12:44:09:056
-0.8282;0.8055;12.4433;-2.9113;0.3294;9.3588;-2.6811;-0.9236;0.9343;-0.3238;-0.1568;-0.5921;58319.0;7.29;-33.77;-29.87;176.13;-1.92;17.28;5.0;979.32;56.534;35.95777;-83.92451;766.71;NaN;;4.43;12.226105;147.0;12 / 18;49026;2022-10-13 12:44:09:556
-2.2313;0.8847;7.8574;-3.628;2.1301;8.8584;0.4485;-2.8039;2.5449;0.5543;0.3531;0.7068;45674.0;6.06;-35.83;-28.69;169.31;-12.54;22.27;5.0;979.27;56.539;35.95776;-83.9245;766.11;NaN;;4.36;12.226105;150.3;12 / 18;49527;2022-10-13 12:44:10:057
-2.479;1.3035;7.5712;-3.1765;2.1349;9.029;0.283;-1.6539;1.3674;-0.193;-0.1048;-0.4072;40902.0;1.29;-38.98;-26.32;167.87;-11.52;18.12;5.0;979.26;56.616;35.95776;-83.9245;766.11;NaN;;4.36;12.226105;150.3;12 / 18;50026;2022-10-13 12:44:10:556
-2.7939;1.124;8.6342;-3.3873;1.2281;9.1208;-1.0204;-0.9107;1.8913;-0.237;-0.6557;-0.3962;37027.0;4.93;-37.73;-26.53;168.52;-8.36;24.94;5.0;979.28;59.859;35.957752;-83.9245;764.79;NaN;;4.43;12.226105;149.7;12 / 18;50527;2022-10-13 12:44:11:057
-2.6743;0.6464;9.7403;-3.3398;0.1858;9.2185;-0.4737;0.2227;1.4777;0.027;-0.1591;-0.0118;67539.0;4.48;-34.01;-30.17;169.55;-3.25;18.93;5.0;979.26;56.285;35.957752;-83.9245;764.79;NaN;;4.43;12.226105;149.7;12 / 18;51026;2022-10-13 12:44:11:556
-4.9367;-0.3724;9.1071;-4.5301;-0.4602;8.6855;-1.595;0.0383;1.9192;0.358;-0.3162;1.136;72949.0;6.75;-28.86;-31.78;164.24;2.69;27.55;5.0;979.28;57.439;35.95774;-83.924484;765.17;NaN;;4.82;12.226105;153.1;11 / 18;51527;2022-10-13 12:44:12:057
-2.9423;-0.1137;11.7467;-3.4618;0.3026;9.1703;0.0331;0.6846;2.8384;0.1585;0.1605;-0.5947;70233.0;1.8;-30.06;-32.16;157.56;-7.55;22.96;5.0;979.27;57.067;35.95774;-83.924484;765.17;NaN;;4.82;12.226105;153.1;11 / 18;52027;2022-10-13 12:44:12:557
-3.7792;-0.5973;9.3323;-4.4101;-0.2292;8.7561;-2.6293;-0.1452;1.0821;-0.6566;-0.6409;0.4627;69290.0;6.34;-30.28;-31.82;163.61;1.34;26.73;5.0;979.26;57.341;35.95773;-83.92448;765.44;NaN;;4.46;12.226105;159.7;11 / 18;52526;2022-10-13 12:44:13:056
0.376;3.1543;10.3137;0.8034;3.7909;9.0086;0.5673;0.6399;1.1034;0.4104;0.0533;-0.2044;26938.0;-7.41;-37.84;-25.29;169.31;-22.74;-5.1;5.0;979.25;57.147;35.95773;-83.92448;765.44;NaN;;4.46;12.226105;159.7;11 / 18;53026;2022-10-13 12:44:13:556
-0.9553;0.76;9.119;0.3306;3.0602;9.3111;0.6018;-0.4198;3.0226;-0.5472;-0.9171;-0.3565;28703.002;-10.54;-42.73;-20.06;163.4;-18.18;-2.03;5.0;979.26;58.653;35.95772;-83.92447;767.14;NaN;;4.39;12.226105;151.8;10 / 18;53527;2022-10-13 12:44:14:057
0.3951;3.5192;10.2395;0.5967;3.9505;8.9559;0.1793;0.4537;0.8223;-0.0559;-0.1468;-0.4456;29818.0;-10.91;-41.04;-21.73;160.79;-22.83;-2.23;5.0;979.22;56.075;35.95772;-83.92447;767.14;NaN;;4.39;12.226105;151.8;10 / 18;54026;2022-10-13 12:44:14:556
-1.5072;2.7341;9.3096;-0.2807;3.6267;9.1071;0.4783;1.0014;0.5029;0.2036;0.258;0.3206;31536.998;-9.43;-43.01;-19.93;163.92;-22.89;0.54;5.0;979.22;57.036;35.957706;-83.92446;767.36;NaN;;4.36;12.226105;153.5;11 / 18;54526;2022-10-13 12:44:15:056
0.256;3.3398;10.2778;0.2156;3.7326;9.066;0.2499;0.5367;-0.3456;0.1994;-0.0641;-0.081;33623.0;-10.69;-41.14;-21.86;160.42;-22.37;-1.36;5.0;979.24;56.431;35.957706;-83.92446;767.36;NaN;;4.36;12.226105;153.5;11 / 18;55027;2022-10-13 12:44:15:557
-1.7644;1.9116;11.8185;-0.3846;3.5307;9.1409;-0.0686;0.2944;1.0717;-0.6922;0.0011;-0.2067;35270.0;-9.36;-40.97;-22.18;161.97;-21.1;2.41;5.0;979.24;56.806;35.957695;-83.92446;768.75;NaN;;4.54;12.226105;148.4;12 / 18;55527;2022-10-13 12:44:16:057
0.9972;2.0806;11.6833;0.2666;2.7225;9.4174;0.9384;1.0453;0.4382;-0.0353;-0.2154;-0.2679;38174.0;-9.83;-40.31;-23.49;162.85;-19.85;-2.06;5.0;979.24;56.007;35.957695;-83.92446;768.75;NaN;;4.54;12.226105;148.4;12 / 18;56027;2022-10-13 12:44:16:557
-1.1456;2.3318;10.7877;-1.1525;1.498;9.6228;-0.0724;0.3842;-0.0232;0.255;0.5706;0.2984;63201.0;-8.78;-36.94;-26.76;161.54;-9.41;3.75;5.0;979.19;55.068;35.957687;-83.924446;769.29;NaN;;4.5;12.226105;139.0;12 / 18;56527;2022-10-13 12:44:17:057
-1.215;2.7485;10.2766;-0.5029;2.852;9.3693;-0.0108;0.0072;-0.5526;0.418;-0.0679;0.1398;61643.0;-3.9;-36.49;-27.9;167.12;-14.18;5.03;5.0;979.22;56.475;35.957687;-83.924446;769.29;NaN;;4.5;12.226105;139.0;12 / 18;57026;2022-10-13 12:44:17:556
-1.6388;3.1986;10.2096;-0.4877;2.8612;9.3673;0.3122;0.6904;-1.3158;-0.0784;0.2887;-0.0018;41586.0;-5.25;-39.79;-25.8;168.34;-16.96;2.98;5.0;979.23;54.885;35.95768;-83.924446;768.44;NaN;;4.18;12.226105;153.7;12 / 18;57526;2022-10-13 12:44:18:056
-0.8163;2.8944;9.4902;-0.2028;2.5874;9.457;-0.5655;0.2301;-0.7321;-0.2123;-0.1395;0.0531;49226.0;-5.89;-38.4;-27.88;167.31;-15.3;1.23;5.0;979.23;54.768;35.95768;-83.924446;768.44;NaN;;4.18;12.226105;153.7;12 / 18;58028;2022-10-13 12:44:18:558
-2.5678;1.1133;10.0588;-1.5666;1.0529;9.6233;-0.0408;1.1415;-0.9875;-0.2621;0.2677;-0.2678;61348.0;-6.17;-36.51;-29.78;163.62;-8.96;6.6;5.0;979.17;54.584;35.957672;-83.92444;768.06;NaN;;4.39;12.226105;158.0;12 / 18;58527;2022-10-13 12:44:19:057
-0.6691;1.9872;7.5835;-1.5729;1.7444;9.5212;-0.5659;-0.7184;-1.9921;0.4081;-0.4042;0.3056;67961.0;-0.99;-33.73;-32.96;167.06;-10.25;9.38;5.0;979.16;54.822;35.957672;-83.92444;768.06;NaN;;4.39;12.226105;158.0;12 / 18;59026;2022-10-13 12:44:19:556
-0.9685;2.4909;8.8164;-0.0294;2.6013;9.4553;-2.3497;-0.8443;-1.3892;1.3039;-1.1479;0.4746;67978.0;-2.06;-34.87;-31.84;175.25;-15.38;0.18;5.0;979.16;55.237;35.95766;-83.92443;767.02;NaN;;4.68;12.226105;149.0;12 / 18;59527;2022-10-13 12:44:20:057
-0.0885;3.6006;7.4073;-0.0713;3.3868;9.203;-0.1294;-0.2811;-1.1493;0.3272;-0.2452;0.0831;35643.0;-7.67;-39.13;-26.29;163.92;-20.12;-0.04;5.0;979.16;55.925;35.95766;-83.92443;767.02;NaN;;4.68;12.226105;149.0;12 / 18;60026;2022-10-13 12:44:20:556
0.303;4.0819;7.0173;0.3948;3.6751;9.0834;-0.8009;-0.6385;-1.512;-0.0555;0.129;-0.1232;35365.0;-10.63;-40.59;-23.01;162.1;-20.45;-3.07;5.0;979.15;54.65;35.957653;-83.92443;765.94;NaN;;4.18;12.226105;154.4;12 / 18;60527;2022-10-13 12:44:21:057
-0.201;3.6185;7.1022;0.4135;3.8244;9.0207;-0.6693;-0.5884;0.3812;-0.0317;0.4423;0.2279;33940.0;-11.76;-41.34;-21.79;159.24;-22.95;-2.62;5.0;979.17;54.994;35.957653;-83.92443;765.94;NaN;;4.18;12.226105;154.4;12 / 18;61027;2022-10-13 12:44:21:557
-0.644;3.1496;6.379;-0.1909;3.0192;9.3284;0.7125;-0.9197;0.0909;0.0245;0.0325;-0.0224;36480.0;-12.79;-39.68;-23.57;156.32;-17.93;1.17;5.0;979.15;57.118;35.957645;-83.92442;765.93;NaN;;4.07;12.226105;157.7;12 / 18;61527;2022-10-13 12:44:22:057
-1.1563;2.7185;6.6174;-0.7592;2.4299;9.4705;0.7838;0.2877;-0.4111;0.1372;0.2001;0.9425;43394.0;-9.23;-38.59;-25.39;162.32;-14.64;2.42;5.0;979.16;59.039;35.957645;-83.92442;765.93;NaN;;4.07;12.226105;157.7;12 / 18;62026;2022-10-13 12:44:22:556
-0.3042;2.0782;8.3842;-0.4972;2.021;9.5832;0.456;-0.145;1.0663;-0.0257;0.2661;0.3541;41047.0;-10.05;-37.28;-27.04;158.85;-15.66;2.15;5.0;979.16;53.427;35.95763;-83.924416;767.19;NaN;;4.5;12.226105;159.1;12 / 18;62526;2022-10-13 12:44:23:056
-0.5495;2.1535;7.1321;-0.8169;2.7189;9.3867;1.8486;-0.6117;1.5861;0.8601;-0.6593;0.5541;50326.0;-9.96;-36.15;-28.48;158.64;-12.18;3.1;5.0;979.14;54.286;35.95763;-83.924416;767.19;NaN;;4.5;12.226105;159.1;12 / 18;63027;2022-10-13 12:44:23:557
-2.2421;2.3904;4.3334;-4.4253;2.3423;8.4321;0.9173;-1.9265;4.1845;1.2651;-0.0036;-1.8157;39869.0;0.68;-37.84;-25.74;160.31;-13.82;27.69;5.0;979.19;56.232;35.957623;-83.92441;768.27;NaN;;4.43;12.226105;151.7;12 / 18;63526;2022-10-13 12:44:24:056
0.1866;0.7804;8.6378;0.8132;2.6905;9.3952;-1.3236;-0.3895;0.2567;1.4321;-1.0491;0.4985;61862.004;12.54;-34.61;-24.9;202.99;-12.8;2.07;5.0;979.15;55.706;35.957623;-83.92441;768.27;NaN;;4.43;12.226105;151.7;12 / 18;64026;2022-10-13 12:44:24:556
10.0672;0.929;2.7784;9.2546;1.0314;3.0755;2.9316;-1.5899;3.5131;-0.2974;-2.4523;0.8081;46725.0;-14.98;-38.18;-20.96;203.12;-6.04;-71.62;5.0;979.18;54.752;35.957615;-83.9244;767.57;NaN;;4.39;12.226105;154.3;12 / 18;64526;2022-10-13 12:44:25:056
10.4731;-0.62;-0.1436;9.7959;0.2229;-0.4012;2.2879;0.5001;2.5356;1.9733;0.9349;-1.2963;16321.0;-44.46;-28.78;-1.71;187.73;-1.3;-92.35;5.0;979.17;55.942;35.957615;-83.9244;767.57;NaN;;4.39;12.226105;154.3;12 / 18;65026;2022-10-13 12:44:25:556
8.2621;2.254;-1.5191;9.6793;0.9321;-1.2701;0.9503;0.1833;-1.3025;0.0141;-0.6795;1.1831;10072.0;-38.32;-40.11;5.18;179.98;-5.45;-97.48;5.0;979.16;55.135;35.957603;-83.9244;769.26;NaN;;4.21;12.226105;165.2;12 / 18;65528;2022-10-13 12:44:26:058
8.2645;1.3729;-1.2114;9.7809;0.6796;-0.2057;4.1975;0.2599;0.231;0.3418;1.8033;-0.7609;13674.0;-42.54;-34.65;8.18;183.04;3.48;-103.16;5.0;979.2;58.378;35.957603;-83.9244;769.26;NaN;;4.21;12.226105;165.2;12 / 18;66026;2022-10-13 12:44:26:556
9.1896;0.2046;2.7054;9.7813;0.37;0.6003;1.5867;-0.5468;-1.0995;-0.8315;-1.9908;0.7307;85678.0;-33.66;-35.76;-16.87;190.02;-10.43;-71.07;5.0;979.18;54.809;35.957592;-83.92439;769.67;NaN;;5.0;12.226105;157.4;12 / 18;66526;2022-10-13 12:44:27:056
9.8602;-2.2397;-2.0865;9.7679;-0.0102;-0.8714;7.4999;1.8916;4.6606;3.0012;1.7932;-2.492;11231.0;-44.96;-28.89;-2.38;191.65;0.06;-95.1;5.0;979.14;57.458;35.957592;-83.92439;769.67;NaN;;5.0;12.226105;157.4;12 / 18;67026;2022-10-13 12:44:27:556
7.9508;1.349;-2.0064;9.6204;1.1603;-1.5071;1.8151;-1.561;-1.609;-1.2641;-0.9055;2.5149;7543.0;-30.81;-44.16;11.96;169.96;-6.79;-98.9;5.0;979.19;54.225;35.957577;-83.92439;769.88;NaN;;5.44;12.226105;150.0;12 / 18;67526;2022-10-13 12:44:28:056
8.6282;-1.6149;-1.1695;9.3717;2.7639;0.8381;-0.3292;-4.3629;-1.9278;1.5916;1.8555;-2.3461;5949.0;-42.15;-31.91;12.83;162.94;-0.08;-94.32;5.0;979.16;54.803;35.957577;-83.92439;769.88;NaN;;5.44;12.226105;150.0;12 / 18;68026;2022-10-13 12:44:28:556
10.1378;1.2353;-0.6404;9.7611;-0.0282;-0.9435;-2.8703;0.181;-0.2777;-0.3341;-0.9624;1.117;5080.0;-37.24;-40.01;9.04;167.82;-7.29;-92.25;5.0;979.17;55.174;35.957565;-83.924385;768.24;NaN;;4.75;12.226105;150.3;12 / 18;68527;2022-10-13 12:44:29:057
7.9986;-0.7995;-1.3346;9.7041;1.1719;0.7925;-2.3106;-1.833;-0.5814;1.5207;1.1727;-1.3723;5562.0;-44.34;-30.51;7.29;170.95;3.53;-92.13;5.0;979.14;55.244;35.957565;-83.924385;768.24;NaN;;4.75;12.226105;150.3;12 / 18;69027;2022-10-13 12:44:29:557
7.5126;0.5722;-0.9505;9.7778;0.3216;-0.6797;-0.125;-0.626;-0.6884;-0.1177;-0.5684;0.5044;2895.0;-39.07;-38.23;6.11;174.89;-1.88;-93.98;5.0;979.16;54.919;35.957554;-83.92437;768.49;NaN;;4.54;12.226105;149.4;12 / 18;69526;2022-10-13 12:44:30:056
7.6959;-0.8477;-0.4657;9.798;0.3744;-0.1697;-0.4522;-0.7789;-0.2867;0.7275;0.6561;-1.0466;2567.0;-42.68;-31.05;10.11;173.26;7.2;-97.52;5.0;979.16;54.387;35.957554;-83.92437;768.49;NaN;;4.54;12.226105;149.4;12 / 18;70027;2022-10-13 12:44:30:557
8.8881;0.8366;0.1603;9.4316;-1.7534;-2.035;-1.1461;1.9792;1.2187;-0.7824;-0.3893;0.7563;2420.0;-42.62;-34.46;12.71;169.38;4.85;-97.79;5.0;979.15;54.497;35.957542;-83.92437;769.92;NaN;;4.43;12.226105;152.8;12 / 18;70526;2022-10-13 12:44:31:056
7.2577;-2.7353;-2.2624;9.7524;0.9803;0.3153;1.3029;-1.843;0.1091;1.4502;1.2327;-2.0709;2655.0;-47.23;-29.32;14.12;147.35;-5.74;-88.15;5.0;979.14;54.787;35.957542;-83.92437;769.92;NaN;;4.43;12.226105;152.8;12 / 18;71027;2022-10-13 12:44:31:557
9.7606;-0.0969;0.3281;9.3175;-1.7548;-2.5051;-1.0118;1.7914;2.1371;-1.0936;-0.5977;1.1495;2690.0;-39.99;-38.42;11.29;179.7;10.31;-105.05;5.0;979.17;54.667;35.957527;-83.92436;770.28;NaN;;4.57;12.226105;148.7;12 / 18;71527;2022-10-13 12:44:32:057
8.1556;-1.6711;-1.1312;9.7009;1.3061;-0.5979;3.9705;-2.5706;-0.0788;2.4637;-0.1921;-2.9021;3291.0;-46.71;-28.97;13.91;170.44;8.96;-99.44;5.0;979.12;55.63;35.957527;-83.92436;770.28;NaN;;4.57;12.226105;148.7;12 / 18;72027;2022-10-13 12:44:32:557
8.158;0.3772;-0.705;9.041;-2.1349;-3.1421;-0.9492;3.0671;1.5751;-1.2307;0.0431;1.4966;2951.0;-36.02;-38.27;23.29;164.26;4.34;-106.88;5.0;979.16;53.065;35.95752;-83.924355;769.94;NaN;;4.46;12.815757;149.6;12 / 18;72526;2022-10-13 12:44:33:056
7.8526;-3.1364;-2.4179;9.731;0.4854;-1.1148;6.5751;-1.4955;0.3609;1.3768;1.289;-2.6462;5413.0;-44.47;-26.64;20.03;148.95;-2.84;-96.54;5.0;979.12;53.487;35.95752;-83.924355;769.94;NaN;;4.46;12.815757;149.6;12 / 18;73027;2022-10-13 12:44:33:557
9.4519;-0.1687;-0.0837;9.3654;-1.4797;-2.5038;1.8753;0.6099;-0.1656;-1.5488;-0.7258;1.8658;5982.0;-34.95;-38.04;16.33;171.57;8.68;-104.97;5.0;979.15;53.723;35.957504;-83.924355;769.06;NaN;;4.57;13.000773;151.4;12 / 18;73526;2022-10-13 12:44:34:056
8.578;-2.8167;-4.3765;9.534;2.2961;-0.0291;1.7338;-5.3823;-2.5811;1.7397;1.7872;-2.8339;8756.0;-43.87;-24.36;15.53;166.87;6.42;-101.67;5.0;979.13;53.557;35.957504;-83.924355;769.06;NaN;;4.57;13.000773;151.4;12 / 18;74027;2022-10-13 12:44:34:557
9.0257;1.4593;-1.075;9.2416;-0.5948;-3.2263;3.8282;0.1632;-1.3902;-1.04;-0.9484;1.0764;8624.0;-37.33;-39.47;10.52;169.38;-10.11;-97.7;5.0;979.14;53.69;35.957493;-83.92435;769.54;NaN;;4.72;13.050082;155.2;11 / 18;74526;2022-10-13 12:44:35:056
6.0942;-2.1176;-3.5827;9.5006;1.8654;-1.5587;1.3666;-3.6596;-2.4386;1.5499;1.4924;-2.5019;9838.0;-42.69;-29.34;20.48;171.95;6.24;-109.13;5.0;979.1;53.686;35.957493;-83.92435;769.54;NaN;;4.72;13.050082;155.2;11 / 18;75027;2022-10-13 12:44:35:557
10.34;0.5399;-1.9415;9.2922;-0.6653;-3.063;1.9212;-0.0538;-2.2326;-0.6626;-0.7305;1.6375;10018.0;-34.67;-37.93;17.64;171.39;3.89;-108.24;5.0;979.15;54.27;35.957478;-83.92435;770.87;NaN;;4.75;12.852293;158.0;11 / 18;75527;2022-10-13 12:44:36:057
8.493;-2.9554;-2.1535;9.727;1.2127;0.2932;2.4083;-3.8847;-0.6221;2.2042;0.734;-2.3286;10744.0;-41.79;-24.39;19.14;164.01;11.35;-102.71;5.0;979.1;54.271;35.957478;-83.92435;770.87;NaN;;4.75;12.852293;158.0;11 / 18;76027;2022-10-13 12:44:36:557
11.0572;-0.8246;-1.6328;8.1898;-4.233;-3.3437;4.4343;4.4548;0.8246;0.4368;-2.395;3.2049;10722.0;-38.03;-38.25;13.07;172.05;6.5;-100.44;5.0;979.11;53.452;35.957462;-83.92434;770.7;NaN;;4.82;12.788849;147.0;11 / 18;76526;2022-10-13 12:44:37:056
7.9424;-3.038;-3.1364;9.7305;1.2145;0.1128;1.1227;-4.5395;-1.2168;1.0394;0.9591;-2.4069;11896.0;-45.86;-20.74;17.06;130.86;-7.11;-89.34;5.0;979.08;54.022;35.957462;-83.92434;770.7;NaN;;4.82;12.788849;147.0;11 / 18;77027;2022-10-13 12:44:37:557
10.0995;1.3693;0.7947;9.0864;-2.4634;-2.7459;1.4341;4.4931;2.9223;-1.4554;-0.7233;1.9079;12598.0;-37.8;-36.73;8.7;182.98;14.55;-106.81;5.0;979.09;53.533;35.95745;-83.92433;771.71;NaN;;4.79;12.612788;153.7;11 / 18;77527;2022-10-13 12:44:38:057
7.2087;-1.992;-2.5594;9.7512;0.4637;0.9328;2.7584;-3.8355;-0.1267;2.6113;0.7135;-1.6907;16777.0;-45.32;-24.88;6.68;176.53;9.24;-96.4;5.0;979.08;54.249;35.95745;-83.92433;771.71;NaN;;4.79;12.612788;153.7;11 / 18;78027;2022-10-13 12:44:38:557
11.7897;0.4202;-0.7146;8.9099;-2.6634;-3.113;-0.347;2.3894;3.2115;-1.5844;-0.4845;1.3977;12132.0;-40.22;-35.51;7.13;180.46;6.98;-100.39;5.0;979.11;58.186;35.95744;-83.92432;773.03;NaN;;4.93;12.80539;149.2;11 / 18;78527;2022-10-13 12:44:39:057
8.2609;-1.8541;-1.998;9.7785;0.0398;0.7417;4.3546;-3.7098;-0.2142;1.9575;1.3333;-1.8625;17276.0;-46.46;-22.95;4.39;161.88;-0.23;-85.66;5.0;979.09;54.363;35.95744;-83.92432;773.03;NaN;;4.93;12.80539;149.2;11 / 18;79027;2022-10-13 12:44:39:557
10.7985;1.2927;2.575;9.4718;-1.4781;-2.0665;0.4733;2.5568;1.4199;-1.8438;-0.8563;1.2149;15745.0;-39.0;-35.53;0.11;191.37;8.67;-102.31;5.0;979.13;53.575;35.957428;-83.92432;774.0;NaN;;4.64;12.497154;158.4;11 / 18;79526;2022-10-13 12:44:40:056
8.0106;-3.3577;-0.4848;9.2277;2.6728;1.969;-1.3664;-5.3341;-2.7478;2.0172;1.8464;-2.1312;14887.0;-46.97;-23.92;2.14;172.43;-5.33;-89.27;5.0;979.11;54.188;35.957428;-83.92432;774.0;NaN;;4.64;12.497154;158.4;11 / 18;80027;2022-10-13 12:44:40:557
9.8686;-1.4773;0.3736;9.0912;-2.4668;-2.7268;-1.3031;1.881;1.4603;-1.7681;0.2403;2.5172;10914.0;-40.86;-36.06;6.45;179.67;2.51;-98.02;5.0;979.15;55.669;35.957417;-83.9243;775.67;NaN;;4.75;12.226105;150.8;11 / 18;80527;2022-10-13 12:44:41:057
9.1238;-4.0101;-1.5024;9.6981;1.367;0.499;-0.3291;-5.5622;-1.1049;2.6017;0.9085;-2.4404;12000.0;-48.82;-19.09;6.56;169.99;9.67;-92.6;5.0;979.1;54.818;35.957417;-83.9243;775.67;NaN;;4.75;12.226105;150.8;11 / 18;81027;2022-10-13 12:44:41:557
10.6645;-1.7285;-0.4825;9.2135;-2.4538;-2.2937;-0.9612;0.8563;0.4504;-1.7053;-0.3944;2.4088;10104.0;-40.01;-32.18;14.79;173.29;14.49;-103.98;5.0;979.11;54.84;35.9574;-83.9243;776.81;NaN;;4.79;12.226105;151.2;11 / 18;81527;2022-10-13 12:44:42:057
6.5946;-3.6715;-3.1089;9.6214;1.7301;-0.7789;-1.8695;-5.5641;-0.7794;0.8685;0.0835;-1.5199;9993.0;-45.19;-18.37;17.06;155.27;7.42;-97.47;5.0;979.05;53.771;35.9574;-83.9243;776.81;NaN;;4.79;12.226105;151.2;11 / 18;82026;2022-10-13 12:44:42:556
11.8531;0.1328;-1.9789;7.8806;-4.57;-3.6307;2.9814;3.8877;2.4122;-0.6528;-0.839;2.2466;10039.0;-42.02;-33.09;16.35;173.9;16.48;-104.81;5.0;979.12;56.43;35.957394;-83.92429;775.91;NaN;;4.79;12.226105;153.6;11 / 18;82527;2022-10-13 12:44:43:057
7.9843;-3.5432;-2.6946;9.7597;0.9581;0.0262;-1.2292;-4.8489;-2.3679;0.9075;0.6359;-1.5706;13391.0;-48.32;-18.69;10.2;144.54;-5.61;-89.85;5.0;979.08;54.392;35.957394;-83.92429;775.91;NaN;;4.79;12.226105;153.6;11 / 18;83026;2022-10-13 12:44:43:556
12.3236;-0.2704;-1.7764;7.9398;-3.9573;-4.1797;3.9119;3.3992;2.199;-0.5834;-1.1094;2.0296;11897.0;-43.41;-28.84;12.56;190.89;23.8;-117.76;5.0;979.09;53.802;35.957375;-83.924286;774.22;NaN;;4.75;12.226105;154.5;11 / 18;83526;2022-10-13 12:44:44:056
6.8363;-4.3741;-4.1082;9.5734;2.1073;0.2816;0.459;-5.8938;-1.1154;1.6971;0.5278;-2.3833;12804.0;-47.18;-19.11;14.31;163.91;8.83;-97.72;5.0;979.06;53.559;35.957375;-83.924286;774.22;NaN;;4.75;12.226105;154.5;11 / 18;84026;2022-10-13 12:44:44:556
11.3731;-0.1376;0.577;9.1269;-2.8001;-2.2428;1.3205;3.2207;2.2573;-0.4475;-4.0E-4;0.4569;12786.0;-41.27;-35.03;9.51;174.86;8.65;-98.7;5.0;979.09;55.216;35.957367;-83.92428;774.29;NaN;;5.0;12.226105;155.5;12 / 18;84527;2022-10-13 12:44:45:057
8.5038;-4.2401;-3.2106;9.7822;0.6721;-0.1664;-2.4511;-3.1615;-0.3227;1.1648;-0.0108;-0.9488;12727.0;-47.46;-24.45;9.23;158.4;-3.93;-90.97;5.0;979.08;55.005;35.957367;-83.92428;774.29;NaN;;5.0;12.226105;155.5;12 / 18;85026;2022-10-13 12:44:45:556
11.1733;0.4131;-0.9278;8.7369;-3.2194;-3.0778;-0.4651;3.3209;2.1911;-0.5892;-0.2243;0.7859;10049.0;-47.01;-26.89;12.45;185.93;19.16;-109.41;5.0;979.06;54.167;35.95735;-83.92428;771.56;NaN;;4.64;12.226105;157.0;12 / 18;85527;2022-10-13 12:44:46:057
8.1927;-4.4339;-2.8143;9.6777;1.346;0.8373;-2.7315;-4.8311;-1.323;1.1223;1.1153;-1.1915;13146.0;-48.49;-22.12;9.45;148.28;-2.45;-85.98;5.0;979.06;53.969;35.95735;-83.92428;771.56;NaN;;4.64;12.226105;157.0;12 / 18;86027;2022-10-13 12:44:46:557
10.7913;-0.274;-0.1807;8.694;-3.5513;-2.8236;0.3497;2.6125;2.3741;-0.6123;-0.8165;1.0001;10823.0;-45.45;-29.27;7.2;180.17;13.47;-98.98;5.0;979.08;53.348;35.957344;-83.92427;773.7;NaN;;4.82;12.226105;148.3;12 / 18;86526;2022-10-13 12:44:47:056
5.4574;-4.2039;-1.6065;9.1667;2.3751;-2.5496;-2.9294;-6.1018;0.2783;1.5796;0.1528;-2.6841;9018.0;-45.92;-21.43;18.47;156.51;-3.23;-102.15;5.0;979.04;54.263;35.957344;-83.92427;773.7;NaN;;4.82;12.226105;148.3;12 / 18;87027;2022-10-13 12:44:47:557
10.637;0.3676;-2.0279;9.1967;-2.4901;-2.3219;-1.8879;2.4541;0.3641;-0.2127;-0.3395;1.4818;9426.0;-42.58;-27.77;24.02;161.97;14.71;-104.17;5.0;979.06;54.068;35.95733;-83.92427;773.01;NaN;;5.4;12.226105;153.7;12 / 18;87527;2022-10-13 12:44:48:057
7.0161;-3.967;-2.4479;9.4817;1.9367;-1.5865;-2.955;-4.8093;0.5055;0.9386;-0.155;-0.8065;12100.0;-48.32;-19.46;19.84;146.05;1.52;-97.36;5.0;979.04;54.248;35.95733;-83.92427;773.01;NaN;;5.4;12.226105;153.7;12 / 18;88027;2022-10-13 12:44:48:557
11.1649;0.2237;0.553;7.9872;-4.6983;-3.2095;2.6009;4.9599;3.9649;-0.7057;-0.479;1.3583;11743.0;-47.16;-30.75;17.51;174.52;19.82;-105.91;5.0;979.06;54.424;35.957314;-83.92426;771.6;NaN;;5.15;12.226105;154.5;12 / 18;88527;2022-10-13 12:44:49:057
4.3932;-3.2034;-2.4634;9.2705;3.0005;-1.1073;-2.1714;-6.6414;-0.0184;1.3943;-0.2007;-0.9067;12413.0;-48.21;-23.1;17.59;118.67;-17.82;-96.81;5.0;979.07;54.401;35.957314;-83.92426;771.6;NaN;;5.15;12.226105;154.5;12 / 18;89029;2022-10-13 12:44:49:559
11.3982;0.486;-2.2528;7.765;-4.8097;-3.5697;3.0242;4.3632;2.1676;-0.7426;-0.6451;2.1147;11904.0;-43.03;-29.98;19.86;179.76;29.37;-114.69;5.0;979.05;54.19;35.957302;-83.92425;769.47;NaN;;5.08;12.226105;147.2;11 / 18;89527;2022-10-13 12:44:50:057
5.6967;-3.9778;-2.7126;9.5247;2.2897;0.4552;0.0437;-5.9852;-2.5759;1.1466;0.1298;-2.0046;14321.0;-48.51;-19.65;11.14;165.55;8.96;-94.54;5.0;979.03;54.278;35.957302;-83.92425;769.47;NaN;;5.08;12.226105;147.2;11 / 18;90026;2022-10-13 12:44:50:556
8.694;-0.364;4.2138;9.2041;-1.8885;-2.8085;0.5027;1.0891;4.1537;-0.1854;-1.5839;0.8217;13105.0;-39.9;-36.81;6.58;178.54;8.11;-98.4;5.0;979.06;54.85;35.957294;-83.92424;767.83;NaN;;5.08;12.226105;157.6;11 / 18;90527;2022-10-13 12:44:51:057
6.5097;-2.8394;-2.916;9.5871;0.8413;1.8842;1.4116;-3.4539;-2.1143;2.2504;0.9738;-1.6623;18021.0;-46.03;-24.09;-2.85;163.48;-4.92;-78.88;5.0;979.02;54.097;35.957294;-83.92424;767.83;NaN;;5.08;12.226105;157.6;11 / 18;91026;2022-10-13 12:44:51:556
10.7112;0.935;0.3353;8.8866;-2.8077;-3.052;-0.2441;2.7689;2.8435;-0.683;-1.0113;1.0331;12846.0;-40.97;-32.79;2.93;193.7;16.64;-108.95;5.0;979.05;54.268;35.957283;-83.924225;767.1;NaN;;4.93;12.226105;153.7;11 / 18;91527;2022-10-13 12:44:52:057
6.6556;-2.9566;-2.8573;9.4778;2.5184;-0.0045;-2.0208;-5.6529;-2.3738;2.1956;0.8197;-2.2338;12782.0;-47.36;-21.6;7.05;163.32;-1.73;-91.02;5.0;978.99;56.152;35.957283;-83.924225;767.1;NaN;;4.93;12.226105;153.7;11 / 18;92027;2022-10-13 12:44:52:557
10.3977;0.3592;0.4178;9.1064;-2.586;-2.5605;0.4102;2.9847;1.2801;-0.4642;-1.1449;1.47;11829.0;-40.35;-36.34;7.37;178.19;3.81;-98.2;5.0;979.05;55.855;35.95727;-83.924225;765.77;NaN;;4.93;12.226105;157.8;11 / 18;92527;2022-10-13 12:44:53:057
8.0178;-2.4909;-2.8597;9.6298;1.8128;0.3886;-2.4769;-4.5537;-2.5472;1.5682;0.9828;-1.9235;13877.0;-47.96;-22.33;5.91;169.3;0.83;-92.04;5.0;979.0;55.677;35.95727;-83.924225;765.77;NaN;;4.93;12.226105;157.8;11 / 18;93026;2022-10-13 12:44:53:556
10.8308;0.9769;-0.2046;9.0409;-2.5537;-2.8126;-0.4583;2.5569;1.4068;-0.8111;-0.9433;1.3638;12488.0;-44.02;-30.82;6.34;190.07;15.09;-107.28;5.0;979.02;56.569;35.957264;-83.92422;764.82;NaN;;4.97;12.226105;151.0;12 / 18;93526;2022-10-13 12:44:54:056
7.8048;-3.4893;-2.5834;9.7515;0.8513;0.5952;-1.6491;-3.6998;-3.2548;0.7089;0.5123;-1.4668;16583.0;-48.88;-17.34;5.01;173.68;8.33;-92.74;5.0;979.03;57.175;35.957264;-83.92422;764.82;NaN;;4.97;12.226105;151.0;12 / 18;94027;2022-10-13 12:44:54:557
12.7499;1.1252;4.6086;7.8743;-2.9107;-5.0688;6.2512;4.5251;7.0886;-0.9124;-2.0793;1.3074;15224.0;-44.25;-29.14;0.43;198.82;15.69;-107.7;5.0;979.09;60.564;35.957253;-83.92421;763.77;NaN;;4.9;12.226105;155.8;12 / 18;94526;2022-10-13 12:44:55:056
6.1062;-3.7421;-4.095;8.9985;3.7742;-0.9757;-1.7534;-6.7533;-1.691;0.4519;-0.2218;-0.5307;9424.0;-42.68;-27.28;14.27;130.35;-22.64;-96.19;5.0;979.0;55.862;35.957253;-83.92421;763.77;NaN;;4.9;12.226105;155.8;12 / 18;95027;2022-10-13 12:44:55:557
13.1818;0.7935;2.9435;9.0739;-1.888;-3.2047;2.3754;5.1044;5.9628;-1.6721;-0.6533;1.2991;12042.0;-41.27;-33.86;8.87;187.12;11.1;-109.45;5.0;979.04;57.575;35.95724;-83.9242;762.19;NaN;;5.08;12.226105;158.9;12 / 18;95526;2022-10-13 12:44:56:056
7.7737;-2.8681;-2.2205;9.5459;2.1667;-0.5936;-2.1919;-4.7984;-3.6317;-0.9677;-0.4289;0.7069;13461.0;-45.52;-28.59;5.61;170.24;-8.9;-92.86;5.0;979.03;59.234;35.95724;-83.9242;762.19;NaN;;5.08;12.226105;158.9;12 / 18;96026;2022-10-13 12:44:56:556
12.4505;0.1591;1.1169;8.681;-2.8105;-3.5933;4.0737;3.7478;3.2785;0.2649;0.3018;0.0968;9774.0;-46.35;-27.26;5.1;197.76;16.74;-111.74;5.0;979.0;61.46;35.95723;-83.924194;760.47;NaN;;4.97;12.226105;168.3;13 / 18;96526;2022-10-13 12:44:57:056
8.1867;-4.0496;-2.5977;9.5511;2.2208;0.1198;-2.1101;-5.6557;-3.5278;-0.1142;-0.2631;0.2704;15349.0;-46.31;-26.57;1.18;174.33;-13.09;-89.28;5.0;979.01;61.699;35.95723;-83.924194;760.47;NaN;;4.97;12.226105;168.3;13 / 18;97027;2022-10-13 12:44:57:557
15.8848;0.7732;-0.0084;8.3288;-3.4928;-3.8212;2.7965;3.7267;3.0089;-1.168;0.9094;-0.3202;10142.0;-48.79;-24.11;5.33;202.15;20.86;-114.65;5.0;979.03;58.419;35.957214;-83.92419;759.74;NaN;;5.18;12.226105;155.9;13 / 18;97527;2022-10-13 12:44:58:057
8.4882;-2.3246;-2.7772;9.7872;0.2795;-0.55;-0.9303;-3.1756;-2.6606;-0.0394;-0.0696;-0.0235;14911.0;-48.62;-23.92;2.64;171.69;-6.27;-90.35;5.0;978.98;59.784;35.957214;-83.92419;759.74;NaN;;5.18;12.226105;155.9;13 / 18;98028;2022-10-13 12:44:58:558
12.1334;0.8895;-0.3269;8.2648;-2.9931;-4.348;4.2229;2.8341;2.5775;-0.8668;1.1172;-0.0979;8371.0;-47.42;-26.08;4.88;202.18;16.22;-114.92;5.0;979.03;61.878;35.957203;-83.92418;758.82;NaN;;5.08;12.226105;159.3;13 / 18;98526;2022-10-13 12:44:59:056
5.668;0.5961;-3.5958;9.4569;1.1162;-2.3433;-0.6828;-4.3898;-2.5938;-0.0374;-0.6201;-0.5143;10304.0;-45.62;-28.86;3.38;190.55;-9.79;-98.54;5.0;978.98;62.944;35.957203;-83.92418;758.82;NaN;;5.08;12.226105;159.3;13 / 18;99027;2022-10-13 12:44:59:557
11.8998;-1.331;0.4825;8.7147;-1.8698;-4.0901;2.6413;2.5051;3.6884;-0.7782;0.8969;-0.4727;8945.0;-45.71;-28.67;6.75;199.66;10.99;-115.14;5.0;979.04;65.174;35.95719;-83.92417;760.59;NaN;;4.86;12.226105;160.5;13 / 18;99526;2022-10-13 12:45:00:056
12.1107;-0.8246;-3.5444;9.4838;-0.5611;-2.4318;0.1132;-1.3893;-1.879;-0.2075;-0.7471;1.3515;12529.0;-43.74;-30.09;1.56;189.72;-7.18;-98.02;5.0;979.0;59.28;35.95719;-83.92417;760.59;NaN;;4.86;12.226105;160.5;13 / 18;100027;2022-10-13 12:45:00:557
15.0577;-2.3581;0.006;8.3852;-2.7339;-4.2878;3.1701;2.886;1.7405;-0.3381;0.4177;-0.4928;7396.0;-46.14;-23.17;7.63;201.82;16.19;-117.08;5.0;979.0;61.085;35.957184;-83.92417;763.75;NaN;;4.82;12.226105;154.6;13 / 18;100527;2022-10-13 12:45:01:057
12.4217;-1.4016;-4.0938;9.7193;0.7151;-1.0925;-0.257;-5.1102;-2.6888;0.2613;-0.9493;1.9784;12325.0;-41.01;-33.09;3.6;181.16;-4.18;-96.41;5.0;978.97;59.068;35.957184;-83.92417;763.75;NaN;;4.82;12.226105;154.6;13 / 18;101026;2022-10-13 12:45:01:556
13.8559;-1.7596;-1.5263;9.6705;-0.7269;-1.4571;5.154;-0.7283;2.2156;-0.1558;1.0655;-0.9683;8298.0;-46.93;-21.75;7.86;177.96;4.25;-98.57;5.0;979.04;60.906;35.95717;-83.92416;766.32;NaN;;5.26;12.226105;156.7;13 / 18;101527;2022-10-13 12:45:02:057
12.0577;-1.823;-3.0188;9.6737;0.071;-1.608;-1.1049;-2.6932;-3.0858;-0.7051;-1.2051;2.2802;13254.0;-41.66;-31.33;1.03;183.65;-13.52;-93.13;5.0;979.02;64.236;35.95717;-83.92416;766.32;NaN;;5.26;12.226105;156.7;13 / 18;102026;2022-10-13 12:45:02:556
10.0002;-2.8537;-3.1579;9.5665;-0.6087;-2.0694;4.0201;-1.4386;2.474;2.3503;0.4877;-2.7576;7900.0;-47.55;-19.8;7.18;202.7;15.51;-114.19;5.0;978.96;59.089;35.957157;-83.92416;766.31;NaN;;5.08;12.226105;158.8;12 / 18;102526;2022-10-13 12:45:03:056
9.4388;-0.5973;-3.3494;9.5207;0.3393;-2.3264;-1.6872;-2.6994;-1.3831;-0.7041;-0.6955;1.6329;10833.0;-39.64;-36.0;7.76;182.85;-1.98;-103.73;5.0;978.98;59.003;35.957157;-83.92416;766.31;NaN;;5.08;12.226105;158.8;12 / 18;103027;2022-10-13 12:45:03:557
14.161;-0.2596;0.2477;9.013;-2.4873;-2.9579;6.2599;2.0379;2.2596;0.1206;2.3656;-1.9488;8650.0;-46.78;-19.07;6.99;194.82;14.69;-108.17;5.0;978.97;60.492;35.957146;-83.92415;768.52;NaN;;5.18;12.226105;162.5;12 / 18;103526;2022-10-13 12:45:04:056
5.9351;-0.2106;-1.4916;9.6171;-0.6178;-1.8164;1.6272;-1.1155;-1.2643;-0.5152;-0.5298;1.1879;16612.0;-42.94;-27.15;-2.66;195.93;-3.49;-95.3;5.0;978.96;61.488;35.957146;-83.92415;768.52;NaN;;5.18;12.226105;162.5;12 / 18;104026;2022-10-13 12:45:04:556
13.4249;-2.3677;-1.1635;9.1164;-2.1146;-2.9309;5.6127;2.6678;3.4003;1.009;1.5538;-2.1158;9699.0;-47.59;-19.29;2.78;209.8;18.66;-116.13;5.0;978.98;62.09;35.95713;-83.92414;770.62;NaN;;5.11;12.226105;163.1;13 / 18;104527;2022-10-13 12:45:05:057
9.9763;-0.1651;-2.6109;9.475;-0.9768;-2.3325;0.5868;-1.1203;-0.5213;-0.4372;-0.8162;1.7721;15963.0;-42.34;-30.96;-3.09;194.7;-8.08;-94.82;5.0;979.02;61.728;35.95713;-83.92414;770.62;NaN;;5.11;12.226105;163.1;13 / 18;105027;2022-10-13 12:45:05:557
9.3885;-2.1966;-1.7501;9.2291;-2.1514;-2.5228;3.7705;2.7758;3.0701;1.569;1.0959;-1.7854;10251.0;-49.18;-17.16;3.43;200.28;12.67;-105.29;5.0;978.97;62.354;35.95712;-83.92414;772.79;NaN;;5.26;12.226105;171.2;13 / 18;105528;2022-10-13 12:45:06:058
8.814;0.5734;-1.081;9.4902;-1.2933;-2.1055;0.3002;-0.8713;-0.5225;-0.6956;-0.8372;1.3585;18499.0;-43.43;-29.46;-4.09;196.33;-5.91;-94.24;5.0;978.98;62.372;35.95712;-83.92414;772.79;NaN;;5.26;12.226105;171.2;13 / 18;106027;2022-10-13 12:45:06:557
8.2262;-2.6312;-1.5048;9.7547;0.3685;-0.9381;2.0621;-3.1327;-0.2881;1.1811;1.1795;-2.0962;13030.0;-49.09;-16.69;3.24;202.89;13.88;-107.41;5.0;978.96;63.092;35.957108;-83.92413;772.68;NaN;;5.11;12.226105;170.8;12 / 18;106527;2022-10-13 12:45:07:057
12.635;0.1436;-3.9778;9.2476;-1.6727;-2.8026;-0.4578;-0.0889;0.1945;-0.4135;-0.6502;1.373;17142.0;-42.97;-31.71;0.28;197.93;9.82;-106.86;5.0;978.99;63.276;35.957108;-83.92413;772.68;NaN;;5.11;12.226105;170.8;12 / 18;107026;2022-10-13 12:45:07:556
12.2519;-3.1579;-2.0722;9.7414;0.7924;-0.8048;4.8453;-3.8182;-0.1812;0.4947;1.6325;-2.0262;11812.0;-48.3;-19.71;6.83;169.31;-4.63;-94.72;5.0;978.98;63.58;35.957096;-83.92413;773.24;NaN;;5.18;12.226105;174.3;12 / 18;107526;2022-10-13 12:45:08:056
11.5899;-1.3777;-2.254;9.6402;0.1266;-1.7947;-0.3459;-3.2396;-2.574;-1.5006;-0.7168;2.2892;18948.0;-38.36;-36.49;0.62;184.48;-16.22;-94.34;5.0;978.99;63.588;35.957096;-83.92413;773.24;NaN;;5.18;12.226105;174.3;12 / 18;108027;2022-10-13 12:45:08:557
16.3397;-2.6324;0.4777;9.3395;-2.0583;-2.1697;5.4771;2.7249;2.1808;1.3537;1.8707;-3.151;12642.0;-47.06;-15.45;3.75;209.45;24.61;-117.24;5.0;979.0;63.991;35.95708;-83.92413;774.27;NaN;;5.0;12.226105;175.1;12 / 18;108527;2022-10-13 12:45:09:057
11.6533;-2.5101;-2.7999;9.4736;2.2221;-1.2178;-2.2006;-6.6516;-2.0208;-0.1151;-1.0427;1.9632;20377.0;-37.29;-34.29;-2.44;195.09;-13.1;-97.32;5.0;978.99;63.881;35.95708;-83.92413;774.27;NaN;;5.0;12.226105;175.1;12 / 18;109027;2022-10-13 12:45:09:557
16.8102;-3.8617;-1.3502;8.5668;-3.1805;-3.5588;6.3485;3.9193;4.2044;0.3323;1.7438;-1.8918;13071.0;-46.56;-14.91;3.08;208.05;18.92;-112.56;5.0;978.98;63.563;35.95707;-83.92413;771.86;NaN;;5.44;12.226105;188.5;12 / 18;109526;2022-10-13 12:45:10:056
13.8452;-2.758;-1.6304;9.6051;-0.0037;-1.978;-1.2881;-4.2558;-1.5707;-0.9958;-0.9193;1.834;25846.0;-41.89;-23.27;-4.18;230.95;-20.01;-97.26;5.0;979.0;64.759;35.95707;-83.92413;771.86;NaN;;5.44;12.226105;188.5;12 / 18;110027;2022-10-13 12:45:10:557
15.2994;-1.325;-1.3047;8.1632;-3.2351;-4.3664;7.2506;4.6324;1.9546;-0.244;1.3931;-1.7259;13324.0;-46.33;-13.24;-0.21;220.22;19.26;-118.14;5.0;978.94;66.106;35.957054;-83.92413;771.28;NaN;;5.26;12.226105;196.1;12 / 18;110526;2022-10-13 12:45:11:056
11.7694;-2.2684;-6.2581;9.5743;0.3612;-2.0909;-2.0123;-1.9039;-1.2106;-0.395;-0.394;1.7271;28954.0;-42.94;-25.59;-4.78;223.08;-18.53;-97.51;5.0;978.96;65.604;35.957054;-83.92413;771.28;NaN;;5.26;12.226105;196.1;12 / 18;111027;2022-10-13 12:45:11:557
12.7558;-2.5965;1.4892;8.5296;-2.9326;-3.8492;7.9126;1.8657;4.0511;0.1469;1.8699;-1.6011;17156.0;-48.0;-10.37;-0.69;222.55;17.4;-114.29;5.0;979.0;65.791;35.957047;-83.92413;769.8;NaN;;5.44;12.226105;207.8;12 / 18;111527;2022-10-13 12:45:12:057
11.1852;-0.996;-3.1974;9.5998;0.2126;-1.9923;-1.1908;-3.785;-1.2943;-0.51;-0.5588;2.0701;32488.0;-42.94;-20.27;-4.29;224.23;-11.89;-98.98;5.0;978.94;65.498;35.957047;-83.92413;769.8;NaN;;5.44;12.226105;207.8;12 / 18;112027;2022-10-13 12:45:12:557
13.4501;-3.6066;-0.7313;9.5024;-1.0059;-2.205;4.8418;-1.8465;2.4721;0.7086;0.6832;-1.6555;18342.0;-44.18;-11.77;-1.86;217.52;19.57;-112.83;5.0;978.97;65.176;35.95704;-83.92414;768.69;NaN;;5.11;12.226105;210.4;12 / 18;112527;2022-10-13 12:45:13:057
11.5672;-4.0089;-3.7732;9.5666;0.9176;-1.9514;-3.0699;-5.4947;-1.6215;-0.6422;-0.5437;2.7713;25265.0;-39.81;-25.09;-5.79;213.03;-5.37;-101.53;5.0;978.95;65.213;35.95704;-83.92414;768.69;NaN;;5.11;12.226105;210.4;12 / 18;113026;2022-10-13 12:45:13:556
12.4217;-3.9838;-2.2289;9.4027;-1.6979;-2.2083;6.6949;-0.6322;1.1778;1.0084;0.7384;-1.1692;14303.0;-44.79;-8.89;1.31;209.46;9.97;-103.22;5.0;978.99;64.952;35.957027;-83.92414;768.18;NaN;;5.11;12.226105;204.5;12 / 18;113527;2022-10-13 12:45:14:057
10.2012;-0.8704;-2.1081;9.6142;0.3466;-1.9018;-1.4449;-5.1376;-2.2791;-0.5754;-0.666;2.5645;22369.0;-39.36;-21.54;-0.84;212.63;-15.72;-98.71;5.0;978.99;64.092;35.957027;-83.92414;768.18;NaN;;5.11;12.226105;204.5;12 / 18;114027;2022-10-13 12:45:14:557
12.2148;-3.1615;-1.7142;9.2883;-1.7865;-2.5897;4.8956;0.2213;2.7056;1.6616;1.0598;-2.9868;17985.0;-42.45;-5.38;2.81;219.75;21.36;-115.99;5.0;978.95;62.875;35.95702;-83.92414;767.25;NaN;;5.08;12.226105;200.9;12 / 18;114526;2022-10-13 12:45:15:056
11.202;-0.856;-4.258;9.2661;1.6917;-2.7292;-2.511;-5.7369;-1.1063;-0.4068;-0.1103;2.5921;18830.0;-42.58;-24.64;-2.01;218.62;-9.93;-106.41;5.0;978.89;62.037;35.95702;-83.92414;767.25;NaN;;5.08;12.226105;200.9;12 / 18;115027;2022-10-13 12:45:15:557
11.5863;-3.0607;-2.5149;9.3594;-1.516;-2.5048;3.7926;1.7399;1.9471;1.7912;0.6127;-2.5036;15812.0;-48.28;-9.08;0.68;215.4;8.89;-104.98;5.0;978.94;61.607;35.95701;-83.92415;766.98;NaN;;5.44;12.226105;204.5;12 / 18;115526;2022-10-13 12:45:16:056
7.2541;5.0623;-0.2752;7.9442;5.6857;0.8565;3.7746;-1.3707;-0.3289;0.7455;1.3544;-1.5333;35721.0;-43.33;-25.22;-5.83;229.19;-21.98;-93.18;5.0;978.91;60.336;35.95701;-83.92415;766.98;NaN;;5.44;12.226105;204.5;12 / 18;116026;2022-10-13 12:45:16:556
3.5013;4.5607;7.6146;3.0592;5.1696;7.7515;-1.3556;-1.2672;-0.3558;-0.1023;0.6086;0.7477;84100.0;-7.46;-41.83;-19.8;181.94;-31.81;-21.54;5.0;978.95;58.223;35.957;-83.92415;768.82;NaN;;5.18;12.226105;207.2;12 / 18;116527;2022-10-13 12:45:17:057
2.1571;4.4183;8.4368;1.8242;4.1636;8.6895;0.0747;-1.249;2.9558;-0.6483;0.2361;-0.0259;58376.0;7.09;-38.42;-24.64;205.36;-24.13;-11.82;5.0;978.93;58.135;35.957;-83.92415;768.82;NaN;;5.18;12.226105;207.2;12 / 18;117026;2022-10-13 12:45:17:556
0.9709;4.9343;6.5934;1.5595;5.4041;8.0333;-1.3161;2.2945;-0.5472;0.1445;-0.3014;0.0327;40795.0;8.46;-40.59;-20.72;206.58;-33.44;-10.99;5.0;978.91;58.091;35.956993;-83.92416;771.15;NaN;;4.93;12.226105;204.0;12 / 18;117526;2022-10-13 12:45:18:056
1.7189;3.8079;6.2892;2.0635;4.8322;8.2802;1.0493;-0.3085;1.4357;0.2203;0.3975;0.2091;50166.0;18.26;-30.88;-9.79;219.66;-31.16;-16.88;5.0;978.9;58.25;35.956993;-83.92416;771.15;NaN;;4.93;12.226105;204.0;12 / 18;118026;2022-10-13 12:45:18:556
2.4921;2.837;8.0943;3.0387;3.0194;8.8216;-0.3754;-0.3397;0.7222;-1.2987;-0.6857;-0.4121;54215.0;19.5;-28.61;-12.32;222.66;-22.78;-17.1;5.0;978.9;60.73;35.956985;-83.92416;775.36;NaN;;4.9;12.226105;211.6;12 / 18;118526;2022-10-13 12:45:19:056
9.9476;-2.4526;12.3272;8.9073;-0.286;4.0926;7.6007;1.1235;-3.3896;-5.7454;-0.045;-0.4972;105752.0;3.47;-21.82;-16.07;215.54;1.67;-65.32;5.0;978.94;58.267;35.956985;-83.92416;775.36;NaN;;4.9;12.226105;211.6;12 / 18;119027;2022-10-13 12:45:19:557
14.6566;-0.3102;0.352;9.5841;-0.433;-2.0316;5.0065;0.8687;4.2011;1.128;-1.6421;0.4996;89001.0;-27.64;3.47;-8.61;277.29;2.53;-101.97;5.0;978.92;55.402;35.95697;-83.92417;774.78;NaN;;5.15;12.226105;201.8;12 / 18;119527;2022-10-13 12:45:20:057
9.8782;-0.1866;-2.0506;9.6279;1.3693;-1.2642;-0.4954;-2.275;-3.1936;-0.7114;-0.8206;1.0431;63775.0;-31.41;-6.82;-0.47;218.68;-10.65;-91.7;5.0;978.92;55.119;35.95697;-83.92417;774.78;NaN;;5.15;12.226105;201.8;12 / 18;120027;2022-10-13 12:45:20:557
13.0454;-0.0802;-0.754;9.6636;0.2431;-1.6513;3.854;0.9697;2.4776;1.4041;1.1007;-1.2318;25453.0;-33.69;-6.23;5.08;217.41;1.46;-107.15;5.0;978.91;57.463;35.95696;-83.92418;777.64;NaN;;4.72;12.226105;202.2;12 / 18;120526;2022-10-13 12:45:21:056
7.6983;1.7094;-1.4186;9.5346;1.1419;-1.9897;0.5287;-2.6643;-1.6685;-0.0227;-0.8476;1.061;46705.0;-30.49;-10.78;0.49;219.23;-6.69;-101.79;5.0;978.9;58.115;35.95696;-83.92418;777.64;NaN;;4.72;12.226105;202.2;12 / 18;121027;2022-10-13 12:45:21:557
11.5588;-0.1579;-3.2333;9.4804;0.049;-2.5079;2.6672;2.0517;2.7407;1.8754;0.9563;-1.7492;20240.0;-34.84;-3.84;9.39;183.74;-0.29;-104.82;5.0;978.9;56.997;35.95695;-83.92418;773.49;NaN;;5.04;12.226105;197.1;11 / 18;121527;2022-10-13 12:45:22:057
6.9177;-0.2106;-2.4383;9.5358;0.6015;-2.2083;0.6365;-1.0337;-2.0655;-0.5286;-0.5511;0.9389;38914.0;-31.05;-13.8;4.01;181.52;-10.19;-97.75;5.0;978.88;62.58;35.95695;-83.92418;773.49;NaN;;5.04;12.226105;197.1;11 / 18;122027;2022-10-13 12:45:22:557
12.9401;-0.5602;-0.9924;9.3576;-0.4907;-2.8922;5.4979;2.099;5.6406;2.2689;1.8002;-1.9646;20837.0;-33.99;-0.15;7.71;233.96;2.87;-107.17;5.0;978.9;57.77;35.956944;-83.92419;772.65;NaN;;5.22;12.226105;195.2;11 / 18;122526;2022-10-13 12:45:23:056
8.1003;1.0475;-2.7891;9.286;0.4343;-3.1227;1.2499;0.0268;-0.5655;-0.5826;-0.6013;1.8657;39194.0;-30.15;-11.61;1.46;229.97;-14.34;-101.74;5.0;978.91;54.491;35.956944;-83.92419;772.65;NaN;;5.22;12.226105;195.2;11 / 18;123026;2022-10-13 12:45:23:556
7.7246;-2.0124;-3.0224;9.1474;-0.4543;-3.5055;4.6077;1.8349;3.0398;1.828;1.3224;-2.5882;17797.0;-34.71;0.28;12.04;217.6;2.66;-110.97;5.0;978.89;57.052;35.956932;-83.92419;772.02;NaN;;5.15;12.226105;199.7;11 / 18;123527;2022-10-13 12:45:24:057
6.7071;1.4414;-2.5929;9.1499;-0.0262;-3.5283;1.7633;-0.5552;-0.4965;-0.0504;-0.9084;1.2856;22030.0;-29.55;-15.71;7.74;187.5;-12.11;-107.15;5.0;978.87;55.049;35.956932;-83.92419;772.02;NaN;;5.15;12.226105;199.7;11 / 18;124026;2022-10-13 12:45:24:556
8.1015;-2.3713;-3.7361;9.4068;0.0421;-2.7715;0.1807;-2.0552;-1.0278;0.3623;0.4623;-2.115;13847.0;-34.16;-1.95;14.96;175.21;15.49;-112.27;5.0;978.85;52.999;35.95692;-83.924194;772.51;NaN;;5.04;12.226105;199.4;11 / 18;124527;2022-10-13 12:45:25:057
6.111;-0.1292;-2.959;9.1195;-1.1486;-3.4184;1.8934;-0.2981;-1.356;-0.418;-0.3055;1.2581;16848.0;-30.19;-14.81;12.54;174.98;6.73;-110.55;5.0;978.88;52.235;35.95692;-83.924194;772.51;NaN;;5.04;12.226105;199.4;11 / 18;125026;2022-10-13 12:45:25:556
6.664;-2.7054;-3.4798;9.5178;0.5197;-2.3048;0.9426;-2.701;-0.4752;0.776;1.1975;-2.2276;13576.0;-33.41;-1.39;15.32;82.57;-3.04;-103.61;5.0;978.82;55.866;35.95691;-83.924194;771.57;NaN;;5.54;12.226105;197.5;11 / 18;125527;2022-10-13 12:45:26:057
8.3686;-0.073;-3.3099;9.1463;-0.8484;-3.4344;1.3923;-0.9477;-0.5607;-0.3402;-0.537;1.2283;17103.0;-30.43;-17.21;11.98;167.67;-6.32;-106.62;5.0;978.9;54.188;35.95691;-83.924194;771.57;NaN;;5.54;12.226105;197.5;11 / 18;126027;2022-10-13 12:45:26:557
7.5556;-2.849;-3.5216;9.5156;0.6636;-2.2768;2.2338;-2.8663;-0.9522;0.8793;0.9167;-2.5136;14715.0;-34.71;-3.84;16.05;180.98;12.92;-114.89;5.0;978.89;53.575;35.956898;-83.924194;771.14;NaN;;5.0;12.226105;196.3;11 / 18;126526;2022-10-13 12:45:27:056
8.4643;0.1196;-1.9247;8.9412;-1.3885;-3.7813;2.7328;-0.4027;-0.32;-0.6351;-0.8266;1.4896;17836.0;-29.66;-17.64;9.83;186.34;8.14;-112.92;5.0;978.88;56.878;35.956898;-83.924194;771.14;NaN;;5.0;12.226105;196.3;11 / 18;127026;2022-10-13 12:45:27:556
5.3665;-3.4594;-3.8653;9.0318;0.8149;-3.7328;2.4744;-5.2405;-2.5211;0.5394;-0.1288;-2.6239;13266.0;-32.91;-3.64;19.65;97.91;-4.77;-112.46;5.0;978.84;51.554;35.956886;-83.924194;771.51;NaN;;4.93;12.226105;201.5;11 / 18;127527;2022-10-13 12:45:28:057
10.3029;-0.4825;-3.9826;8.0434;-3.5568;-4.3386;0.0184;2.3804;0.5923;-0.5469;0.0196;2.2898;10556.0;-26.14;-23.16;22.61;157.87;5.69;-113.65;5.0;978.86;58.312;35.956886;-83.924194;771.51;NaN;;4.93;12.226105;201.5;11 / 18;128027;2022-10-13 12:45:28:557
6.8136;-2.9662;-4.3095;8.9215;1.3134;-3.8538;0.9484;-4.954;-0.8601;-0.0463;0.0747;-2.4777;10061.0;-32.12;-4.31;23.94;82.41;-7.7;-113.36;5.0;978.88;53.095;35.956875;-83.9242;771.65;NaN;;5.33;12.226105;199.8;11 / 18;128527;2022-10-13 12:45:29:057
10.3735;2.5355;-4.5846;7.683;-3.9626;-4.6303;2.7561;4.1243;0.3003;-0.179;-0.0825;2.6851;9664.0;-26.83;-21.11;23.03;161.88;9.28;-116.4;5.0;978.88;51.521;35.956875;-83.9242;771.65;NaN;;5.33;12.226105;199.8;11 / 18;129026;2022-10-13 12:45:29:556
6.0607;-3.4044;-3.3984;9.2384;1.6074;-2.8704;-0.0092;-4.8234;-0.4569;0.6756;0.2341;-2.0285;11514.0;-32.36;-8.83;20.14;106.78;-9.43;-107.26;5.0;978.85;51.626;35.956863;-83.92421;772.33;NaN;;5.08;12.226105;198.5;11 / 18;129528;2022-10-13 12:45:30:058
11.2558;0.7708;-3.5994;7.5879;-3.9621;-4.785;1.7837;3.2036;0.8993;-1.3693;0.1424;2.0141;10650.0;-29.76;-22.97;16.97;172.61;9.45;-113.43;5.0;978.91;53.632;35.956863;-83.92421;772.33;NaN;;5.08;12.226105;198.5;11 / 18;130028;2022-10-13 12:45:30:558
7.4492;-3.7313;-4.0304;9.3507;2.1932;-1.9811;-2.0923;-5.5042;-1.9273;0.781;0.3648;-1.9339;15840.0;-35.49;-3.28;15.13;92.38;-4.14;-102.76;5.0;978.83;56.224;35.956852;-83.92421;771.51;NaN;;4.93;12.226105;196.6;11 / 18;130527;2022-10-13 12:45:31:057
10.7435;0.8847;-4.0304;7.9766;-3.2726;-4.6727;0.5517;3.2449;0.9897;-0.8369;-0.6664;1.4364;12855.0;-30.04;-17.96;12.83;188.08;19.49;-120.36;5.0;978.91;56.977;35.956852;-83.92421;771.51;NaN;;4.93;12.226105;196.6;11 / 18;131027;2022-10-13 12:45:31:557
6.9188;-1.573;-3.9885;8.8694;3.2718;-2.6075;-1.3533;-5.6398;-0.1428;1.2293;0.978;-2.7842;15391.0;-30.86;-7.22;10.63;22.55;-19.49;-106.38;5.0;978.85;54.864;35.95684;-83.92421;770.69;NaN;;4.86;12.226105;193.4;11 / 18;131529;2022-10-13 12:45:32:059
9.7235;7.4192;-2.7138;8.4209;4.3074;-2.5896;-3.163;-0.8291;-1.4317;0.238;0.546;1.1069;15237.0;-16.76;-27.02;1.69;189.24;-25.75;-106.0;5.0;978.85;60.232;35.95684;-83.92421;770.69;NaN;;4.86;12.226105;193.4;11 / 18;132027;2022-10-13 12:45:32:557
9.1502;-0.3054;-4.3525;8.468;4.3079;-2.43;-2.6938;-2.6806;-0.7638;-1.0048;-1.0252;0.9934;12929.0;-10.72;-29.64;12.56;153.53;-26.74;-102.53;5.0;978.88;60.695;35.95683;-83.92422;771.38;NaN;;5.18;12.226105;204.0;11 / 18;132526;2022-10-13 12:45:33:056
15.3006;-0.8548;-1.2568;8.7742;-1.0732;-4.2464;1.148;2.0769;3.045;-0.7896;-0.7407;1.3904;18614.0;-19.86;-19.26;19.26;158.92;6.28;-115.83;5.0;978.89;56.724;35.95683;-83.92422;771.38;NaN;;5.18;12.226105;204.0;11 / 18;133027;2022-10-13 12:45:33:557
8.7793;-3.451;-3.2596;9.0751;2.2187;-2.9816;-3.1931;-3.994;-1.7252;-0.8168;-0.3667;0.7173;22518.0;-27.49;-1.28;17.21;52.02;-13.08;-108.19;5.0;978.82;57.52;35.956818;-83.924225;770.32;NaN;;4.93;12.226105;201.1;11 / 18;133526;2022-10-13 12:45:34:056
16.7695;-2.2397;-3.7528;8.0949;-2.2098;-5.0755;4.2307;2.9992;1.7018;-0.5182;-0.268;0.8214;14165.0;-31.82;-0.11;11.89;224.01;14.5;-124.15;5.0;978.88;59.608;35.956818;-83.924225;770.32;NaN;;4.93;12.226105;201.1;11 / 18;134027;2022-10-13 12:45:34:557
8.9145;-1.6759;-3.3757;8.8871;2.4522;-3.3431;-1.6941;-4.5172;-1.1596;0.2136;0.0486;-0.4039;19013.0;-32.62;1.76;12.56;2.91;-14.48;-110.62;5.0;978.87;57.892;35.956802;-83.924225;769.47;NaN;;5.11;12.226105;209.6;11 / 18;134526;2022-10-13 12:45:35:056
16.5589;-1.118;-2.8167;8.0048;-2.8308;-4.9072;4.069;4.1076;2.2773;-1.119;-0.095;1.6233;13449.0;-33.79;-4.8;14.25;204.44;15.45;-122.68;5.0;978.9;55.955;35.956802;-83.924225;769.47;NaN;;5.11;12.226105;209.6;11 / 18;135027;2022-10-13 12:45:35:557
6.5192;-3.6559;-4.7031;8.7907;2.5817;-3.497;-2.0265;-4.6989;-0.6719;0.0607;-0.0705;-0.196;18050.0;-32.72;-5.02;10.76;335.41;-15.26;-111.69;5.0;978.83;53.204;35.95679;-83.92424;769.41;NaN;;5.11;12.226105;207.3;11 / 18;135526;2022-10-13 12:45:36:056
15.9613;-1.6484;-2.9997;7.7643;-3.3072;-4.9949;2.1528;5.038;0.3284;-1.1853;0.5863;-0.0248;12007.0;-33.28;-5.61;11.68;197.25;19.19;-118.67;5.0;978.9;54.619;35.95679;-83.92424;769.41;NaN;;5.11;12.226105;207.3;11 / 18;136026;2022-10-13 12:45:36:556
8.1628;-5.6034;-4.4363;9.2487;1.3897;-2.9496;-1.8884;-5.0063;-1.2146;0.7822;0.3187;-0.3615;18693.0;-32.61;-1.93;10.58;14.07;-15.84;-105.32;5.0;978.87;58.237;35.956783;-83.92425;769.2;NaN;;4.79;12.226105;219.2;11 / 18;136527;2022-10-13 12:45:37:057
13.4596;-0.4681;-2.7951;7.5276;-3.9237;-4.9102;2.7789;4.8407;2.8551;-0.8901;0.7514;0.2702;9762.0;-32.91;-0.58;11.27;211.51;23.58;-123.12;5.0;978.9;50.481;35.956783;-83.92425;769.2;NaN;;4.79;12.226105;219.2;11 / 18;137027;2022-10-13 12:45:37:557
8.3183;-5.6596;-5.17;8.9863;1.8052;-3.4868;-4.1714;-5.4374;0.054;0.8125;-0.5024;-0.877;18513.0;-31.93;-1.59;7.41;308.33;-10.61;-111.21;5.0;978.85;53.91;35.956776;-83.924255;768.98;NaN;;4.97;12.226105;215.2;11 / 18;137527;2022-10-13 12:45:38:057
15.0003;0.437;-4.0053;7.1873;-4.2824;-5.116;1.7934;4.9933;1.6367;-1.5115;0.7796;0.6664;8528.0;-32.87;-2.53;10.8;202.04;19.8;-118.11;5.0;978.88;49.662;35.956776;-83.924255;768.98;NaN;;4.97;12.226105;215.2;11 / 18;138027;2022-10-13 12:45:38:557
8.1314;-4.6636;-4.5595;8.6369;2.1175;-4.1341;-3.1302;-5.713;0.3591;-0.3207;-0.0871;1.7619;14263.0;-33.68;2.16;11.33;342.46;-13.88;-113.24;5.0;978.85;56.857;35.95677;-83.92427;768.6;NaN;;5.65;12.226105;244.2;11 / 18;138526;2022-10-13 12:45:39:056
16.232;-3.1232;-1.8864;7.9753;-3.1852;-4.735;1.2041;4.2111;2.0679;-1.2483;0.1378;0.8503;11882.0;-35.57;1.11;10.14;222.25;18.95;-120.7;5.0;978.89;53.584;35.95677;-83.92427;768.6;NaN;;5.65;12.226105;244.2;11 / 18;139027;2022-10-13 12:45:39:557
8.237;-4.1871;-4.3573;8.5796;2.1345;-4.2433;-2.646;-5.1789;-0.0505;-0.0326;-0.0873;1.1441;14665.0;-32.87;-1.09;9.3;313.97;-12.57;-116.32;5.0;978.86;55.08;35.956768;-83.92428;768.94;NaN;;4.93;12.226105;239.2;11 / 18;139526;2022-10-13 12:45:40:056
15.3257;-2.1416;-4.4339;8.0607;-2.764;-4.8534;3.0464;3.6422;0.3886;-0.3683;0.0477;0.4882;9960.0;-33.84;-3.21;13.18;209.0;20.33;-124.23;5.0;978.8;60.817;35.956768;-83.92428;768.94;NaN;;4.93;12.226105;239.2;11 / 18;140026;2022-10-13 12:45:40:556
7.922;-2.7102;-5.2837;8.66;1.8104;-4.2305;-3.2104;-4.3086;0.0858;-0.3183;-0.0279;0.7455;13085.0;-32.94;-1.33;12.08;325.87;-10.64;-116.04;5.0;978.84;57.765;35.95676;-83.92429;768.13;NaN;;4.93;12.226105;237.1;11 / 18;140526;2022-10-13 12:45:41:056
12.7295;0.5052;-5.048;7.6521;-3.4761;-5.0531;2.2998;4.4676;1.0986;0.0939;-0.3412;0.9383;9896.0;-32.89;-0.56;13.76;205.21;18.48;-122.18;5.0;978.78;60.702;35.95676;-83.92429;768.13;NaN;;4.93;12.226105;237.1;11 / 18;141027;2022-10-13 12:45:41:557
8.0752;-2.5451;-4.4411;8.7376;1.5913;-4.1585;-2.6254;-3.8242;-0.2233;-0.4618;-0.0624;0.1704;11958.0;-32.59;-3.84;12.51;306.3;-9.34;-115.45;5.0;978.8;65.34;35.956753;-83.92431;767.09;NaN;;4.97;12.226105;239.4;11 / 18;141527;2022-10-13 12:45:42:057
16.6295;-1.051;-4.2652;7.703;-3.5904;-4.8932;1.5421;5.3039;0.4649;-0.876;0.8224;0.0913;9399.0;-33.11;-5.49;12.96;199.49;15.74;-119.73;5.0;978.83;56.498;35.956753;-83.92431;767.09;NaN;;4.97;12.226105;239.4;11 / 18;142028;2022-10-13 12:45:42:558
7.9304;-2.1428;-4.9989;8.7602;1.3478;-4.1967;-1.3268;-4.8389;-0.2887;-0.3776;-0.2836;-0.0489;13264.0;-32.78;-0.92;11.76;344.98;-14.59;-113.43;5.0;978.79;63.194;35.956745;-83.92432;767.61;NaN;;5.04;12.226105;225.6;11 / 18;142527;2022-10-13 12:45:43:057
14.7248;-1.0116;-3.2764;7.4653;-3.4946;-5.3129;1.9344;6.0124;1.7039;-0.8114;1.1551;-0.5616;7572.0;-32.48;1.95;14.55;211.05;20.88;-125.44;5.0;978.76;63.794;35.956745;-83.92432;767.61;NaN;;5.04;12.226105;225.6;11 / 18;143026;2022-10-13 12:45:43:556
9.3156;-3.6245;-6.1433;8.9921;0.8801;-3.8129;-0.232;-5.1361;-0.976;-0.1554;-0.1463;0.0191;13371.0;-31.84;-3.3;10.5;271.0;-5.15;-112.98;5.0;978.83;59.17;35.95674;-83.92434;767.49;NaN;;5.15;12.226105;241.3;11 / 18;143527;2022-10-13 12:45:44:057
15.5318;-0.9637;-4.2784;8.1534;-2.8391;-4.651;3.5428;4.2158;-0.0969;-0.2627;0.3378;-0.5086;8980.0;-33.13;-0.75;12.06;212.4;15.09;-120.35;5.0;978.88;59.077;35.95674;-83.92434;767.49;NaN;;5.15;12.226105;241.3;11 / 18;144026;2022-10-13 12:45:44:556
9.3;-2.5666;-3.6413;8.8463;-0.1274;-4.2305;-0.2593;-3.1723;-1.5577;0.0379;-0.526;1.6724;12973.0;-32.85;-3.07;11.55;319.82;-9.68;-114.03;5.0;978.88;54.562;35.956734;-83.924355;766.15;NaN;;4.93;12.226105;236.6;11 / 18;144527;2022-10-13 12:45:45:057
17.2579;0.055;-7.7175;7.723;-4.1293;-4.4129;3.3443;3.3669;0.677;0.6173;-0.0208;0.1197;5093.0;-32.34;6.6;14.91;198.58;24.9;-119.74;5.0;978.89;49.907;35.956734;-83.924355;766.15;NaN;;4.93;12.226105;236.6;11 / 18;145026;2022-10-13 12:45:45:556
7.5233;-3.4008;-3.5216;8.6829;2.1356;-4.027;-2.133;-5.8871;0.3906;-0.4461;0.0151;2.7836;14939.0;-29.17;-5.96;12.36;306.48;-12.58;-114.88;5.0;978.86;61.153;35.95673;-83.92437;763.25;NaN;;4.97;12.226105;247.5;11 / 18;145527;2022-10-13 12:45:46:057
15.3473;-2.4598;-3.39;8.0125;-3.0381;-4.7686;7.8473;3.0146;1.262;-1.1366;0.5469;0.7206;8253.0;-29.87;3.19;14.87;209.3;26.17;-127.96;5.0;978.74;53.557;35.95673;-83.92437;763.25;NaN;;4.97;12.226105;247.5;11 / 18;146026;2022-10-13 12:45:46:556
8.5193;-1.9657;-3.5946;8.7147;2.4161;-3.7929;-2.1921;-5.9807;-0.359;-0.1467;-0.2165;1.5044;17723.0;-30.0;2.38;12.66;359.7;-14.26;-113.52;5.0;978.83;54.067;35.956722;-83.92438;763.28;NaN;;4.0;12.226105;232.5;12 / 18;146527;2022-10-13 12:45:47:057
14.8807;-2.4742;-3.0921;7.9083;-3.0744;-4.917;7.2865;2.5955;0.655;-1.2418;0.4126;0.8746;8217.0;-29.87;5.96;15.11;213.3;25.25;-126.34;5.0;978.85;59.867;35.956722;-83.92438;763.28;NaN;;4.0;12.226105;232.5;12 / 18;147027;2022-10-13 12:45:47:557
6.7011;-4.2652;-3.7205;8.6721;2.418;-3.8882;-2.4303;-6.1295;0.1166;0.0911;-0.3315;1.3768;17621.0;-30.56;-1.03;12.45;346.5;-14.27;-114.15;5.0;978.81;57.845;35.956715;-83.924385;761.69;NaN;;4.97;12.226105;241.7;13 / 18;147527;2022-10-13 12:45:48:057
14.3982;-0.7361;-5.3291;8.0873;-3.2837;-4.4702;4.4275;3.6392;0.0373;-0.0383;0.5782;-1.8357;10345.0;-31.72;3.36;14.7;199.24;24.44;-121.8;5.0;978.85;57.92;35.956715;-83.924385;761.69;NaN;;4.97;12.226105;241.7;13 / 18;148026;2022-10-13 12:45:48:556
8.4619;-2.0351;-5.8956;8.7507;0.1555;-4.424;0.3982;-2.6699;-0.6975;0.9822;0.0314;0.2911;13146.0;-31.93;-5.79;13.97;257.65;-9.48;-114.87;5.0;978.88;53.91;35.956715;-83.9244;762.97;NaN;;5.33;12.226105;266.8;13 / 18;148526;2022-10-13 12:45:49:056
12.1167;-1.6412;-6.7573;8.4076;-2.3192;-4.4838;1.8823;3.4036;0.2595;-0.8367;1.2245;-0.8652;7591.0;-33.88;-9.0;20.36;174.79;13.68;-118.07;5.0;978.97;63.927;35.956715;-83.9244;762.97;NaN;;5.33;12.226105;266.8;13 / 18;149026;2022-10-13 12:45:49:556
9.8961;-6.3849;-4.7521;8.7864;-0.7751;-4.2859;-1.6088;-3.127;-0.0409;-1.2974;-0.1893;1.3495;11265.0;-31.54;-15.09;13.78;184.67;4.53;-116.0;5.0;978.93;52.353;35.9567;-83.924416;758.56;NaN;;7.49;12.226105;214.5;13 / 18;149527;2022-10-13 12:45:50:057
16.6475;-1.8589;-3.6317;7.3812;-3.6489;-5.3267;1.0452;5.1265;2.3352;-0.9196;1.2729;-0.1367;9600.0;-33.68;2.98;13.13;219.52;20.75;-123.72;5.0;978.83;57.842;35.9567;-83.924416;758.56;NaN;;7.49;12.226105;214.5;13 / 18;150026;2022-10-13 12:45:50:556
7.5197;-1.1145;-3.6631;8.9697;0.4595;-3.9374;-1.4049;-4.4165;-0.2565;-0.306;-0.082;1.8732;16580.0;-32.49;1.16;10.26;329.57;-8.89;-113.53;5.0;978.87;58.556;35.956688;-83.924416;759.2;NaN;;5.04;12.226105;197.2;13 / 18;150527;2022-10-13 12:45:51:057
12.5557;0.1783;-4.1106;7.6655;-3.6686;-4.894;1.4398;5.3104;-0.0988;-0.9282;0.7002;0.1371;10008.0;-33.28;3.73;12.75;216.14;21.97;-122.56;5.0;978.87;60.255;35.956688;-83.924416;759.2;NaN;;5.04;12.226105;197.2;13 / 18;151027;2022-10-13 12:45:51:557
6.6532;-2.4179;-4.046;8.7628;1.6627;-4.0766;-1.7422;-5.4761;-0.3976;-0.8403;0.1045;2.4013;16208.0;-31.16;-6.04;10.88;263.36;-9.76;-114.95;5.0;978.89;52.572;35.956676;-83.92443;758.36;NaN;;5.83;12.226105;231.5;12 / 18;151526;2022-10-13 12:45:52:056
15.3748;-1.1264;-5.4072;7.6911;-3.2072;-5.1703;4.4082;3.1702;1.9669;-0.2078;-0.0919;-0.1765;7103.0;-31.18;0.96;13.74;209.84;24.54;-126.85;5.0;978.89;51.594;35.956676;-83.92443;758.36;NaN;;5.83;12.226105;231.5;12 / 18;152027;2022-10-13 12:45:52:557
6.9643;-7.3379;-3.5061;6.6647;4.8668;-5.2977;-0.8269;-7.4558;0.469;-0.8137;-0.2728;-0.2921;11001.0;-28.65;-5.98;16.67;337.27;-29.75;-128.48;5.0;978.89;56.313;35.956673;-83.92444;757.61;NaN;;4.43;12.226105;228.2;12 / 18;152526;2022-10-13 12:45:53:056
21.4319;-3.2453;-4.343;7.8101;-2.172;-5.5186;10.965;6.0449;2.6174;-1.4961;-0.1285;0.6861;8320.0;-27.34;-3.58;19.54;194.73;28.69;-135.28;5.0;978.91;54.47;35.956673;-83.92444;757.61;NaN;;4.43;12.226105;228.2;12 / 18;153027;2022-10-13 12:45:53:557
9.6218;-2.5738;-5.479;5.9878;4.6423;-6.2262;-5.2988;-10.9852;3.2026;-1.3636;1.5147;3.4616;8792.0;-18.15;-21.15;21.23;163.74;-28.25;-136.12;5.0;978.97;52.987;35.956657;-83.924446;754.52;NaN;;5.4;12.226105;212.3;11 / 18;153526;2022-10-13 12:45:54:056
16.1399;-1.9908;-2.9961;8.3103;-2.4421;-4.5984;8.9259;4.6486;2.9111;0.8126;1.281;-2.8668;8731.0;-25.39;-7.59;18.9;182.9;26.69;-129.2;5.0;978.92;55.587;35.956657;-83.924446;754.52;NaN;;5.4;12.226105;212.3;11 / 18;154026;2022-10-13 12:45:54:556
8.3758;-3.8151;-5.2884;8.9197;0.5174;-4.0424;-1.2586;-4.3256;-2.1143;0.0363;-0.5824;1.6298;16321.0;-26.81;-11.81;13.33;353.84;-23.09;-115.86;5.0;978.92;50.417;35.956654;-83.92445;751.23;NaN;;4.79;12.226105;228.0;11 / 18;154527;2022-10-13 12:45:55:057
15.8955;-0.5818;-0.3233;8.0573;-1.636;-5.3455;6.0797;0.6015;3.2131;0.8465;1.9399;-1.5854;8779.0;-30.38;4.61;18.24;240.41;9.6;-123.56;5.0;978.9;60.955;35.956654;-83.92445;751.23;NaN;;4.79;12.226105;228.0;11 / 18;155026;2022-10-13 12:45:55:556
10.8715;0.5853;-7.751;8.7051;0.0049;-4.5157;-1.0056;-1.4143;-1.2144;0.6713;-0.8138;1.9873;23426.0;-29.46;-9.75;9.08;208.25;-0.03;-117.42;5.0;978.93;50.457;35.95665;-83.92446;753.85;NaN;;4.68;12.226105;229.8;11 / 18;155527;2022-10-13 12:45:56:057
13.2;-1.8314;-4.5751;7.8532;-2.3162;-5.3975;5.463;2.9233;1.1797;0.0983;0.81;-1.1399;10248.0;-32.08;-0.32;16.37;216.13;16.3;-128.14;5.0;978.9;48.037;35.95665;-83.92446;753.85;NaN;;4.68;12.226105;229.8;11 / 18;156026;2022-10-13 12:45:56:556
10.4611;-1.8793;-5.6716;8.8517;0.4204;-4.2002;-1.1761;-4.09;-1.3955;0.1489;-0.4597;2.3111;20352.0;-31.39;-6.86;10.95;329.68;-17.02;-112.51;5.0;978.9;57.147;35.95664;-83.92446;757.86;NaN;;4.72;12.226105;234.8;11 / 18;156527;2022-10-13 12:45:57:057
15.2121;-3.2991;-5.6596;7.9557;-2.85;-4.9754;4.617;3.71;1.0735;0.6507;0.4395;-1.5491;9057.0;-32.91;3.99;16.67;204.01;16.89;-122.02;5.0;978.93;52.765;35.95664;-83.92446;757.86;NaN;;4.72;12.226105;234.8;11 / 18;157026;2022-10-13 12:45:57:556
10.9325;-2.8741;-5.2394;8.8129;0.6562;-4.2513;-1.687;-4.8826;-0.1269;0.0531;-0.1182;2.6097;18331.0;-31.37;-12.45;12.62;190.26;-3.84;-115.75;5.0;978.93;50.56;35.956635;-83.92448;760.0;NaN;;4.86;12.226105;240.3;11 / 18;157527;2022-10-13 12:45:58:057
12.3368;-2.9171;-4.4949;8.6326;-1.5806;-4.3762;5.1617;0.8499;0.7242;0.0828;0.9504;-1.0548;10271.0;-32.72;2.08;15.96;212.13;20.1;-126.24;5.0;978.9;49.521;35.956635;-83.92448;760.0;NaN;;4.86;12.226105;240.3;11 / 18;158027;2022-10-13 12:45:58:557
11.3791;-2.3868;-5.8606;8.7052;1.3445;-4.3106;-2.0124;-5.8011;0.6953;-0.1894;0.1377;2.4922;18657.0;-31.8;-8.31;13.2;218.53;-7.88;-116.34;5.0;978.99;48.873;35.956627;-83.924484;761.01;NaN;;4.93;12.226105;232.5;11 / 18;158526;2022-10-13 12:45:59:056
14.6566;-5.9339;-1.573;8.6501;-3.2875;-3.2462;6.8007;1.8038;1.0946;-0.768;0.8169;-0.3212;8639.0;-31.88;9.13;12.66;207.08;34.06;-122.0;5.0;978.98;46.781;35.956627;-83.924484;761.01;NaN;;4.93;12.226105;232.5;11 / 18;159028;2022-10-13 12:45:59:558
8.0692;-3.7086;-4.5392;8.748;1.9137;-3.9976;-2.4531;-6.3517;-0.0221;-0.1298;-0.2088;2.4753;19381.0;-30.77;-10.87;10.37;220.26;-11.25;-114.56;5.0;978.98;49.44;35.956615;-83.9245;762.94;NaN;;5.0;12.226105;227.0;12 / 18;159526;2022-10-13 12:46:00:056
16.2942;-3.4917;-2.083;7.5641;-5.112;-3.5808;7.6772;1.731;0.3784;1.0573;1.028;-3.7252;11587.0;-30.51;6.58;9.88;209.53;36.77;-121.31;5.0;978.97;52.029;35.956615;-83.9245;762.94;NaN;;5.0;12.226105;227.0;12 / 18;160027;2022-10-13 12:46:00:557
11.4712;-0.8043;-3.3159;9.204;-1.093;-3.2033;1.4298;-0.3959;-0.1263;-0.8202;-0.668;1.6919;21674.0;-35.06;1.24;7.31;310.51;-4.62;-108.56;5.0;978.97;49.216;35.956608;-83.92451;766.85;NaN;;3.78;12.226105;235.7;12 / 18;160526;2022-10-13 12:46:01:056
12.326;-1.9884;-2.636;8.5625;-3.26;-3.4968;8.3539;3.7571;-1.1498;0.2552;0.3712;-2.7842;5180.0;-40.48;5.31;7.76;221.9;19.42;-112.21;5.0;979.01;50.116;35.956608;-83.92451;766.85;NaN;;3.78;12.226105;235.7;12 / 18;161027;2022-10-13 12:46:01:557
11.2092;-2.6527;-4.6134;9.0537;-0.5185;-3.7326;-0.4252;-2.6705;0.3641;0.0571;-0.2097;1.8214;20950.0;-31.56;-13.41;9.68;191.32;3.03;-112.41;5.0;978.98;54.76;35.956604;-83.924515;769.87;NaN;;4.9;12.226105;238.7;12 / 18;161527;2022-10-13 12:46:02:057
11.6605;-2.6396;-2.4024;8.6704;-2.619;-3.7597;6.8208;1.5043;2.0555;0.6596;0.8771;-2.088;8483.0;-33.0;3.79;10.88;209.35;15.49;-113.44;5.0;978.95;49.603;35.956604;-83.924515;769.87;NaN;;4.9;12.226105;238.7;12 / 18;162026;2022-10-13 12:46:02:556
11.2152;-1.8541;-6.1971;9.0825;-0.7057;-3.6306;-1.2968;-2.3958;-1.8288;-1.2342;-0.182;2.3731;26000.0;-32.87;-5.21;6.23;279.29;-9.89;-108.48;5.0;978.98;49.78;35.956596;-83.92453;769.34;NaN;;4.93;12.226105;242.4;12 / 18;162527;2022-10-13 12:46:03:057
11.0656;-2.4503;-3.0488;7.9015;-3.4991;-4.6361;6.8439;3.3939;0.2386;0.3633;0.4009;-1.9284;7608.0;-33.0;12.79;13.44;266.26;20.9;-120.4;5.0;979.05;61.697;35.956596;-83.92453;769.34;NaN;;4.93;12.226105;242.4;12 / 18;163027;2022-10-13 12:46:03:557
11.7084;-3.2824;-6.3024;9.0252;-0.2003;-3.8309;-1.3584;-2.9803;-1.2002;-0.1865;-0.1758;2.0622;20254.0;-34.43;-8.62;10.44;202.77;1.17;-113.0;5.0;979.01;53.889;35.956593;-83.924545;769.66;NaN;;4.82;12.226105;242.4;13 / 18;163527;2022-10-13 12:46:04:057
16.0071;-4.3023;-4.8685;8.7762;-1.8374;-3.9715;8.5051;0.055;0.2325;-0.1517;0.7772;-1.2034;7469.0;-34.56;6.66;14.23;222.7;27.92;-127.18;5.0;979.04;55.999;35.956593;-83.924545;769.66;NaN;;4.82;12.226105;242.4;13 / 18;164027;2022-10-13 12:46:04:557
11.1721;-4.6158;-4.721;8.9216;1.1429;-3.9076;-2.754;-8.1845;1.0192;0.6347;0.1483;2.8633;19936.0;-34.76;-6.0;10.69;246.69;-6.69;-113.65;5.0;979.05;54.387;35.956593;-83.92456;770.51;NaN;;5.44;12.226105;261.6;13 / 18;164527;2022-10-13 12:46:05:057
15.9194;-6.7825;-1.7381;9.2877;-2.0442;-2.3938;8.7903;-3.0195;1.8131;0.4994;1.1059;-1.5009;8684.0;-30.3;18.04;12.04;271.4;29.43;-124.17;5.0;978.93;61.376;35.956593;-83.92456;770.51;NaN;;5.44;12.226105;261.6;13 / 18;165027;2022-10-13 12:46:05:557
8.9803;1.343;-5.0288;8.4574;2.6192;-4.2169;-2.2539;-6.3857;-0.322;0.4168;0.3562;2.4908;21758.0;-31.69;-11.96;7.5;247.41;-15.49;-116.5;5.0;978.97;50.343;35.95659;-83.924576;771.28;NaN;;5.47;12.226105;238.8;12 / 18;165527;2022-10-13 12:46:06:057
6.6915;-2.0171;-3.9215;9.077;-0.1561;-3.7087;2.3684;-0.7679;0.0331;0.904;0.2875;-2.1192;13444.0;-33.99;3.38;13.31;224.4;14.38;-120.24;5.0;979.0;59.735;35.95659;-83.924576;771.28;NaN;;5.47;12.226105;238.8;12 / 18;166028;2022-10-13 12:46:06:558
7.1967;-0.5483;-4.156;7.8659;-3.0502;-4.9994;-1.1046;2.8783;1.0786;-0.1984;-0.4445;1.8615;18034.0;-35.61;-6.23;9.92;220.47;5.48;-118.0;5.0;978.99;61.723;35.956585;-83.92458;772.61;NaN;;4.93;12.226105;246.4;12 / 18;166527;2022-10-13 12:46:07:057
8.3925;-3.4439;-3.4774;8.8509;0.3498;-4.2084;4.9861;-4.4702;-1.7467;0.1536;0.468;-3.1327;11140.0;-35.08;11.16;15.54;357.32;-2.04;-115.43;5.0;979.07;64.02;35.956585;-83.92458;772.61;NaN;;4.93;12.226105;246.4;12 / 18;167026;2022-10-13 12:46:07:556
11.8878;-1.0666;-3.7134;7.0365;-4.8744;-4.7853;3.0494;2.4527;1.1169;-1.0403;0.2981;3.8021;14018.0;-33.17;-11.74;14.49;194.05;29.8;-124.22;5.0;979.03;57.041;35.956577;-83.92461;772.38;NaN;;5.54;12.226105;239.3;12 / 18;167526;2022-10-13 12:46:08:056
6.6903;-3.9766;-4.6193;8.9697;0.5769;-3.9219;4.0335;-5.8166;1.0361;1.5593;-0.1408;-3.3681;12593.0;-33.71;14.29;15.3;289.28;17.69;-123.61;5.0;979.08;60.173;35.956577;-83.92461;772.38;NaN;;5.54;12.226105;239.3;12 / 18;168027;2022-10-13 12:46:08:557
11.7682;-0.6571;-3.3589;8.0793;-3.2614;-4.5009;0.9552;1.7069;-0.4237;-0.9405;-0.5258;2.8046;15069.0;-32.64;-15.58;12.9;191.88;0.13;-116.98;5.0;979.03;57.642;35.956573;-83.924614;773.87;NaN;;5.04;12.226105;233.6;12 / 18;168526;2022-10-13 12:46:09:056
6.6999;-4.1142;-3.9849;8.9758;2.137;-3.3225;-2.0389;-6.1;-0.4562;1.9512;0.1666;-3.486;14125.0;-33.28;14.12;12.15;2.02;3.68;-109.31;5.0;979.08;64.325;35.956573;-83.924614;773.87;NaN;;5.04;12.226105;233.6;12 / 18;169027;2022-10-13 12:46:09:557
11.6127;-1.2054;-4.4758;7.8278;-3.1563;-4.9933;-0.38;1.3134;0.8247;-0.5362;-0.8357;3.1287;16669.0;-34.03;-9.47;11.12;204.63;18.77;-122.53;5.0;979.02;58.936;35.95657;-83.92463;774.55;NaN;;4.75;12.226105;238.7;12 / 18;169526;2022-10-13 12:46:10:056
4.5751;-5.03;-3.4283;8.0403;3.4964;-4.393;-0.2757;-8.2329;0.859;0.0323;0.4406;-3.5614;12518.0;-33.24;11.31;17.16;3.8;-1.4;-116.04;5.0;979.06;52.961;35.95657;-83.92463;774.55;NaN;;4.75;12.226105;238.7;12 / 18;170027;2022-10-13 12:46:10:557
12.0987;2.1811;-4.343;8.2486;-2.6119;-4.6161;-1.2262;2.9426;1.2587;-0.7939;-0.1736;2.4871;12582.0;-32.42;-15.94;15.83;183.82;15.45;-119.23;5.0;978.99;48.033;35.95656;-83.924644;775.6;NaN;;4.57;12.226105;241.0;12 / 18;170528;2022-10-13 12:46:11:058
7.2817;-2.6336;-3.4702;9.2644;1.9804;-2.5336;-1.4059;-3.6651;-1.7328;1.3306;0.359;-2.3156;14674.0;-35.23;7.65;11.96;2.61;1.96;-108.45;5.0;978.96;51.968;35.95656;-83.924644;775.6;NaN;;4.57;12.226105;241.0;12 / 18;171026;2022-10-13 12:46:11:556
10.6286;2.2086;-1.835;8.9461;-1.6567;-3.6597;-1.0126;2.6963;0.2134;-0.7892;-0.6047;1.9168;9411.0;-35.04;-7.97;5.94;209.26;9.73;-112.25;5.0;978.97;52.832;35.95656;-83.92466;774.89;NaN;;5.11;12.226105;245.4;12 / 18;171527;2022-10-13 12:46:12:057
7.223;-4.0938;-3.6413;9.384;1.5488;-2.39;-3.1499;-4.5695;-0.5128;0.3669;-0.4241;-0.8695;5030.0;-35.64;7.73;6.9;357.89;3.21;-101.34;5.0;979.01;47.721;35.95656;-83.92466;774.89;NaN;;5.11;12.226105;245.4;12 / 18;172027;2022-10-13 12:46:12:557
12.641;-0.2345;-0.833;7.1269;-5.5536;-3.8126;2.269;3.8557;3.4113;-0.8653;-0.3205;2.2317;3103.0;-34.26;-5.12;5.1;202.58;22.95;-110.73;5.0;979.01;48.059;35.95655;-83.924675;775.05;NaN;;5.11;12.226105;241.1;12 / 18;172527;2022-10-13 12:46:13:057
5.9363;-4.3573;-3.6751;9.613;0.9658;-1.6815;-1.1184;-5.4526;-0.4802;1.1261;-0.5076;-2.0573;3323.0;-30.75;13.8;4.65;358.6;-5.65;-99.92;5.0;978.98;47.72;35.95655;-83.924675;775.05;NaN;;5.11;12.226105;241.1;12 / 18;173026;2022-10-13 12:46:13:556
9.8507;0.2489;-3.0308;6.6525;-5.5818;-4.5562;5.3431;4.0425;1.6662;-0.3079;-0.8853;2.8458;2924.0;-33.3;-2.91;6.81;212.49;34.69;-124.41;5.0;978.97;48.352;35.956547;-83.92469;774.91;NaN;;5.04;12.226105;237.1;13 / 18;173526;2022-10-13 12:46:14:056
7.1333;-5.3545;-3.8785;9.4792;-0.5164;-2.4594;1.2762;-3.8794;-0.2353;1.7612;0.238;-3.244;2780.0;-31.59;20.48;10.91;320.67;23.11;-116.23;5.0;978.91;47.672;35.956547;-83.92469;774.91;NaN;;5.04;12.226105;237.1;13 / 18;174026;2022-10-13 12:46:14:556
12.2937;1.9092;-4.1237;6.5433;-5.6165;-4.6702;2.7619;2.8034;1.6239;-1.3221;-1.5412;1.5832;2595.0;-33.64;-9.19;7.58;195.89;17.16;-112.05;5.0;979.01;48.891;35.956543;-83.924706;774.05;NaN;;4.9;12.226105;237.8;13 / 18;174526;2022-10-13 12:46:15:056
5.4323;-3.9108;-4.2724;8.0798;3.1693;-4.5654;-2.3735;-6.8398;0.2953;-0.0722;-0.1529;-2.3426;2691.0;-32.51;4.01;13.54;344.65;-8.22;-116.97;5.0;979.04;48.695;35.956543;-83.924706;774.05;NaN;;4.9;12.226105;237.8;13 / 18;175026;2022-10-13 12:46:15:556
12.9233;2.2923;-6.725;6.4059;-5.8302;-4.5982;4.3989;5.8653;-0.2996;-1.1715;0.4293;1.4033;3037.0;-29.25;-7.84;9.49;202.17;36.48;-125.67;5.0;979.01;48.977;35.956535;-83.92472;775.18;NaN;;5.11;12.226105;240.3;13 / 18;175527;2022-10-13 12:46:16:057
4.4471;-4.3573;-3.475;8.1709;2.662;-4.7244;-3.376;-7.2054;1.5251;1.5645;-0.5728;-3.1644;2697.0;-28.72;9.6;6.51;342.73;-6.14;-111.42;5.0;978.99;51.271;35.956535;-83.92472;775.18;NaN;;5.11;12.226105;240.3;13 / 18;176026;2022-10-13 12:46:16:556
8.7673;0.4813;-4.7521;7.6987;-3.1099;-5.2181;-0.0869;3.7151;0.9618;-0.317;-0.2283;1.5564;2677.0;-28.95;-9.83;10.71;200.61;18.49;-124.13;5.0;979.02;50.108;35.95653;-83.924736;776.45;NaN;;5.44;12.226105;235.8;13 / 18;176527;2022-10-13 12:46:17:057
4.8984;-3.4905;-4.0615;8.4743;1.7903;-4.5991;-2.717;-4.9007;0.8194;0.9037;0.0472;-2.3516;2576.0;-31.82;6.51;11.48;337.99;-2.32;-114.7;5.0;979.03;50.529;35.95653;-83.924736;776.45;NaN;;5.44;12.226105;235.8;13 / 18;177027;2022-10-13 12:46:17:557
8.5086;-0.1053;-4.046;8.0138;-2.7306;-4.949;-2.3457;2.7984;1.6543;0.0664;-0.249;1.3063;2551.0;-34.16;-2.87;14.89;201.24;16.17;-121.7;5.0;979.03;50.605;35.956528;-83.92474;778.03;NaN;;4.86;12.226105;241.1;13 / 18;177527;2022-10-13 12:46:18:057
7.3451;-3.8809;-4.6301;8.9588;0.3934;-3.9694;-2.3489;-2.5508;0.8416;0.8805;-0.2482;-1.0108;2437.0;-34.44;10.86;14.79;350.52;7.47;-115.37;5.0;979.02;50.817;35.956528;-83.92474;778.03;NaN;;4.86;12.226105;241.1;13 / 18;178026;2022-10-13 12:46:18:556
9.2725;-0.1472;-5.2585;7.4778;-3.6086;-5.2183;0.4336;2.4882;1.3725;0.2905;-0.4541;1.2267;2349.0;-36.56;-1.18;13.84;206.73;13.59;-118.18;5.0;979.02;51.844;35.95652;-83.92476;775.94;NaN;;4.61;12.226105;241.4;13 / 18;178527;2022-10-13 12:46:19:057
6.2569;-2.7317;-4.8218;8.7879;1.0639;-4.2204;-2.2178;-2.2352;0.248;0.3817;-0.2391;-1.0676;2638.0;-35.93;8.68;17.19;358.87;-6.23;-115.65;5.0;978.97;50.737;35.95652;-83.92476;775.94;NaN;;4.61;12.226105;241.4;13 / 18;179027;2022-10-13 12:46:19:557
8.511;0.553;-4.3932;7.615;-2.9927;-5.406;0.0999;2.6226;1.7981;0.0235;-0.486;1.1709;2500.0;-36.69;2.98;16.37;222.37;17.77;-125.37;5.0;978.98;53.805;35.95652;-83.924774;774.73;NaN;;5.0;12.226105;243.3;13 / 18;179526;2022-10-13 12:46:20:056
7.381;-3.8043;-4.7282;9.0726;0.4994;-3.6891;-1.9116;-2.5499;0.4304;0.8034;-0.154;-1.5083;2697.0;-34.99;13.99;16.14;5.87;-2.92;-112.13;5.0;978.97;52.881;35.95652;-83.924774;774.73;NaN;;5.0;12.226105;243.3;13 / 18;180026;2022-10-13 12:46:20:556
9.2004;-0.2345;-4.2353;7.8196;-3.2434;-4.9502;-0.6029;2.6485;1.7825;0.0034;-0.3733;1.4166;2576.0;-36.19;-0.15;11.18;227.27;10.31;-117.96;5.0;979.0;52.763;35.956512;-83.92479;773.61;NaN;;4.82;12.226105;235.0;13 / 18;180527;2022-10-13 12:46:21:057
5.9267;-4.1441;-3.8139;8.9689;0.2214;-4.3429;-0.9684;-2.7359;0.2595;0.7211;-0.2459;-1.9634;2472.0;-33.37;11.06;12.13;348.72;-1.29;-113.82;5.0;978.97;54.451;35.956512;-83.92479;773.61;NaN;;4.82;12.226105;235.0;13 / 18;181027;2022-10-13 12:46:21:557
8.3207;1.5467;-5.5663;7.3654;-4.3346;-4.8097;2.0633;4.2822;2.7569;0.9518;-0.1437;0.3628;2385.0;-35.04;0.73;11.59;211.29;26.23;-123.15;5.0;978.98;55.091;35.95651;-83.9248;772.1;NaN;;4.86;12.226105;233.4;13 / 18;181526;2022-10-13 12:46:22:056
4.5356;-4.0854;-2.7544;8.4482;2.6241;-4.2323;-3.3539;-6.3169;0.7452;0.2953;-0.0224;-2.3579;2500.0;-34.31;5.7;13.05;354.78;-6.92;-112.41;5.0;979.02;53.95;35.95651;-83.9248;772.1;NaN;;4.86;12.226105;233.4;13 / 18;182027;2022-10-13 12:46:22:557
10.637;2.8214;-2.1248;6.8406;-4.2749;-5.577;3.349;4.4482;2.1691;-1.174;0.5369;0.7546;2548.0;-33.47;-7.46;12.58;207.13;25.84;-129.19;5.0;979.05;55.14;35.956505;-83.92481;771.96;NaN;;5.22;12.226105;247.9;13 / 18;182527;2022-10-13 12:46:23:057
7.0519;-4.2138;-4.4578;8.9856;1.3042;-3.7053;-3.9869;-4.5738;-0.2522;0.4965;-0.016;-1.373;2576.0;-33.66;3.53;10.37;341.65;-6.09;-110.54;5.0;978.99;51.213;35.956505;-83.92481;771.96;NaN;;5.22;12.226105;247.9;13 / 18;183026;2022-10-13 12:46:23:556
11.6067;-0.3772;-4.5416;7.7051;-3.6526;-4.8436;0.1956;2.9908;1.7514;-0.336;-0.2544;0.9644;2548.0;-35.1;1.39;9.71;220.04;21.87;-122.15;5.0;979.01;48.466;35.956497;-83.924835;772.71;NaN;;4.79;12.226105;243.1;14 / 18;183527;2022-10-13 12:46:24:057
9.5273;-5.7769;-5.4802;9.0284;0.4356;-3.8037;-3.0426;-3.7642;-0.1702;-0.4855;-0.0047;0.6481;2904.0;-34.78;7.76;9.56;340.79;0.55;-110.15;5.0;979.01;48.107;35.956497;-83.924835;772.71;NaN;;4.79;12.226105;243.1;14 / 18;184027;2022-10-13 12:46:24:557
13.1519;-1.2975;-4.5882;7.1699;-4.4875;-4.9623;3.2754;3.8268;1.6267;-0.2563;-0.4626;1.2786;2918.0;-34.31;5.49;8.36;231.06;23.28;-120.9;5.0;979.0;47.989;35.956493;-83.92485;772.18;NaN;;5.0;12.226105;249.8;14 / 18;184527;2022-10-13 12:46:25:057
8.9061;-5.8932;-3.8354;8.7629;1.4462;-4.1582;-3.6793;-4.9764;0.6208;-0.2995;-0.1726;0.2508;5235.0;-33.21;8.31;9.96;338.44;-8.48;-115.39;5.0;978.99;49.945;35.956493;-83.92485;772.18;NaN;;5.0;12.226105;249.8;14 / 18;185026;2022-10-13 12:46:25:556
13.5039;-0.2405;-5.4574;6.7953;-4.47;-5.4785;4.5388;4.5443;0.6726;0.0133;-1.0158;1.6817;6048.0;-34.61;4.61;12.0;227.91;27.12;-128.88;5.0;979.02;49.019;35.95649;-83.924866;773.49;NaN;;5.15;12.226105;249.5;14 / 18;185526;2022-10-13 12:46:26:056
6.9153;-3.7983;-4.7498;8.3675;2.0869;-4.669;-2.4127;-5.8879;0.7752;0.3338;-0.0973;-0.0172;4588.0;-32.78;6.96;14.16;350.06;-4.64;-115.75;5.0;979.05;50.137;35.95649;-83.924866;773.49;NaN;;5.15;12.226105;249.5;14 / 18;186027;2022-10-13 12:46:26:557
16.1195;-2.0937;-5.8654;6.9951;-4.5262;-5.1722;3.467;5.4683;0.752;-1.0213;0.6795;-0.3918;3782.0;-34.03;-2.61;15.0;198.91;23.27;-122.96;5.0;979.04;48.181;35.956486;-83.92488;775.64;NaN;;5.0;12.226105;251.1;14 / 18;186527;2022-10-13 12:46:27:057
8.2896;-2.0722;-5.3414;8.7791;0.2307;-4.3641;-0.7203;-4.5494;-0.6631;0.409;-0.156;0.531;13157.0;-32.98;-0.34;12.41;333.94;-12.22;-115.89;5.0;979.0;50.27;35.956486;-83.92488;775.64;NaN;;5.0;12.226105;251.1;14 / 18;187026;2022-10-13 12:46:27:556
8.5397;0.9147;-3.3948;7.2258;-4.3654;-4.9901;-0.5647;4.2548;2.7743;-0.0167;-0.0964;0.507;7412.0;-33.75;6.39;14.31;216.29;26.43;-124.63;5.0;979.03;53.973;35.95648;-83.924904;778.18;NaN;;5.4;12.226105;247.5;14 / 18;187527;2022-10-13 12:46:28:057
6.4065;-4.2353;-4.6995;8.6784;2.3309;-3.9272;-4.0411;-6.6761;-0.2751;0.789;-0.3252;-1.661;14856.0;-32.18;7.95;12.69;4.71;-12.24;-110.04;5.0;979.0;51.076;35.95648;-83.924904;778.18;NaN;;5.4;12.226105;247.5;14 / 18;188027;2022-10-13 12:46:28:557
12.5354;0.7732;-3.9873;6.7833;-4.9867;-5.0289;2.9367;4.6611;0.8476;-1.021;0.0321;1.0226;10767.0;-33.19;-1.69;12.02;208.0;30.56;-126.55;5.0;979.02;52.202;35.956474;-83.92492;781.28;NaN;;5.22;12.226105;258.3;13 / 18;188527;2022-10-13 12:46:29:057
8.4918;-6.7011;-3.8246;8.5146;1.785;-4.526;-2.4044;-6.2638;0.7785;-0.1387;0.0938;1.1748;11508.0;-32.74;3.6;14.57;357.31;-7.05;-115.07;5.0;979.05;49.565;35.956474;-83.92492;781.28;NaN;;5.22;12.226105;258.3;13 / 18;189026;2022-10-13 12:46:29:556
13.5661;0.1053;-5.1915;7.1671;-4.7345;-4.7315;2.1378;4.3428;-0.2439;-0.4655;-0.0118;0.7408;8156.0;-34.74;-0.26;17.85;192.71;28.87;-123.43;5.0;979.05;49.991;35.95647;-83.924934;782.61;NaN;;5.18;12.226105;240.0;13 / 18;189527;2022-10-13 12:46:30:057
7.7438;-3.4259;-4.9666;8.6617;1.5405;-4.3327;-3.1319;-5.7692;0.6052;-0.0677;0.0252;1.4266;10829.0;-34.18;0.21;16.2;11.43;-8.46;-113.5;5.0;979.09;49.015;35.95647;-83.924934;782.61;NaN;;5.18;12.226105;240.0;13 / 18;190027;2022-10-13 12:46:30:557
14.6746;-1.331;-3.8234;7.2334;-4.5232;-4.8362;4.6631;4.0766;0.3443;-0.3602;-0.3064;1.1615;8150.0;-34.61;-2.46;18.34;192.0;27.84;-123.43;5.0;979.05;50.433;35.956463;-83.92495;783.9;NaN;;5.4;12.226105;231.8;12 / 18;190527;2022-10-13 12:46:31:057
9.3586;-7.4288;-4.7019;8.7513;1.5536;-4.1438;-2.8745;-6.3083;1.1581;0.5619;0.1485;0.7814;11531.0;-33.54;-3.28;17.44;14.91;-9.12;-115.34;5.0;979.09;51.808;35.956463;-83.92495;783.9;NaN;;5.4;12.226105;231.8;12 / 18;191026;2022-10-13 12:46:31:556
13.1363;-1.3298;-3.7002;7.5727;-4.2847;-4.5239;5.6884;3.7643;-0.0616;-1.0088;0.1483;1.3721;8148.0;-34.35;-1.65;19.09;183.43;25.91;-120.85;5.0;979.09;52.28;35.956455;-83.92496;782.82;NaN;;5.15;12.226105;231.3;12 / 18;191527;2022-10-13 12:46:32:057
7.101;-3.1579;-4.453;8.8066;1.1699;-4.1527;-3.1099;-5.234;0.181;-0.2621;-0.0746;0.9572;12518.0;-34.24;-0.83;15.34;344.81;-6.85;-115.25;5.0;979.1;51.409;35.956455;-83.92496;782.82;NaN;;5.15;12.226105;231.3;12 / 18;192027;2022-10-13 12:46:32:557
13.6714;0.1005;-4.0998;7.0832;-4.1926;-5.3311;6.3741;4.1869;1.023;-0.8726;1.2471;-2.0777;9083.0;-34.12;0.11;15.26;198.5;29.24;-123.09;5.0;979.08;51.445;35.956444;-83.92497;782.65;NaN;;4.97;12.226105;234.0;13 / 18;192526;2022-10-13 12:46:33:056
9.2459;-6.5025;-4.829;8.8799;-0.3991;-4.1422;-0.5857;-4.941;-0.7862;-0.1655;-0.3092;1.2545;16965.0;-33.47;-4.93;11.98;336.89;-15.37;-113.1;5.0;979.06;50.27;35.956444;-83.92497;782.65;NaN;;4.97;12.226105;234.0;13 / 18;193026;2022-10-13 12:46:33:556
15.3197;0.437;-4.2652;7.2648;-3.6036;-5.5143;4.0316;4.0592;2.0837;-0.517;1.3082;-1.0736;9461.0;-34.82;7.95;16.24;232.93;21.56;-127.2;5.0;979.04;50.026;35.956436;-83.92499;783.04;NaN;;5.11;12.226105;243.4;13 / 18;193527;2022-10-13 12:46:34:057
10.2885;-2.7999;-5.0109;9.033;0.6801;-3.7566;-1.1623;-5.2628;-1.8809;0.0137;-0.1952;-0.0162;18607.0;-33.41;2.04;11.64;0.48;-12.54;-109.85;5.0;979.05;50.157;35.956436;-83.92499;783.04;NaN;;5.11;12.226105;243.4;13 / 18;194026;2022-10-13 12:46:34:556
14.7847;-3.341;-3.1113;6.6212;-4.1159;-5.9488;6.9698;4.7968;3.4899;0.3321;0.8676;-1.2467;8791.0;-32.21;6.71;14.33;235.42;24.82;-131.94;5.0;979.06;50.602;35.956432;-83.924995;783.81;NaN;;5.04;12.226105;244.1;13 / 18;194527;2022-10-13 12:46:35:057
14.5669;-3.0535;-8.1808;8.6535;-1.9149;-4.1976;0.5515;-5.6394;-1.9188;-0.1578;-0.4594;2.6214;16545.0;-32.53;0.69;10.05;347.53;-13.55;-110.18;5.0;979.05;51.791;35.956432;-83.924995;783.81;NaN;;5.04;12.226105;244.1;13 / 18;195030;2022-10-13 12:46:35:560
14.9082;-5.8893;-2.1464;7.4522;-3.9664;-4.9903;7.589;2.7581;2.6346;0.2288;1.1943;-2.5263;6552.0;-30.73;16.59;15.06;290.13;23.86;-123.81;5.0;979.06;52.479;35.956425;-83.92501;783.61;NaN;;5.0;12.226105;239.2;13 / 18;195527;2022-10-13 12:46:36:057
8.5313;-1.3932;-3.693;8.9317;-1.2123;-3.8634;0.9258;-3.2928;-0.205;-0.4696;-0.2621;2.6403;16834.0;-31.88;-4.87;10.84;309.95;-13.44;-114.96;5.0;979.03;51.477;35.956425;-83.92501;783.61;NaN;;5.0;12.226105;239.2;13 / 18;196026;2022-10-13 12:46:36:556
9.137;-3.8629;-4.8099;9.2292;-0.1914;-3.3099;5.1031;-4.3633;-1.3757;1.432;1.1266;-3.0627;9345.0;-31.93;13.97;14.85;278.48;20.56;-124.54;5.0;979.04;51.136;35.95642;-83.925026;783.09;NaN;;4.97;12.226105;247.4;13 / 18;196527;2022-10-13 12:46:37:057
10.2036;-1.6101;-5.3438;8.7264;-1.0096;-4.3589;-0.1943;-2.9069;-1.4762;-0.6225;-0.5849;3.1713;17968.0;-34.31;-7.11;8.4;217.53;5.91;-116.54;5.0;979.11;52.931;35.95642;-83.925026;783.09;NaN;;4.97;12.226105;247.4;13 / 18;197027;2022-10-13 12:46:37:557
8.7266;-3.8737;-4.3765;9.4755;-0.5284;-2.4709;3.6704;-4.1833;-0.4468;1.9053;1.3871;-2.6935;10573.0;-31.09;20.83;14.29;16.63;3.09;-104.62;5.0;978.98;52.207;35.956417;-83.92503;785.34;NaN;;5.18;12.226105;238.2;13 / 18;197526;2022-10-13 12:46:38:056
10.4109;-1.7166;-4.7378;9.2096;-0.9985;-3.2182;0.171;-2.7106;-0.6276;0.0964;-0.9822;2.9192;24708.0;-33.58;-2.14;4.03;234.07;5.84;-109.26;5.0;979.1;50.014;35.956417;-83.92503;785.34;NaN;;5.18;12.226105;238.2;13 / 18;198026;2022-10-13 12:46:38:556
6.6126;-3.9873;-4.5631;9.5509;0.2533;-2.2107;2.2002;-4.725;-1.983;1.2803;0.7064;-2.8559;9647.0;-31.61;19.14;14.25;336.88;19.19;-118.19;5.0;978.96;49.68;35.956413;-83.92505;790.18;NaN;;5.51;12.226105;252.3;14 / 18;198527;2022-10-13 12:46:39:057
14.2795;-1.6484;-3.7552;6.5039;-5.1408;-5.2385;4.1445;2.2439;2.275;-0.1589;-1.4611;3.6634;20517.0;-34.18;-4.07;3.21;226.74;10.38;-112.79;5.0;979.06;50.687;35.956413;-83.92505;790.18;NaN;;5.51;12.226105;252.3;14 / 18;199026;2022-10-13 12:46:39:556
7.7833;-5.9471;-4.4195;9.5257;0.5357;-2.2679;2.8048;-7.1847;-1.0162;2.8082;-0.2623;-3.7559;12411.0;-28.41;22.01;13.11;14.62;-3.13;-103.39;5.0;978.94;51.899;35.95641;-83.925064;793.43;NaN;;5.15;12.226105;252.8;14 / 18;199526;2022-10-13 12:46:40:056
10.218;-2.6348;-3.6066;6.1011;-5.8213;-5.006;3.5738;3.736;1.4093;-0.4202;-0.4894;3.156;12316.0;-34.61;-8.34;7.44;207.26;14.07;-114.83;5.0;979.11;51.839;35.95641;-83.925064;793.43;NaN;;5.15;12.226105;252.8;14 / 18;200026;2022-10-13 12:46:40:556
6.9165;-5.5256;-3.3972;9.284;0.3742;-3.1366;0.8033;-6.7966;0.147;2.1112;-0.6678;-3.2564;9339.0;-30.67;20.72;12.9;6.14;-2.19;-108.67;5.0;979.01;52.306;35.9564;-83.92508;793.25;NaN;;5.22;12.226105;238.3;14 / 18;200527;2022-10-13 12:46:41:057
14.4664;1.8793;-6.5767;5.621;-6.7506;-4.3593;4.1432;3.9985;0.78;0.0891;-0.3251;3.3694;11553.0;-34.89;-6.96;10.89;199.03;18.82;-117.34;5.0;979.09;53.062;35.9564;-83.92508;793.25;NaN;;5.22;12.226105;238.3;14 / 18;201027;2022-10-13 12:46:41:557
6.2749;-6.7633;-4.2162;9.3022;0.1196;-3.1025;0.8695;-6.2586;-0.2175;1.3992;-0.655;-3.1252;11772.0;-31.72;13.56;10.65;1.23;-0.7;-108.44;5.0;979.12;54.537;35.956394;-83.925095;793.52;NaN;;5.08;12.226105;241.3;14 / 18;201527;2022-10-13 12:46:42:057
9.6888;3.0188;-6.2378;6.9377;-5.3477;-4.4092;6.2765;7.8373;-2.2096;-1.1763;0.4261;1.0281;7432.0;-34.87;-10.46;12.83;194.55;20.98;-119.39;5.0;979.08;52.455;35.956394;-83.925095;793.52;NaN;;5.08;12.226105;241.3;14 / 18;202026;2022-10-13 12:46:42:556
5.5089;-3.5169;-4.7653;8.3663;2.1043;-4.6634;-3.1864;-5.806;0.304;0.9656;-0.201;-1.8958;9391.0;-35.66;6.0;13.61;347.91;-7.62;-114.77;5.0;979.13;56.923;35.956383;-83.92511;795.19;NaN;;5.11;12.226105;240.7;14 / 18;202527;2022-10-13 12:46:43:057
13.474;3.9227;-0.4226;5.8068;-4.0412;-6.7912;6.5578;3.2978;0.5433;-1.6293;-0.0277;0.7545;7333.0;-34.29;-3.94;14.51;222.69;24.34;-139.47;5.0;979.11;54.31;35.956383;-83.92511;795.19;NaN;;5.11;12.226105;240.7;14 / 18;203026;2022-10-13 12:46:43:556
5.6871;-3.2285;-5.2119;7.8562;4.709;-3.5037;-2.5375;-7.7255;-2.0129;0.8941;0.4332;-2.3541;10386.0;-33.71;-0.69;11.4;346.78;-28.7;-114.04;5.0;979.08;53.453;35.956375;-83.92512;790.56;NaN;;4.9;12.226105;240.1;14 / 18;203526;2022-10-13 12:46:44:056
9.9571;3.5815;-0.935;8.1348;-0.4361;-5.4594;0.0978;3.7645;2.881;0.4687;-0.6615;1.1892;3256.0;-32.1;-15.36;6.71;216.34;2.55;-123.87;5.0;979.12;54.83;35.956375;-83.92512;790.56;NaN;;4.9;12.226105;240.1;14 / 18;204026;2022-10-13 12:46:44:556
7.2996;-2.2576;-5.7123;8.5701;3.2322;-3.5037;-2.1382;-5.3473;-2.0498;0.0469;-0.3828;0.6788;6775.0;-35.78;-1.35;10.29;341.61;-15.09;-109.98;5.0;979.03;56.158;35.95637;-83.92513;787.33;NaN;;5.04;12.226105;245.1;13 / 18;204527;2022-10-13 12:46:45:057
15.8213;1.142;0.061;7.427;-2.7591;-5.7791;6.94;3.6856;3.4903;-1.048;-0.657;1.6624;2579.0;-34.63;-1.18;11.63;228.74;19.02;-130.87;5.0;979.1;57.558;35.95637;-83.92513;787.33;NaN;;5.04;12.226105;245.1;13 / 18;205027;2022-10-13 12:46:45:557
4.6672;-6.7442;-4.8876;7.9146;4.6285;-3.4794;-1.3387;-8.5229;-2.146;-0.5059;-0.309;1.3559;3289.0;-32.53;-2.76;9.71;343.02;-28.16;-113.73;5.0;979.06;56.687;35.956364;-83.925156;785.56;NaN;;4.97;12.226105;241.4;13 / 18;205526;2022-10-13 12:46:46:056
16.9023;4.0771;-6.0033;7.3207;-3.4915;-5.5125;9.1658;4.3092;0.5628;0.4102;-0.0991;1.3714;2870.0;-33.62;-6.0;9.75;219.28;20.89;-129.79;5.0;979.07;57.884;35.956364;-83.925156;785.56;NaN;;4.97;12.226105;241.4;13 / 18;206026;2022-10-13 12:46:46:556
6.865;-4.1321;-4.7091;8.3071;2.8013;-4.3949;-2.1039;-6.4357;-0.5127;-0.415;-0.1888;1.4379;2901.0;-34.71;0.26;12.9;335.24;-16.6;-117.88;5.0;979.08;57.476;35.956356;-83.92517;787.44;NaN;;4.64;12.226105;240.6;13 / 18;206526;2022-10-13 12:46:47:056
13.4213;1.3119;-2.1428;7.4821;-3.6024;-5.2165;6.6613;4.1693;2.9995;1.0889;0.1626;-2.0531;2115.0;-34.59;7.07;13.43;233.9;25.87;-129.83;5.0;979.1;55.407;35.956356;-83.92517;787.44;NaN;;4.64;12.226105;240.6;13 / 18;207027;2022-10-13 12:46:47:557
9.1561;-3.6078;-4.0842;8.6245;3.4996;-3.089;-1.8406;-7.5973;-1.5282;-0.0254;-0.233;0.6652;3316.0;-33.6;-5.29;6.98;327.31;-20.91;-109.71;5.0;979.06;54.743;35.95635;-83.92518;787.98;NaN;;5.26;12.226105;243.5;13 / 18;207526;2022-10-13 12:46:48:056
15.3449;-1.963;-3.1161;7.483;-3.7508;-5.1094;6.6548;4.9824;3.3744;0.7751;0.8034;-1.7593;2652.0;-33.6;0.32;9.64;221.71;27.39;-128.68;5.0;979.08;54.629;35.95635;-83.92518;787.98;NaN;;5.26;12.226105;243.5;13 / 18;208026;2022-10-13 12:46:48:556
9.7929;-1.555;-7.0699;9.0935;0.0471;-3.6709;-1.1438;-3.6856;-4.0566;-0.1136;-0.8033;1.1654;3451.0;-32.34;1.28;5.87;339.57;-14.82;-106.69;5.0;979.09;53.649;35.95634;-83.92519;787.76;NaN;;5.08;12.226105;248.0;13 / 18;208527;2022-10-13 12:46:49:057
14.6207;0.1711;-4.0974;8.5265;-1.6448;-4.5566;2.7609;1.2871;1.8387;0.5056;0.0465;-0.1843;3269.0;-35.27;3.94;8.38;258.82;9.66;-118.12;5.0;979.07;53.254;35.95634;-83.92519;787.76;NaN;;5.08;12.226105;248.0;13 / 18;209027;2022-10-13 12:46:49:557
9.9906;-2.5678;-5.0791;8.9528;0.4271;-3.9794;0.4811;-4.8346;-2.1836;-0.3297;-0.4822;0.171;3409.0;-35.1;-2.4;6.99;266.48;-2.5;-113.96;5.0;979.09;54.913;35.956337;-83.9252;788.37;NaN;;5.11;12.226105;250.4;13 / 18;209526;2022-10-13 12:46:50:056
17.2974;0.5052;-4.1847;7.4763;-3.3848;-5.3684;5.9047;3.7561;1.3732;-0.4121;1.3371;-1.206;2777.0;-35.51;6.6;11.33;244.56;20.19;-125.68;5.0;979.08;53.013;35.956337;-83.9252;788.37;NaN;;5.11;12.226105;250.4;13 / 18;210027;2022-10-13 12:46:50:557
11.3061;-2.3761;-6.5994;8.8426;0.1244;-4.2383;0.3093;-4.2161;-0.5676;0.4891;-0.1813;2.1571;3285.0;-35.53;-2.87;9.21;319.8;-16.31;-113.73;5.0;979.11;53.809;35.95633;-83.92522;783.52;NaN;;4.82;12.226105;240.0;13 / 18;210527;2022-10-13 12:46:51:057
14.3133;-4.9391;-5.1712;8.8122;-1.2634;-4.1133;8.2329;-0.694;-3.0492;-0.3893;0.3559;-1.2806;2628.0;-35.72;13.46;13.37;238.4;29.61;-126.65;5.0;979.11;56.604;35.95633;-83.92522;783.52;NaN;;4.82;12.226105;240.0;13 / 18;211026;2022-10-13 12:46:51:556
13.456;-3.7576;-5.1233;8.7942;0.3062;-4.3288;-2.5731;-5.0217;0.5063;-0.7321;0.2304;3.7627;3111.0;-34.28;-10.63;11.81;203.28;-1.79;-116.21;5.0;979.14;53.923;35.956326;-83.92523;781.96;NaN;;4.79;12.226105;245.1;13 / 18;211526;2022-10-13 12:46:52:056
15.5522;-3.6894;-3.1388;8.8865;-1.6504;-3.8049;7.2712;-0.3733;-1.4708;-0.9254;1.549;-0.6497;2569.0;-32.23;13.28;13.07;255.59;25.6;-128.9;5.0;979.12;58.002;35.956326;-83.92523;781.96;NaN;;4.79;12.226105;245.1;13 / 18;212027;2022-10-13 12:46:52:557
9.859;-1.695;-6.7358;9.081;1.9068;-3.1734;-3.9619;-6.4512;-0.4904;0.2893;-0.768;2.0813;3078.0;-33.24;-0.37;5.4;356.8;-22.94;-107.93;5.0;979.12;56.889;35.95632;-83.92524;780.04;NaN;;5.11;12.226105;251.0;13 / 18;212526;2022-10-13 12:46:53:056
20.4586;-1.7225;-7.0962;7.0444;-4.0542;-5.4873;5.65;4.571;3.0831;-0.9184;1.4504;-2.6583;2564.0;-33.23;14.49;10.26;256.08;28.55;-127.95;5.0;979.11;54.854;35.95632;-83.92524;780.04;NaN;;5.11;12.226105;251.0;13 / 18;213027;2022-10-13 12:46:53:557
11.4185;-2.8047;-7.7043;8.1314;3.0984;-4.5223;-2.0058;-8.6672;-0.3432;0.1122;-0.2693;2.0912;3061.0;-34.07;-6.47;11.61;312.53;-18.42;-119.08;5.0;979.14;58.0;35.956318;-83.925255;779.59;NaN;;4.97;12.226105;240.0;13 / 18;213526;2022-10-13 12:46:54:056
17.5056;-2.2935;-8.8594;7.2896;-3.8732;-5.2943;6.4181;5.4746;2.7157;0.304;0.5585;-2.6622;2826.0;-33.34;6.49;13.99;234.18;28.62;-136.79;5.0;979.07;55.531;35.956318;-83.925255;779.59;NaN;;4.97;12.226105;240.0;13 / 18;214026;2022-10-13 12:46:54:556
12.7451;-3.5252;-6.1241;8.5082;-0.0997;-4.8755;-0.9173;-4.2856;0.5158;-0.1363;-0.5785;2.6179;3467.0;-33.84;-1.12;9.98;322.97;-23.82;-122.27;5.0;979.11;55.425;35.95631;-83.92526;782.67;NaN;;4.97;12.226105;242.3;13 / 18;214526;2022-10-13 12:46:55:056
16.6702;-4.1836;-5.4048;7.9689;-2.686;-5.045;8.7297;4.0097;0.9198;0.2574;1.7322;-3.4285;2937.0;-33.79;16.73;14.04;315.32;15.9;-122.34;5.0;979.14;54.719;35.95631;-83.92526;782.67;NaN;;4.97;12.226105;242.3;13 / 18;215027;2022-10-13 12:46:55:557
7.9735;1.5814;-4.2616;8.7777;0.069;-4.3724;1.8207;-1.485;-0.6801;-0.7514;0.1994;2.4086;3707.0;-36.81;-6.09;6.43;242.68;-0.4;-116.48;5.0;979.08;54.559;35.95631;-83.92528;786.01;NaN;;5.15;12.226105;256.4;13 / 18;215527;2022-10-13 12:46:56:057
7.3211;-0.6595;-2.7413;8.5746;-1.6083;-4.4788;5.5639;2.1818;-0.0165;0.1615;0.9845;-1.9753;3116.0;-36.73;9.86;10.84;296.32;9.44;-117.58;5.0;979.06;54.046;35.95631;-83.92528;786.01;NaN;;5.15;12.226105;256.4;13 / 18;216027;2022-10-13 12:46:56:557
7.6995;-0.2548;-3.1603;8.4805;-1.9588;-4.5183;2.088;0.6511;-1.4288;-0.3264;-0.4218;1.6978;3695.0;-38.38;2.66;6.81;278.64;2.33;-115.03;5.0;979.07;53.336;35.956306;-83.92529;787.23;NaN;;4.82;12.226105;254.7;13 / 18;216527;2022-10-13 12:46:57:057
6.1576;-3.1161;-4.4554;9.0735;1.8227;-3.2434;-2.4106;-5.0258;-0.8365;1.7195;0.4343;-3.162;3497.0;-34.29;19.5;10.29;352.83;4.94;-109.82;5.0;979.03;53.838;35.956306;-83.92529;787.23;NaN;;4.82;12.226105;254.7;13 / 18;217026;2022-10-13 12:46:57:556
8.9408;1.051;-4.0424;8.4289;-2.115;-4.5443;1.0506;2.676;0.5877;-0.2524;-0.4264;1.8794;3769.0;-38.62;-0.75;6.28;235.78;12.45;-118.33;5.0;979.09;54.266;35.956303;-83.92531;787.94;NaN;;4.93;12.226105;249.5;13 / 18;217527;2022-10-13 12:46:58:057
5.8271;-2.9722;-4.1369;9.0422;1.483;-3.4943;-3.0439;-3.5009;0.1798;0.9203;0.5566;-2.4242;3585.0;-36.09;18.64;9.71;347.35;2.87;-111.43;5.0;979.1;55.84;35.956303;-83.92531;787.94;NaN;;4.93;12.226105;249.5;13 / 18;218027;2022-10-13 12:46:58:557
9.4137;1.0451;-2.6982;8.2502;-2.7405;-4.5382;-0.4097;2.2228;0.607;-0.5065;-0.4358;1.8956;3802.0;-38.91;3.41;5.51;241.09;16.23;-118.81;5.0;979.14;53.602;35.956303;-83.92533;789.11;NaN;;5.11;12.226105;254.0;14 / 18;218527;2022-10-13 12:46:59:057
6.4053;-4.0041;-3.6739;9.1014;1.8893;-3.1248;-1.9774;-4.5479;-0.3682;0.6137;-0.2455;-1.5899;3702.0;-33.51;20.83;10.24;350.24;5.58;-111.25;5.0;979.12;53.639;35.956303;-83.92533;789.11;NaN;;5.11;12.226105;254.0;14 / 18;219026;2022-10-13 12:46:59:556
10.5999;2.2253;-4.1261;8.3575;-2.7742;-4.3158;-0.5113;1.8811;-0.4996;0.1148;-0.6372;2.1971;3799.0;-37.82;1.26;5.89;232.25;16.43;-117.31;5.0;979.14;54.603;35.9563;-83.92535;790.93;NaN;;5.22;12.226105;263.7;14 / 18;219526;2022-10-13 12:47:00:056
6.0547;-3.6595;-4.0795;8.8214;1.8678;-3.8555;-2.8008;-4.7542;0.6177;0.4673;-0.3688;-1.1344;3664.0;-34.52;16.61;9.77;345.35;3.69;-111.98;5.0;979.13;54.879;35.9563;-83.92535;790.93;NaN;;5.22;12.226105;263.7;14 / 18;220026;2022-10-13 12:47:00:556
11.1984;0.4705;-3.7863;7.0595;-4.4404;-5.1592;3.208;4.2463;1.4292;-0.69;-0.274;2.3311;3581.0;-37.09;-4.97;7.99;214.51;17.64;-118.83;5.0;979.13;53.847;35.956295;-83.925354;793.53;NaN;;5.29;12.226105;241.9;14 / 18;220526;2022-10-13 12:47:01:056
6.0284;-3.2788;-3.2441;9.1164;1.8387;-3.1113;-1.6947;-4.7994;-0.4795;0.2869;0.1597;-1.7348;3717.0;-33.36;13.82;8.25;351.26;-10.81;-108.84;5.0;979.06;54.787;35.956295;-83.925354;793.53;NaN;;5.29;12.226105;241.9;14 / 18;221027;2022-10-13 12:47:01:557
9.8169;0.1675;-3.6631;7.2983;-4.2554;-4.9796;1.7217;3.3461;2.1518;-0.9808;-0.0614;2.3549;3726.0;-35.19;0.68;5.36;230.48;25.72;-124.31;5.0;979.07;53.919;35.95629;-83.92537;794.28;NaN;;5.33;12.226105;252.3;13 / 18;221527;2022-10-13 12:47:02:057
6.8411;-4.1584;-4.7198;8.9688;1.4804;-3.6795;0.4785;-5.4756;-0.4073;1.2074;-0.266;-2.8969;3886.0;-31.09;22.46;10.8;356.59;-8.68;-112.31;5.0;979.05;53.483;35.95629;-83.92537;794.28;NaN;;5.33;12.226105;252.3;13 / 18;222026;2022-10-13 12:47:02:556
12.3356;1.6914;-3.7648;7.7987;-2.9437;-5.1658;2.0503;4.7891;1.5627;-0.182;-0.2681;0.9157;3939.0;-36.79;-2.4;8.08;238.59;6.18;-117.05;5.0;979.1;53.611;35.95629;-83.925385;795.75;NaN;;5.11;12.226105;252.7;13 / 18;222527;2022-10-13 12:47:03:057
7.9065;-6.2055;-4.5559;8.6597;1.9253;-4.18;-1.8346;-5.6269;-0.5387;0.2651;-0.2868;-1.2817;4003.0;-35.89;10.99;9.86;342.4;-9.37;-113.76;5.0;979.12;51.804;35.95629;-83.925385;795.75;NaN;;5.11;12.226105;252.7;13 / 18;223027;2022-10-13 12:47:03:557
17.6468;-2.4395;-4.1967;6.8417;-4.3057;-5.5517;2.6491;4.718;1.7902;-0.9471;0.501;0.9523;3524.0;-36.26;9.79;10.07;247.91;26.04;-129.06;5.0;979.08;53.127;35.95629;-83.9254;799.02;NaN;;5.33;12.226105;264.3;13 / 18;223526;2022-10-13 12:47:04:056
5.8845;-3.2524;-3.9921;8.8906;1.6253;-3.806;-1.2795;-6.1857;-0.6415;-0.4729;-0.0278;-0.8268;3870.0;-33.79;15.06;9.66;349.1;-10.38;-112.97;5.0;979.09;54.265;35.95629;-83.9254;799.02;NaN;;5.33;12.226105;264.3;13 / 18;224027;2022-10-13 12:47:04:557
14.2591;-2.071;-3.1364;7.2905;-3.9604;-5.2282;4.0942;5.3158;1.9272;-0.4833;1.0187;-0.1702;3378.0;-36.43;7.54;7.43;248.11;23.82;-125.65;5.0;979.12;56.218;35.95629;-83.92542;801.09;NaN;;5.29;12.226105;260.6;13 / 18;224526;2022-10-13 12:47:05:056
9.69;-2.3785;-4.8218;8.8539;0.5182;-4.1846;-1.4463;-6.5553;0.2593;0.4206;-0.0906;1.7742;4004.0;-36.21;5.06;6.43;322.26;-10.93;-113.73;5.0;979.13;60.782;35.95629;-83.92542;801.09;NaN;;5.29;12.226105;260.6;13 / 18;225027;2022-10-13 12:47:05:557
13.8344;-2.8454;-5.1676;7.1156;-4.2698;-5.2256;5.5353;5.7293;0.7694;-0.0822;0.9919;-1.1498;3286.0;-35.23;16.26;9.66;267.94;25.81;-126.29;5.0;979.1;54.622;35.956287;-83.92543;803.05;NaN;;4.86;12.226105;252.7;12 / 18;225527;2022-10-13 12:47:06:057
9.3873;-3.4582;-6.0775;8.6872;0.7028;-4.4954;-1.4983;-5.8529;-0.3183;0.5495;-0.0785;2.2105;4084.0;-36.81;6.24;7.67;327.06;-14.02;-116.77;5.0;979.15;57.744;35.956287;-83.92543;803.05;NaN;;4.86;12.226105;252.7;12 / 18;226026;2022-10-13 12:47:06:556
14.7524;-2.8298;-3.2788;8.4815;-1.9952;-4.5004;5.1941;0.832;1.9624;-0.201;1.0885;-1.409;3385.0;-36.99;14.51;10.16;264.72;25.27;-128.77;5.0;979.14;57.905;35.956287;-83.925446;805.1;NaN;;4.5;12.226105;251.5;12 / 18;226527;2022-10-13 12:47:07:057
9.5345;-3.8486;-6.4388;8.517;1.3513;-4.6696;-3.0815;-6.3598;0.3293;0.4029;0.1355;2.3754;4121.0;-38.61;-5.23;7.2;271.02;-7.92;-118.73;5.0;979.14;56.12;35.956287;-83.925446;805.1;NaN;;4.5;12.226105;251.5;12 / 18;227026;2022-10-13 12:47:07:556
12.5007;-3.4056;-4.0723;8.419;-2.0784;-4.5795;4.8229;-0.8696;0.6891;-0.022;0.6891;-1.8558;3291.0;-39.13;11.68;8.85;288.33;12.24;-118.54;5.0;979.17;56.409;35.956284;-83.92546;804.32;NaN;;4.75;12.226105;245.9;12 / 18;227527;2022-10-13 12:47:08:057
9.3574;-4.739;-5.7864;8.6371;0.2962;-4.6351;-1.3371;-6.1527;-0.3293;0.2596;0.0546;2.5064;3799.0;-38.06;-7.05;8.89;239.74;-1.73;-118.22;5.0;979.18;58.403;35.956284;-83.92546;804.32;NaN;;4.75;12.226105;245.9;12 / 18;228026;2022-10-13 12:47:08:556
15.4552;-1.6077;-1.5084;8.7916;-2.0693;-3.8205;5.4479;1.1728;0.7396;-0.5697;2.5494;-2.4547;3476.0;-36.51;13.56;8.1;264.92;24.29;-126.78;5.0;979.14;61.306;35.95628;-83.92547;806.84;NaN;;4.64;12.226105;238.7;12 / 18;228527;2022-10-13 12:47:09:057
5.9542;5.3016;0.8043;5.6824;6.5083;4.6393;0.2953;-1.4042;-3.8561;-0.1823;2.1865;0.006;5363.0;-22.97;-8.14;-12.51;342.65;-43.99;-68.95;5.0;979.09;57.201;35.95628;-83.92547;806.84;NaN;;4.64;12.226105;238.7;12 / 18;229026;2022-10-13 12:47:09:556
1.5562;4.9307;6.6939;2.026;5.2057;8.0602;0.0345;0.6816;2.5354;0.172;0.5376;0.3344;17068.0;25.89;-15.13;-24.54;264.15;-32.06;-14.11;5.0;979.09;54.9;35.956272;-83.92549;806.53;NaN;;5.29;12.226105;233.0;12 / 18;229527;2022-10-13 12:47:10:057
3.0248;3.8127;8.6091;4.4009;3.3778;8.0866;0.7018;1.5515;0.0076;-1.905;-0.8561;-0.5496;17743.0;31.11;-15.11;-22.18;254.28;-31.54;-29.17;5.0;979.1;56.063;35.956272;-83.92549;806.53;NaN;;5.29;12.226105;233.0;12 / 18;230027;2022-10-13 12:47:10:557
4.1261;3.2154;7.8108;4.2819;2.8812;8.3387;-0.3765;-0.7895;3.1144;0.7888;0.3238;0.4314;19709.0;16.88;0.28;-31.84;281.56;-17.09;-27.18;5.0;979.13;57.284;35.95627;-83.9255;805.76;NaN;;4.72;12.226105;243.4;12 / 18;230527;2022-10-13 12:47:11:057
6.172;1.0534;7.564;7.6855;-0.105;6.0904;0.4983;1.1647;1.5413;-1.9955;-1.4195;-0.3596;17985.0;9.99;1.67;-30.36;279.08;-8.79;-41.72;5.0;979.15;57.978;35.95627;-83.9255;805.76;NaN;;4.72;12.226105;243.4;12 / 18;231026;2022-10-13 12:47:11:556
6.2988;0.0048;-3.4822;9.5139;1.7597;-1.5998;4.6113;0.562;3.4057;2.3191;0.1116;-1.2572;5695.0;-27.56;4.35;-9.81;300.64;-10.34;-99.55;5.0;979.04;58.317;35.956264;-83.925514;806.71;NaN;;4.72;12.226105;255.1;12 / 18;231526;2022-10-13 12:47:12:056
9.6864;0.4274;-2.3151;8.2706;-3.3601;-4.0592;1.4633;3.3802;1.3297;-0.241;-0.6388;1.4915;4044.0;-37.41;-7.11;-5.96;235.44;8.66;-108.3;5.0;979.09;57.403;35.956264;-83.925514;806.71;NaN;;4.72;12.226105;255.1;12 / 18;232027;2022-10-13 12:47:12:557
6.9272;-3.2465;-2.9841;8.8879;3.3532;-2.4357;-1.1622;-6.5128;-0.5229;1.1987;0.6014;-3.1141;3821.0;-35.78;14.87;0.54;334.44;-2.19;-104.12;5.0;979.12;58.567;35.95626;-83.92553;805.99;NaN;;4.39;12.226105;238.7;12 / 18;232526;2022-10-13 12:47:13:056
5.9722;1.9717;-2.5029;8.573;0.934;-4.6693;-2.0111;1.5829;-0.7289;-0.0617;-0.4116;1.5579;4233.0;-38.34;-17.46;-0.34;232.9;-5.47;-118.58;5.0;979.16;57.274;35.95626;-83.92553;805.99;NaN;;4.39;12.226105;238.7;12 / 18;233027;2022-10-13 12:47:13:557
5.5819;-1.5359;-4.3143;8.7516;1.7726;-4.0544;-2.5362;-2.5053;0.1098;0.5152;0.4054;-2.0123;3766.0;-44.08;-1.72;3.92;290.48;-10.41;-114.86;5.0;979.21;60.002;35.956253;-83.92554;806.91;NaN;;5.29;12.226105;239.0;12 / 18;233527;2022-10-13 12:47:14:057
7.1979;-0.4155;-2.1775;8.7614;-1.0818;-4.2706;-0.6764;0.7584;0.1768;-0.0872;-0.3486;1.5442;3809.0;-44.53;-10.99;1.59;229.16;6.33;-115.99;5.0;979.13;57.382;35.956253;-83.92554;806.91;NaN;;5.29;12.226105;239.0;12 / 18;234027;2022-10-13 12:47:14:557
6.7932;-1.8637;-4.7055;8.7674;2.8119;-3.3759;-0.8477;-4.3513;-0.5803;-0.2972;-0.1316;-1.8956;3439.0;-43.07;8.55;1.24;299.7;0.8;-111.45;5.0;979.13;60.146;35.95625;-83.92555;805.47;NaN;;4.93;12.226105;249.0;12 / 18;234526;2022-10-13 12:47:15:056
13.8224;1.992;-2.5232;7.2621;-4.1326;-5.1336;4.8559;5.277;2.0188;-1.0453;-0.2711;3.2822;4316.0;-40.76;-1.57;-0.09;241.36;16.0;-121.18;5.0;979.11;59.731;35.95625;-83.92555;805.47;NaN;;4.93;12.226105;249.0;12 / 18;235026;2022-10-13 12:47:15:556
5.3689;-3.5575;-4.7533;9.215;1.434;-3.0328;1.7031;-5.7086;-0.2015;1.938;-0.6567;-2.5966;4159.0;-34.26;24.3;3.81;346.59;-8.41;-108.22;5.0;979.07;56.54;35.95625;-83.92557;806.48;NaN;;4.82;12.226105;257.0;13 / 18;235526;2022-10-13 12:47:16:056
10.6406;1.1324;-0.9852;8.2059;-2.8405;-4.5568;0.8075;2.7435;2.4987;-0.9426;-0.5402;2.2414;5192.0;-42.17;2.83;0.45;273.24;3.18;-109.82;5.0;979.07;59.003;35.95625;-83.92557;806.48;NaN;;4.82;12.226105;257.0;13 / 18;236026;2022-10-13 12:47:16:556
6.944;-3.3278;-3.7385;9.2636;0.75;-3.1296;1.5001;-3.9339;-0.9337;0.756;0.0492;-2.4471;4742.0;-31.97;26.83;7.56;354.83;-4.39;-108.67;5.0;978.98;56.32;35.95625;-83.92558;808.01;NaN;;5.58;12.226105;278.5;13 / 18;236527;2022-10-13 12:47:17:057
11.0285;0.6523;-4.2616;7.3836;-4.1417;-4.9496;2.6739;4.0814;0.7398;-0.1203;-0.7442;1.6563;4398.0;-40.39;6.11;0.99;272.31;8.32;-115.94;5.0;979.05;57.721;35.95625;-83.92558;808.01;NaN;;5.58;12.226105;278.5;13 / 18;237027;2022-10-13 12:47:17:557
4.2003;-2.7317;-3.1041;9.0682;1.713;-3.3173;3.1531;-6.966;0.1094;1.4827;-0.1409;-3.0597;3906.0;-34.35;16.97;2.48;336.4;-10.06;-110.09;5.0;979.06;57.221;35.956257;-83.9256;808.45;NaN;;5.0;12.226105;277.2;13 / 18;237526;2022-10-13 12:47:18:056
11.3791;3.7014;-4.6911;8.2541;-2.6748;-4.57;0.2279;4.1849;0.5964;-0.0828;-0.9219;1.0545;3964.0;-41.21;-9.04;-0.84;241.3;1.11;-114.23;5.0;979.12;60.216;35.956257;-83.9256;808.45;NaN;;5.0;12.226105;277.2;13 / 18;238027;2022-10-13 12:47:18:557
6.53;-2.8214;-3.9754;8.5645;2.4713;-4.088;-1.8909;-5.1777;0.2108;0.5624;0.2656;-2.3169;3932.0;-41.98;7.89;2.57;305.03;-3.33;-114.47;5.0;979.19;61.439;35.956257;-83.92561;806.96;NaN;;5.11;12.226105;261.0;13 / 18;238527;2022-10-13 12:47:19:057
9.8554;2.2469;-5.5436;7.8282;-3.4398;-4.8019;0.0035;3.0007;1.1514;0.3793;-0.6984;1.8269;3459.0;-40.8;-7.73;0.96;225.92;20.53;-121.53;5.0;979.14;58.555;35.956257;-83.92561;806.96;NaN;;5.11;12.226105;261.0;13 / 18;239026;2022-10-13 12:47:19:556
8.0931;-1.2317;-2.7221;8.9635;3.8825;0.8671;-0.0688;-5.999;-5.5931;-0.2825;1.8396;-3.0952;4229.0;-38.1;10.91;-2.18;3.79;-23.32;-84.47;5.0;979.15;58.077;35.956253;-83.92563;806.72;NaN;;4.97;12.226105;247.5;13 / 18;239527;2022-10-13 12:47:20:057
2.0052;4.0244;6.4496;2.2982;3.1668;8.9922;0.9497;0.4122;-3.1592;0.4116;0.5226;-0.2423;22046.0;-2.23;-2.03;-31.11;324.23;-18.84;-14.34;5.0;979.2;61.129;35.956253;-83.92563;806.72;NaN;;4.97;12.226105;247.5;13 / 18;240026;2022-10-13 12:47:20:556
0.8907;3.912;4.4136;2.2821;3.8075;8.7445;-1.42;-0.7986;-0.8171;0.0356;-0.6747;0.1131;21090.0;28.14;-3.15;-33.34;281.18;-20.73;-11.29;5.0;979.22;58.729;35.956245;-83.92565;809.03;NaN;;5.36;12.226105;245.8;13 / 18;240527;2022-10-13 12:47:21:057
3.8952;2.0973;6.2964;6.9591;1.5519;6.733;-2.7083;0.6258;-0.2557;-1.0915;-0.0578;-0.6325;51990.0;6.94;1.35;-38.66;278.58;-10.4;-45.97;5.0;979.12;58.743;35.956245;-83.92565;809.03;NaN;;5.36;12.226105;245.8;13 / 18;241027;2022-10-13 12:47:21:557
3.1699;0.99;3.146;6.3867;2.9781;6.8199;0.8198;-2.2306;1.073;1.4478;0.0932;0.2793;89827.0;-5.44;10.31;-38.25;310.38;-17.68;-43.12;5.0;979.0;60.922;35.956245;-83.92567;812.04;NaN;;5.58;12.226105;265.1;12 / 18;241528;2022-10-13 12:47:22:058
4.3657;2.1368;4.3621;7.8523;1.0186;5.7857;-1.4477;1.6312;0.2628;-0.1012;-0.3468;0.1002;136541.0;-4.43;3.15;-39.0;280.31;-3.93;-49.62;5.0;979.09;60.434;35.956245;-83.92567;812.04;NaN;;5.58;12.226105;265.1;12 / 18;242029;2022-10-13 12:47:22:559
4.8242;1.0822;1.7177;7.1203;3.3274;5.8652;3.1631;-3.2212;4.281;4.0382;-1.1417;-0.9212;26320.0;-7.97;10.35;-37.09;309.7;-19.83;-50.52;5.0;979.0;59.272;35.95625;-83.92568;814.05;NaN;;5.18;12.226105;266.4;12 / 18;242526;2022-10-13 12:47:23:056
8.7876;-0.0742;1.8099;9.7356;-0.2306;-1.1554;3.0128;0.7231;-0.7089;-3.5788;0.0393;1.8523;30051.002;-24.97;-14.81;-24.32;249.81;-12.61;-96.41;5.0;979.08;60.665;35.95625;-83.92568;814.05;NaN;;5.18;12.226105;266.4;12 / 18;243027;2022-10-13 12:47:23:557
10.6717;-1.884;-0.3066;9.5956;-1.6704;-1.1419;5.9701;1.3983;3.5024;1.8309;1.1198;-1.5476;8061.0;-32.44;27.38;-7.84;331.23;9.81;-96.79;5.0;978.94;61.817;35.95625;-83.9257;815.77;NaN;;4.46;12.226105;268.9;12 / 18;243526;2022-10-13 12:47:24:056
