sep=;
ACCELEROMETER X (m/s²);ACCELEROMETER Y (m/s²);ACCELEROMETER Z (m/s²);GRAVITY X (m/s²);GRAVITY Y (m/s²);GRAVITY Z (m/s²);LINEAR ACCELERATION X (m/s²);LINEAR ACCELERATION Y (m/s²);LINEAR ACCELERATION Z (m/s²);GYROSCOPE X (rad/s);GYROSCOPE Y (rad/s);GYROSCOPE Z (rad/s);LIGHT (lux);MAGNETIC FIELD X (μT);MAGNETIC FIELD Y (μT);MAGNETIC FIELD Z (μT);ORIENTATION Z (azimuth °);ORIENTATION X (pitch °);ORIENTATION Y (roll °);PROXIMITY (i);ATMOSPHERIC PRESSURE (hPa);SOUND LEVEL (dB);LOCATION Latitude : ;LOCATION Longitude : ;LOCATION Altitude ( m);LOCATION Altitude-google ( m);LOCATION Altitude-atmospheric pressure ( m);LOCATION Speed ( Kmh);LOCATION Accuracy ( m);LOCATION ORIENTATION (°);Satellites in range;Time since start in ms ;YYYY-MO-DD HH-MI-SS_SSS
-1.2748;1.0475;10.7794;-0.806;2.6269;9.4138;0.4584;1.4075;1.0095;-0.3451;-0.2267;-0.1145;10479.0;2.46;-32.96;-27.45;177.3;-19.93;6.41;5.0;987.88;60.226;35.958313;-83.92486;754.15;NaN;;3.82;21.096155;140.3;12 / 18;26;2022-10-12 12:10:17:200
-1.6699;0.2369;12.7822;-0.8163;1.6521;9.632;-1.3489;0.6992;1.0757;0.8379;-0.5414;-0.3323;31192.0;-1.76;-29.31;-33.19;168.3;-9.7;4.84;5.0;987.86;60.862;35.9583;-83.92484;758.13;NaN;;4.54;19.200745;148.0;13 / 18;526;2022-10-12 12:10:17:700
-0.0826;0.1484;10.8081;-1.1594;1.1257;9.6726;0.7011;2.1767;0.348;-1.858;0.5628;-0.1988;18987.0;-2.96;-30.3;-32.78;165.17;-6.59;6.84;5.0;987.88;59.325;35.9583;-83.92484;758.13;NaN;;4.54;19.200745;148.0;13 / 18;1026;2022-10-12 12:10:18:200
-6.8076;-0.705;10.6143;-3.4376;0.168;9.1829;-2.4425;0.9318;0.6149;-0.436;-1.2278;-0.4875;17032.0;8.38;-23.76;-37.18;166.8;-0.98;20.52;5.0;987.85;59.522;35.958286;-83.92484;759.51;NaN;;4.25;15.910999;148.3;14 / 18;1526;2022-10-12 12:10:18:700
-1.1216;2.7018;10.7363;-0.9068;3.2518;9.2073;-0.19;-0.613;0.6221;0.5711;-0.653;-0.1667;15416.0;6.13;-26.63;-35.31;183.11;-16.7;8.35;5.0;987.85;58.474;35.958286;-83.92484;759.51;NaN;;4.25;15.910999;148.3;14 / 18;2026;2022-10-12 12:10:19:200
1.0893;1.8721;11.7778;-0.3337;2.5362;9.4671;0.0109;0.0522;2.0869;0.0838;0.3746;0.4694;6030.0;-0.6;-34.69;-28.67;175.9;-17.93;1.48;5.0;987.85;59.586;35.95828;-83.924835;760.47;NaN;;4.43;15.467156;149.5;14 / 18;2526;2022-10-12 12:10:19:700
-0.0227;1.4091;8.8666;0.1259;3.3146;9.2286;0.578;-0.0365;1.0224;-0.3887;-0.2575;-0.7215;14595.0;-3.66;-33.45;-30.3;170.25;-19.75;-0.78;5.0;987.84;59.176;35.95828;-83.924835;760.47;NaN;;4.43;15.467156;149.5;14 / 18;3026;2022-10-12 12:10:20:200
-3.3003;-1.5969;13.1136;-0.8769;2.5234;9.4358;-0.5604;0.5614;0.858;0.439;-0.0814;0.565;15978.0;0.86;-32.27;-30.75;175.34;-14.91;5.31;5.0;987.82;59.388;35.95827;-83.92481;761.29;NaN;;4.28;14.340271;148.6;15 / 18;3526;2022-10-12 12:10:20:700
-0.3796;2.752;8.1975;-0.2702;3.2821;9.2372;1.5683;-0.644;3.4564;-0.8094;-0.511;-0.594;15460.0;1.28;-33.09;-30.41;181.76;-18.34;0.62;5.0;987.89;59.474;35.95827;-83.92481;761.29;NaN;;4.28;14.340271;148.6;15 / 18;4026;2022-10-12 12:10:21:200
2.7592;3.7935;5.8558;2.5455;2.5124;9.1312;-1.6007;0.2472;1.5728;-0.0662;-0.6564;0.0228;19827.0;4.11;-32.31;-29.85;206.58;-14.84;-15.58;5.0;987.78;59.668;35.958263;-83.924805;761.85;NaN;;4.5;13.660139;146.8;15 / 18;4527;2022-10-12 12:10:21:701
13.3388;-3.9885;-0.1699;8.6922;-3.8359;-2.4294;4.5438;-2.7436;3.3685;-1.4934;-1.553;1.5546;25102.0;-26.57;-22.37;-21.92;217.04;11.21;-86.73;5.0;987.84;59.114;35.958263;-83.924805;761.85;NaN;;4.5;13.660139;146.8;15 / 18;5026;2022-10-12 12:10:22:200
12.7666;-6.0476;-1.4139;7.8036;-4.7401;-3.5786;4.121;1.2551;2.7728;1.2568;-0.0743;-0.2781;9586.0;-42.39;-0.67;3.83;214.56;28.9;-114.64;5.0;987.83;64.657;35.958252;-83.924805;762.68;NaN;;4.28;14.018597;150.0;15 / 18;5526;2022-10-12 12:10:22:700
11.1458;-4.4351;-5.0755;9.3879;-1.276;-2.5316;-1.711;-3.8186;-1.8986;0.2149;-0.4536;1.9911;5333.0;-40.57;-12.86;6.11;184.07;-5.12;-99.24;5.0;987.83;64.642;35.958252;-83.924805;762.68;NaN;;4.28;14.018597;150.0;15 / 18;6026;2022-10-12 12:10:23:200
15.7866;-4.1106;-2.3174;7.0152;-5.9724;-3.3597;7.4705;3.4785;1.0422;-0.1624;0.8821;-0.2838;4799.0;-39.81;-3.9;15.39;187.34;37.52;-115.59;5.0;987.84;57.973;35.95824;-83.92479;776.52;NaN;;4.57;13.423434;142.7;15 / 18;6526;2022-10-12 12:10:23:700
8.796;-5.8307;-4.4076;9.1727;-0.8467;-3.3637;-1.7074;-4.2768;-1.1612;-0.0417;-0.0444;1.9582;5680.0;-39.79;-15.3;16.8;173.32;4.95;-110.14;5.0;987.81;60.34;35.95824;-83.92479;776.52;NaN;;4.57;13.423434;142.7;15 / 18;7026;2022-10-12 12:10:24:200
15.1116;-3.6437;-2.467;8.068;-4.544;-3.2295;6.3925;2.6023;0.9205;1.0684;1.0299;-2.9253;5390.0;-40.76;0.86;21.41;168.19;27.6;-111.82;5.0;987.82;64.87;35.958237;-83.92479;772.96;NaN;;4.57;13.827149;130.7;15 / 18;7526;2022-10-12 12:10:24:700
10.4958;-7.4827;-4.7115;8.9464;0.6538;-3.9629;-4.2882;-5.7588;0.2225;-0.0404;-0.5346;2.0558;5801.0;-39.81;-14.02;18.28;142.89;-11.29;-109.11;5.0;987.81;62.063;35.958237;-83.92479;772.96;NaN;;4.57;13.827149;130.7;15 / 18;8026;2022-10-12 12:10:25:200
14.3635;-1.7596;-2.3115;7.0183;-5.4801;-4.1088;8.6668;1.3027;3.8135;1.3396;0.7449;-2.4626;5679.0;-40.67;-5.42;20.98;201.84;38.54;-133.03;5.0;987.81;61.325;35.95823;-83.924774;774.8;NaN;;4.03;13.9863;122.2;15 / 18;8526;2022-10-12 12:10:25:700
4.1106;-4.4088;-4.3322;8.8638;2.0712;-3.6486;-3.1169;-7.5806;0.3318;0.234;-0.6867;0.1109;5210.0;-34.59;-14.49;16.29;165.17;-12.19;-112.37;5.0;987.82;60.528;35.95823;-83.924774;774.8;NaN;;4.03;13.9863;122.2;15 / 18;9026;2022-10-12 12:10:26:200
14.5286;-1.7991;-4.1022;5.5823;-6.0178;-5.3661;8.0556;4.4348;3.482;0.3118;0.8863;-0.5902;4431.0;-30.3;1.16;23.38;190.71;37.85;-133.87;5.0;987.83;60.864;35.958218;-83.92477;778.91;NaN;;4.43;15.653666;130.2;15 / 18;9525;2022-10-12 12:10:26:699
5.6201;-4.5248;-5.8714;8.7112;1.5858;-4.2154;-2.8645;-7.9237;0.5473;-0.1389;-0.0799;-0.8522;5788.0;-33.92;-7.57;24.41;72.61;-16.02;-110.11;5.0;987.8;61.771;35.958218;-83.92477;778.91;NaN;;4.43;15.653666;130.2;15 / 18;10027;2022-10-12 12:10:27:201
13.4237;-1.9451;-6.2067;6.5394;-5.9541;-4.2373;5.3315;8.1014;-2.8882;-0.9018;0.8301;-0.3627;4790.0;-32.1;-9.21;29.81;166.88;37.38;-122.94;5.0;987.82;61.597;35.958202;-83.92475;776.87;NaN;;5.08;15.043882;139.4;15 / 18;10527;2022-10-12 12:10:27:701
5.6118;-2.6922;-4.1512;8.4327;1.5911;-4.7464;-2.5546;-7.561;0.763;0.7724;0.1768;2.0123;6434.0;-29.4;-16.43;27.51;100.75;-19.36;-115.63;5.0;987.8;63.843;35.958202;-83.92475;776.87;NaN;;5.08;15.043882;139.4;15 / 18;11026;2022-10-12 12:10:28:200
18.0634;-3.4558;-3.3529;5.7566;-5.7505;-5.4738;9.1548;6.9244;1.159;-0.5362;0.8327;0.2932;5006.0;-31.97;-8.17;28.67;181.86;35.9;-133.56;5.0;987.82;59.859;35.95819;-83.92475;777.35;NaN;;4.28;14.973867;147.6;15 / 18;11526;2022-10-12 12:10:28:700
13.6953;-4.587;-5.2968;8.9332;0.4109;-4.0248;-6.5286;-7.9973;0.3032;0.112;0.0761;3.5257;5899.0;-32.08;-16.95;22.44;94.45;-23.25;-111.65;5.0;987.81;67.187;35.95819;-83.92475;777.35;NaN;;4.28;14.973867;147.6;15 / 18;12026;2022-10-12 12:10:29:200
14.6614;-6.5228;-2.5487;8.5965;-3.2532;-3.4188;7.847;0.5411;1.3671;-0.3471;0.8892;-0.0195;4957.0;-34.37;-8.81;23.18;190.89;35.69;-132.43;5.0;987.83;57.961;35.95818;-83.92475;776.11;NaN;;4.21;15.359797;156.6;15 / 18;12526;2022-10-12 12:10:29:700
10.4719;-5.6883;-3.5252;8.9078;1.2024;-3.9211;-5.8949;-7.1298;0.5929;-0.556;0.2747;3.429;5766.0;-31.26;-22.37;18.6;164.29;-7.04;-113.76;5.0;987.77;61.046;35.95818;-83.92475;776.11;NaN;;4.21;15.359797;156.6;15 / 18;13028;2022-10-12 12:10:30:202
17.4649;-5.1162;-1.1276;8.584;-3.3847;-3.3209;7.0828;2.2939;2.4731;2.3174;0.7675;-3.649;5355.0;-38.1;-8.08;19.63;167.47;20.19;-111.15;5.0;987.76;59.14;35.958164;-83.92474;777.78;NaN;;4.36;15.514277;150.2;15 / 18;13526;2022-10-12 12:10:30:700
11.9142;-7.0795;-5.6082;9.3968;-0.2098;-2.7975;-4.8876;-8.5009;-2.0835;-0.0996;-0.3916;3.6785;5238.0;-33.37;-21.26;16.8;131.58;-19.87;-104.16;5.0;987.81;62.43;35.958164;-83.92474;777.78;NaN;;4.36;15.514277;150.2;15 / 18;14027;2022-10-12 12:10:31:201
17.9821;-8.7984;-1.1109;8.3564;-4.519;-2.4332;8.5353;0.1607;0.4896;0.8363;2.0353;-4.4857;4586.0;-37.11;-0.97;19.78;196.41;50.58;-131.46;5.0;987.77;62.084;35.958153;-83.924736;779.76;NaN;;4.39;15.723313;133.7;15 / 18;14526;2022-10-12 12:10:31:700
11.5038;-6.8626;-3.7098;9.1705;-0.1387;-3.4717;-7.7885;-8.8913;0.1842;-0.8468;0.5559;3.8998;6094.0;-30.86;-22.12;18.04;165.4;0.81;-110.74;5.0;987.75;60.504;35.958153;-83.924736;779.76;NaN;;4.39;15.723313;133.7;15 / 18;15026;2022-10-12 12:10:32:200
13.887;-10.3436;-2.7867;8.1848;-4.4856;-3.0098;7.2195;1.5099;1.9512;2.2662;1.0342;-4.6198;5018.0;-37.82;0.21;16.52;171.5;27.22;-110.19;5.0;987.78;60.906;35.958145;-83.924736;783.41;NaN;;4.72;15.792773;152.8;15 / 18;15526;2022-10-12 12:10:32:700
11.5828;-5.5508;-5.1927;7.8533;-4.4946;-3.7808;3.7254;-2.6097;-0.8352;-0.738;0.068;3.5098;5495.0;-31.11;-21.07;13.76;171.62;0.56;-109.0;5.0;987.73;62.163;35.958145;-83.924736;783.41;NaN;;4.72;15.792773;152.8;15 / 18;16026;2022-10-12 12:10:33:200
15.4035;-8.432;-2.2361;8.5227;-3.77;-3.053;8.2938;2.415;1.1075;0.3525;2.0663;-3.9147;4763.0;-36.56;-3.09;15.21;174.81;22.61;-109.71;5.0;987.74;61.881;35.958134;-83.92473;785.76;NaN;;4.32;15.751846;145.9;15 / 18;16526;2022-10-12 12:10:33:700
11.8448;-3.8868;-6.0188;8.6254;-2.9312;-3.6305;2.4679;-1.4279;-2.6281;-1.3953;0.1261;2.8851;4521.0;-28.01;-27.79;8.1;185.63;17.39;-112.83;5.0;987.72;60.038;35.958134;-83.92473;785.76;NaN;;4.32;15.751846;145.9;15 / 18;17025;2022-10-12 12:10:34:199
12.4887;-6.5276;-3.2166;8.1028;-3.7728;-4.0349;8.2811;2.7534;1.1319;0.1334;1.8984;-3.0985;4945.0;-36.15;-6.86;14.12;189.39;22.63;-116.47;5.0;987.78;59.652;35.95812;-83.92473;788.47;NaN;;4.75;15.641869;151.1;15 / 18;17525;2022-10-12 12:10:34:699
10.3053;-2.1332;-4.4865;8.6714;-1.5404;-4.3133;0.9503;-2.6402;-1.0042;-1.136;-1.1144;3.0786;4925.0;-28.09;-23.79;9.49;182.47;-13.8;-109.19;5.0;987.76;62.527;35.95812;-83.92473;788.47;NaN;;4.75;15.641869;151.1;15 / 18;18027;2022-10-12 12:10:35:201
11.3803;-6.2509;-4.2063;9.7251;-0.9801;-0.7945;5.0808;-5.2255;-1.7349;1.0522;3.3011;-1.3456;5922.0;-33.19;-8.66;12.73;192.28;23.42;-119.34;5.0;987.72;62.594;35.958103;-83.92472;792.98;NaN;;4.43;15.655604;170.8;15 / 18;18526;2022-10-12 12:10:35:700
12.2315;-1.6591;0.0275;9.6262;-1.5425;-1.0619;-2.0795;-2.9778;-0.6954;-1.034;-3.3865;1.6426;16930.0;-29.42;-18.39;-8.23;206.66;9.05;-96.29;5.0;987.7;63.089;35.958103;-83.92472;792.98;NaN;;4.43;15.655604;170.8;15 / 18;19027;2022-10-12 12:10:36:201
13.8906;-3.5527;-2.7473;9.8041;0.0178;0.2231;4.7422;-3.7202;-0.857;2.7689;1.5477;-2.6614;10772.0;-35.01;-7.48;1.89;158.05;-0.1;-88.7;5.0;987.7;60.281;35.958096;-83.92471;797.13;NaN;;5.11;15.240222;137.8;15 / 18;19526;2022-10-12 12:10:36:700
9.7355;-1.5419;-1.8553;9.6563;0.4955;-1.6371;-2.5499;-3.0737;-0.2881;-0.2952;-1.8189;2.0515;11868.0;-31.48;-22.03;-1.56;185.01;-17.44;-88.2;5.0;987.73;64.828;35.958096;-83.92471;797.13;NaN;;5.11;15.240222;137.8;15 / 18;20027;2022-10-12 12:10:37:201
12.6362;-6.184;-5.3004;9.6287;-0.6379;-1.7471;6.994;-4.0693;0.7527;3.0796;1.414;-4.4075;6968.0;-35.79;-9.88;13.5;196.79;23.08;-122.09;5.0;987.68;64.728;35.95808;-83.92471;802.32;NaN;;4.39;15.336214;145.5;15 / 18;20527;2022-10-12 12:10:37:701
7.593;-2.8502;-5.8968;8.2457;-0.5699;-5.2777;-2.5288;-2.9513;-1.6665;-0.6068;0.4532;3.0319;5118.0;-25.63;-22.71;24.64;164.28;3.33;-122.62;5.0;987.71;59.834;35.95808;-83.92471;802.32;NaN;;4.39;15.336214;145.5;15 / 18;21027;2022-10-12 12:10:38:201
9.5716;-4.282;-3.3123;9.1669;-1.1093;-3.3026;5.959;-1.5312;-0.6803;0.96;0.9558;-3.7873;5217.0;-34.05;-8.27;26.85;132.24;6.49;-109.81;5.0;987.71;60.607;35.958073;-83.924706;805.25;NaN;;4.46;15.587954;145.8;15 / 18;21527;2022-10-12 12:10:38:701
9.0042;-0.9673;-3.213;8.1725;-2.8753;-4.5949;0.7957;1.508;0.9282;-0.2347;-0.3465;2.6745;5379.0;-30.43;-25.99;23.49;161.03;0.07;-113.78;5.0;987.74;61.715;35.958073;-83.924706;805.25;NaN;;4.46;15.587954;145.8;15 / 18;22026;2022-10-12 12:10:39:200
9.8192;-3.7146;-2.825;9.1132;-1.5034;-3.2955;5.3753;-0.1194;0.5258;0.9826;1.2396;-3.2961;5237.0;-38.7;-11.92;23.57;153.58;8.82;-109.88;5.0;987.68;63.36;35.958057;-83.924706;802.52;NaN;;4.82;15.328547;156.4;15 / 18;22527;2022-10-12 12:10:39:701
6.6233;0.0969;-2.916;8.8546;-1.728;-3.8446;-1.3315;1.0941;0.3394;0.0901;-0.7981;1.4124;4947.0;-32.34;-27.04;17.03;167.59;0.69;-108.39;5.0;987.71;61.036;35.958057;-83.924706;802.52;NaN;;4.82;15.328547;156.4;15 / 18;23026;2022-10-12 12:10:40:200
6.6963;-3.4762;-3.8282;9.4788;-0.4984;-2.4647;6.7351;-1.1996;-0.5028;0.6632;1.9691;-3.1677;5682.0;-36.0;-15.71;17.94;155.06;2.91;-104.58;5.0;987.67;62.799;35.95804;-83.9247;801.87;NaN;;4.72;15.048159;151.5;15 / 18;23526;2022-10-12 12:10:40:700
9.6852;-0.8115;-1.8182;8.7115;-2.0055;-4.0322;-0.5833;0.6197;0.81;-0.3538;-0.8162;2.3054;4914.0;-31.24;-27.73;13.11;173.08;-3.25;-107.35;5.0;987.71;62.768;35.95804;-83.9247;801.87;NaN;;4.72;15.048159;151.5;15 / 18;24027;2022-10-12 12:10:41:201
7.2422;-3.9933;-3.9371;9.4344;1.892;-1.8927;-1.3438;-6.0205;-0.8621;1.3831;1.0583;-3.4456;6216.0;-37.35;-11.14;17.81;157.7;7.24;-106.75;5.0;987.7;61.27;35.95803;-83.9247;804.09;NaN;;4.32;14.942128;152.8;15 / 18;24526;2022-10-12 12:10:41:700
10.2287;-0.6093;-3.5133;8.8798;-2.3252;-3.4516;-0.5612;0.8107;-0.3127;0.0673;-0.7433;2.238;6282.0;-31.65;-25.91;14.31;177.51;13.72;-111.24;5.0;987.7;61.196;35.95803;-83.9247;804.09;NaN;;4.32;14.942128;152.8;15 / 18;25027;2022-10-12 12:10:42:201
6.4508;-2.7796;-2.977;9.4551;0.8753;-2.4507;-2.1025;-4.1451;-0.2752;1.1925;0.0286;-1.9471;6927.0;-36.68;-12.51;16.43;146.55;-5.12;-104.53;5.0;987.69;62.728;35.958015;-83.92469;805.5;NaN;;4.61;14.253742;155.5;15 / 18;25526;2022-10-12 12:10:42:700
7.5006;-0.8608;-2.5666;9.105;-1.5524;-3.2953;1.3803;0.3682;-1.7988;-0.3157;-0.1807;1.035;7157.0;-30.96;-23.03;16.54;163.89;2.27;-107.26;5.0;987.64;62.152;35.958015;-83.92469;805.5;NaN;;4.61;14.253742;155.5;15 / 18;26027;2022-10-12 12:10:43:201
7.1692;-3.7875;-4.1836;9.3316;1.5955;-2.5584;0.5402;-5.1478;-0.031;1.3208;0.0684;-3.1327;6584.0;-32.36;-13.69;20.25;160.4;12.92;-110.08;5.0;987.66;63.26;35.958004;-83.92468;807.73;NaN;;4.86;14.86616;153.4;15 / 18;26525;2022-10-12 12:10:43:699
10.698;-1.8769;-2.4574;8.6622;-2.486;-3.8674;4.2129;-0.6814;-0.7131;-0.6514;-0.2589;3.1819;7434.0;-24.36;-24.92;20.29;165.07;14.68;-114.06;5.0;987.71;60.505;35.958004;-83.92468;807.73;NaN;;4.86;14.86616;153.4;15 / 18;27026;2022-10-12 12:10:44:200
6.9188;-5.4861;-3.2489;9.22;2.1627;-2.5465;4.3224;-8.5601;-0.2314;1.8732;-0.027;-4.4081;5856.0;-30.43;-10.67;21.58;103.04;-12.74;-105.44;5.0;987.69;63.622;35.957993;-83.924675;807.75;NaN;;4.82;14.617225;154.9;15 / 18;27526;2022-10-12 12:10:44:700
11.0285;-2.3258;-0.7217;7.0866;-5.0552;-4.5161;4.2762;2.8263;3.6609;-2.1061;0.589;3.9911;7509.0;-19.89;-25.28;25.88;152.9;10.46;-114.67;5.0;987.7;60.815;35.957993;-83.924675;807.75;NaN;;4.82;14.617225;154.9;15 / 18;28027;2022-10-12 12:10:45:201
5.9674;-5.1449;-2.4407;9.5436;0.5441;-2.1895;4.3993;-6.4384;-0.7427;1.88;0.1064;-4.1259;5908.0;-34.29;-8.68;22.37;116.41;-3.18;-102.92;5.0;987.7;61.935;35.95798;-83.92467;805.18;NaN;;4.93;14.941412;159.1;15 / 18;28527;2022-10-12 12:10:45:701
9.6338;-1.3478;-3.3218;8.0029;-3.9179;-4.0955;0.8125;2.5393;1.2059;-0.166;-0.8195;2.4652;6485.0;-27.19;-27.99;24.0;157.69;6.1;-110.72;5.0;987.68;62.644;35.95798;-83.92467;805.18;NaN;;4.93;14.941412;159.1;15 / 18;29027;2022-10-12 12:10:46:201
5.7649;-4.8649;-2.9937;9.6519;0.9092;-1.4781;6.372;-7.3961;-1.5121;1.7519;1.002;-4.3074;5616.0;-36.04;-15.52;21.73;127.1;-5.32;-98.71;5.0;987.68;62.323;35.95797;-83.924644;803.67;NaN;;5.36;14.619478;152.1;14 / 18;29526;2022-10-12 12:10:46:700
11.2295;-1.1168;-2.0746;8.312;-2.8334;-4.3649;3.3064;0.7222;0.6433;-1.792;-0.8062;2.748;6664.0;-23.96;-32.14;21.99;158.56;-1.07;-110.24;5.0;987.66;62.061;35.95797;-83.924644;803.67;NaN;;5.36;14.619478;152.1;14 / 18;30027;2022-10-12 12:10:47:201
6.0188;-4.5631;-4.0974;8.9119;3.4448;-2.2096;-0.392;-8.7149;-1.8814;2.0097;1.6658;-4.3242;6236.0;-39.15;-18.04;19.65;155.09;2.21;-105.14;5.0;987.62;62.602;35.95796;-83.92464;802.47;NaN;;4.79;15.112508;158.6;14 / 18;30526;2022-10-12 12:10:47:700
10.4599;0.7636;0.2704;9.1244;-1.0255;-3.4445;-0.0065;0.7324;-0.1265;-1.9311;-0.4543;2.3382;7013.0;-24.32;-34.76;22.41;162.32;6.0;-110.68;5.0;987.64;60.936;35.95796;-83.92464;802.47;NaN;;4.79;15.112508;158.6;14 / 18;31026;2022-10-12 12:10:48:200
6.8818;-2.9806;-3.3972;9.0279;3.4927;-1.5711;-1.714;-6.358;-1.355;0.7271;0.126;-1.6953;5581.0;-35.78;-27.97;14.91;145.7;-20.86;-99.87;5.0;987.63;62.807;35.95795;-83.92462;799.92;NaN;;4.72;14.530243;154.5;14 / 18;31526;2022-10-12 12:10:48:700
12.1406;1.2772;0.0502;8.7951;-1.8361;-3.9302;-0.1262;1.0972;1.4813;-1.244;-0.9118;2.0209;6000.0;-25.56;-38.68;13.74;171.77;-1.9;-107.56;5.0;987.65;63.198;35.95795;-83.92462;799.92;NaN;;4.72;14.530243;154.5;14 / 18;32026;2022-10-12 12:10:49:200
6.4196;-4.1501;-4.6134;9.0453;3.276;-1.9029;-2.5818;-6.9911;-2.073;0.9496;0.2385;-1.6587;5397.0;-36.28;-25.46;11.96;171.51;-2.64;-103.19;5.0;987.61;63.379;35.957935;-83.924614;801.47;NaN;;5.0;13.662354;160.7;14 / 18;32526;2022-10-12 12:10:49:700
12.5976;2.1906;-0.486;9.1524;-1.2498;-3.2928;-1.4474;1.9413;1.6165;-0.7689;-0.9942;1.4434;5612.0;-26.46;-32.91;12.23;176.08;7.32;-109.79;5.0;987.63;61.621;35.957935;-83.924614;801.47;NaN;;5.0;13.662354;160.7;14 / 18;33027;2022-10-12 12:10:50:201
6.8459;-2.2756;-4.9845;9.2382;2.7923;-1.7404;-2.5636;-4.9713;-1.6801;0.4784;-0.118;-1.0445;5047.0;-32.89;-27.11;10.61;163.69;-16.54;-100.67;5.0;987.6;63.066;35.957928;-83.9246;799.4;NaN;;5.36;13.64989;137.7;15 / 18;33526;2022-10-12 12:10:50:700
14.8349;0.6368;-0.4813;6.4292;-4.2452;-6.0675;5.3491;5.0023;3.8736;-0.7413;-1.1142;2.5325;4595.0;-30.04;-28.72;14.68;182.93;19.59;-119.93;5.0;987.6;62.68;35.957928;-83.9246;799.4;NaN;;5.36;13.64989;137.7;15 / 18;34026;2022-10-12 12:10:51:200
5.0204;-4.3525;-4.215;8.5179;4.3856;-2.0932;-1.7753;-9.7895;-3.2374;-0.0235;0.099;-1.5087;3285.0;-36.0;-19.99;16.86;93.18;-26.56;-103.81;5.0;987.56;65.174;35.957912;-83.92459;798.92;NaN;;5.0;13.513936;143.7;15 / 18;34526;2022-10-12 12:10:51:700
12.9413;1.427;-0.1472;6.3492;-4.4414;-6.0109;6.985;5.3929;6.146;-0.6373;0.0038;1.1907;2686.0;-30.62;-27.96;18.56;179.74;19.64;-121.22;5.0;987.63;61.633;35.957912;-83.92459;798.92;NaN;;5.0;13.513936;143.7;15 / 18;35027;2022-10-12 12:10:52:201
6.3945;-4.4674;-4.5523;8.1429;3.6064;-4.1058;-1.5711;-9.5155;-0.7666;1.056;-0.7846;-1.9381;1964.0;-32.49;-23.64;19.09;163.55;-21.58;-116.76;5.0;987.58;64.952;35.9579;-83.92459;797.03;NaN;;4.97;12.54772;148.7;15 / 18;35526;2022-10-12 12:10:52:700
14.8648;2.5271;-1.6268;6.6039;-3.9741;-6.0634;7.4755;6.3221;4.7821;-0.9119;0.2322;1.1135;1825.0;-23.94;-28.8;27.83;165.03;17.39;-123.3;5.0;987.62;62.703;35.9579;-83.92459;797.03;NaN;;4.97;12.54772;148.7;15 / 18;36027;2022-10-12 12:10:53:201
6.0141;-5.0635;-5.2406;8.1512;3.5352;-4.151;-4.2166;-8.206;-1.3095;0.8061;-0.1357;-1.8243;779.0;-30.9;-25.39;22.78;125.87;-26.71;-115.63;5.0;987.61;64.159;35.957886;-83.92459;797.33;NaN;;5.22;12.508582;166.1;15 / 18;36526;2022-10-12 12:10:53:700
17.9031;-3.1412;-0.3018;4.7374;-6.6951;-5.3761;9.4601;5.8667;1.8251;-1.6646;0.9473;1.3696;806.0;-28.76;-20.33;27.53;184.41;43.06;-138.61;5.0;987.62;63.504;35.957886;-83.92459;797.33;NaN;;5.22;12.508582;166.1;15 / 18;37025;2022-10-12 12:10:54:199
4.8206;-4.6995;-3.9347;7.6983;4.8953;-3.5975;-2.0711;-9.9142;-0.2126;-0.3331;-0.3033;0.0996;752.0;-30.07;-22.71;21.47;106.92;-29.95;-115.05;5.0;987.6;64.911;35.95787;-83.92458;796.48;NaN;;4.97;12.273775;160.1;16 / 18;37527;2022-10-12 12:10:54:701
16.7707;3.0571;-3.6811;7.8525;-3.1978;-4.9277;4.6286;7.4153;6.3646;0.1884;-0.0723;0.8095;781.0;-24.69;-31.74;21.34;168.12;8.35;-116.52;5.0;987.57;62.424;35.95787;-83.92458;796.48;NaN;;4.97;12.273775;160.1;16 / 18;38027;2022-10-12 12:10:55:201
7.599;-4.2293;-6.1756;8.5671;3.7625;-2.9358;-2.3865;-6.4338;-1.2614;-0.3316;-0.5054;1.0152;680.0;-30.36;-28.42;18.0;147.37;-22.79;-107.61;5.0;987.58;65.28;35.957855;-83.924576;795.5;NaN;;4.9;12.275494;155.0;16 / 18;38526;2022-10-12 12:10:55:700
17.6842;1.7321;-2.6767;6.4113;-3.8558;-6.3402;6.0382;4.4639;4.2244;-1.3549;-1.0584;1.7978;761.0;-32.68;-24.56;17.85;195.63;23.15;-134.68;5.0;987.6;62.696;35.957855;-83.924576;795.5;NaN;;4.9;12.275494;155.0;16 / 18;39026;2022-10-12 12:10:56:200
6.0368;-6.9021;-9.143;8.5631;3.6101;-3.1323;-2.9368;-7.5261;-1.8174;-0.507;-1.0947;1.6097;899.0;-30.09;-27.13;14.94;163.59;-21.6;-110.09;5.0;987.58;69.043;35.957848;-83.92457;796.11;NaN;;4.86;12.349797;141.9;16 / 18;39526;2022-10-12 12:10:56:700
19.2832;-2.7473;-5.3581;7.551;-3.1903;-5.3828;8.6631;1.6788;10.2128;-4.6136;2.3056;1.7027;1086.0;-30.09;-22.86;19.89;204.22;25.29;-149.33;5.0;987.65;64.117;35.957848;-83.92457;796.11;NaN;;4.86;12.349797;141.9;16 / 18;40026;2022-10-12 12:10:57:200
5.6142;-5.298;-6.4642;7.7882;3.9563;-4.4568;-4.5267;-8.8622;-2.3411;0.1287;-0.483;0.9584;1156.0;-28.76;-25.54;19.78;162.94;-23.79;-119.78;5.0;987.59;68.441;35.957836;-83.92456;797.88;NaN;;4.72;12.666889;134.2;16 / 18;40526;2022-10-12 12:10:57:700
15.3317;1.7154;0.3903;7.0656;-3.8313;-5.6187;9.5578;2.6078;7.328;1.1748;1.0939;-1.7611;1410.0;-30.62;-19.28;25.71;189.96;30.39;-139.13;5.0;987.6;62.324;35.957836;-83.92456;797.88;NaN;;4.72;12.666889;134.2;16 / 18;41027;2022-10-12 12:10:58:201
7.9543;-3.7851;-2.5137;8.6423;2.9583;-3.5678;-3.5896;-8.6333;-1.6244;0.0299;-0.6906;1.4818;1224.0;-30.99;-27.11;18.28;162.25;-17.56;-112.43;5.0;987.59;67.444;35.957825;-83.92455;796.95;NaN;;5.29;12.226105;155.3;16 / 18;41526;2022-10-12 12:10:58:700
19.5359;-6.0583;0.9948;6.8412;-4.1259;-5.6873;10.0162;3.1141;5.4153;1.0028;1.2818;-2.3999;1229.0;-33.34;-17.21;23.48;195.73;34.53;-139.5;5.0;987.58;61.861;35.957825;-83.92455;796.95;NaN;;5.29;12.226105;155.3;16 / 18;42026;2022-10-12 12:10:59:200
12.5067;-5.2693;-3.9622;9.0159;-0.2073;-3.8525;-0.4706;-4.6919;0.7656;-1.5948;0.2336;2.1227;1054.0;-27.86;-23.92;20.72;140.91;-23.76;-116.01;5.0;987.59;67.23;35.95781;-83.92455;798.68;NaN;;5.98;12.226105;190.0;15 / 18;42526;2022-10-12 12:10:59:700
17.1359;-6.9009;-1.2461;6.7728;-5.4655;-4.5197;11.6659;2.2979;4.627;1.1414;1.3387;-2.7852;1047.0;-36.19;-8.4;18.43;189.84;33.87;-123.72;5.0;987.58;63.277;35.95781;-83.92455;798.68;NaN;;5.98;12.226105;190.0;15 / 18;43026;2022-10-12 12:11:00:200
10.9735;-5.4861;-3.3541;8.8327;-2.0129;-3.7552;-1.8692;-3.3622;0.467;-0.0201;0.3111;3.5993;832.0;-29.17;-25.09;20.42;167.39;11.84;-113.03;5.0;987.56;68.773;35.95779;-83.92455;795.83;NaN;;5.83;12.226105;158.1;15 / 18;43526;2022-10-12 12:11:00:700
13.2538;-7.9089;-1.8302;6.9085;-5.3251;-4.4817;11.1556;3.5661;2.1193;-0.6016;2.0804;-2.5152;848.0;-34.2;-10.14;22.16;190.54;44.79;-132.23;5.0;987.56;61.185;35.95779;-83.92455;795.83;NaN;;5.83;12.226105;158.1;15 / 18;44025;2022-10-12 12:11:01:199
11.9201;-5.3028;-5.4814;9.038;-1.5103;-3.4934;-2.5632;-3.9416;1.8489;1.11;-0.1206;2.9742;1021.0;-29.1;-25.03;20.34;155.85;-15.5;-113.7;5.0;987.58;65.085;35.957775;-83.924545;793.3;NaN;;4.86;12.226105;159.7;15 / 18;44527;2022-10-12 12:11:01:701
13.3878;-5.5137;-2.5499;7.729;-4.8231;-3.6291;8.9927;4.3765;1.2404;0.0317;0.566;-2.4096;1064.0;-36.23;-8.23;22.07;170.51;29.46;-115.15;5.0;987.58;63.176;35.957775;-83.924545;793.3;NaN;;4.86;12.226105;159.7;15 / 18;45026;2022-10-12 12:11:02:200
11.2343;-4.8793;-7.4635;9.2233;-0.4163;-3.3057;-4.5638;-3.0752;0.7277;0.7147;-0.974;2.8635;1037.0;-26.96;-28.37;19.01;163.34;2.43;-109.72;5.0;987.58;65.477;35.957764;-83.92454;795.76;NaN;;5.11;12.226105;154.7;15 / 18;45526;2022-10-12 12:11:02:700
16.7516;-5.5651;-1.1336;9.0347;-2.701;-2.6923;7.1991;-2.6982;1.5105;0.7274;0.5945;-1.4521;1068.0;-35.16;-10.37;18.49;194.99;35.91;-129.26;5.0;987.56;62.286;35.957764;-83.92454;795.76;NaN;;5.11;12.226105;154.7;15 / 18;46025;2022-10-12 12:11:03:199
10.7315;-3.8641;-3.1172;9.1031;-0.9448;-3.523;-5.5651;-5.1913;-0.4811;0.337;-0.5084;3.5145;2036.0;-29.57;-21.49;16.95;168.26;5.53;-111.16;5.0;987.57;60.723;35.957752;-83.92453;795.66;NaN;;5.22;12.226105;171.3;16 / 18;46525;2022-10-12 12:11:03:699
15.5462;-6.3742;-2.2373;9.1442;-2.5594;-2.4504;7.0665;-3.1888;0.0143;1.4011;1.1881;-4.0592;2442.0;-34.24;-2.85;19.56;140.63;15.13;-105.0;5.0;987.53;61.408;35.957752;-83.92453;795.66;NaN;;5.22;12.226105;171.3;16 / 18;47026;2022-10-12 12:11:04:200
8.1676;-2.3402;-2.1571;9.1383;-1.0299;-3.4061;-1.6264;-4.4076;-0.8767;-0.8073;0.0522;2.7064;5721.0;-31.63;-21.92;21.64;159.93;6.03;-110.44;5.0;987.56;63.476;35.95774;-83.92452;794.45;NaN;;5.15;12.226105;156.7;16 / 18;47525;2022-10-12 12:11:04:699
8.9791;-6.7382;-2.4347;9.203;-2.3625;-2.4275;5.9934;-2.8362;1.5903;3.4871;0.3036;-4.3809;5215.0;-38.16;-5.76;20.78;190.55;32.56;-125.89;5.0;987.49;63.363;35.95774;-83.92452;794.45;NaN;;5.15;12.226105;156.7;16 / 18;48026;2022-10-12 12:11:05:200
9.0042;-2.1344;-2.6647;8.3679;-3.7209;-3.5076;0.2557;0.6864;-0.6434;0.48;-0.719;2.3381;6414.0;-34.14;-22.44;20.31;163.43;6.41;-109.08;5.0;987.57;59.819;35.95773;-83.924515;793.07;NaN;;5.11;12.226105;156.2;16 / 18;48525;2022-10-12 12:11:05:699
12.8157;-5.7876;-2.5857;8.5693;-3.681;-3.0312;5.7247;1.8434;1.2804;0.9857;1.0924;-3.5018;4869.0;-39.39;-5.55;20.57;162.84;22.05;-109.48;5.0;987.53;60.383;35.95773;-83.924515;793.07;NaN;;5.11;12.226105;156.2;16 / 18;49026;2022-10-12 12:11:06:200
10.9938;-4.9187;-5.9207;8.2478;-3.7008;-3.8011;2.0584;-0.7453;-1.4612;-1.2548;0.1989;2.7228;7117.0;-33.47;-23.81;19.46;174.62;22.17;-114.74;5.0;987.55;61.69;35.957718;-83.92451;791.56;NaN;;5.11;12.226105;142.9;16 / 18;49527;2022-10-12 12:11:06:701
10.0947;-5.6405;-1.4067;8.0363;-4.4378;-3.4487;6.4056;3.7125;0.4765;0.0709;1.0868;-2.8178;5255.0;-37.8;-7.61;22.03;185.51;38.06;-124.26;5.0;987.52;63.875;35.957718;-83.92451;791.56;NaN;;5.11;12.226105;142.9;16 / 18;50026;2022-10-12 12:11:07:200
9.2183;-4.5523;-4.6397;8.6357;-3.0468;-3.5087;0.1543;-0.9774;-0.312;-0.8818;0.0023;3.2347;7886.0;-32.62;-23.34;21.86;153.34;-3.21;-108.41;5.0;987.52;61.992;35.9577;-83.9245;790.77;NaN;;5.47;12.226105;167.2;16 / 18;50526;2022-10-12 12:11:07:700
9.3215;-6.6245;-2.2098;7.7725;-4.8931;-3.4374;7.4408;4.4104;0.502;0.4267;1.1936;-3.1456;5532.0;-37.86;-5.51;23.78;166.49;29.93;-113.86;5.0;987.51;62.575;35.9577;-83.9245;790.77;NaN;;5.47;12.226105;167.2;16 / 18;51026;2022-10-12 12:11:08:200
8.1135;-2.983;-2.7054;8.9062;-2.4728;-3.2765;0.0143;-2.3398;-0.8715;-0.7513;0.0906;2.6746;8369.0;-31.46;-22.52;23.83;159.54;14.6;-110.2;5.0;987.52;63.97;35.957687;-83.9245;789.44;NaN;;5.04;12.226105;177.3;16 / 18;51526;2022-10-12 12:11:08:700
12.7092;-5.8463;-2.0937;9.4168;-1.6173;-2.2086;4.8485;-4.0043;0.3429;0.0398;0.6341;-2.2304;5334.0;-36.36;-4.8;23.61;168.71;35.64;-115.99;5.0;987.51;63.893;35.957687;-83.9245;789.44;NaN;;5.04;12.226105;177.3;16 / 18;52025;2022-10-12 12:11:09:199
9.8037;-4.5739;-2.9985;8.9955;-2.5436;-2.9633;1.3769;-2.5861;0.8367;-0.4098;-0.9911;2.6831;8590.0;-34.24;-21.81;18.54;166.63;15.03;-108.23;5.0;987.51;63.892;35.957676;-83.924484;789.04;NaN;;5.15;12.226105;155.7;15 / 18;52526;2022-10-12 12:11:09:700
13.954;-7.5787;-0.7169;9.448;-1.925;-1.789;6.4948;-5.3376;1.8189;3.4692;0.3119;-4.4055;6996.0;-41.44;-3.24;15.71;193.17;31.97;-119.15;5.0;987.41;69.916;35.957676;-83.924484;789.04;NaN;;5.15;12.226105;155.7;15 / 18;53026;2022-10-12 12:11:10:200
10.9615;-3.2273;-2.9243;9.2965;-0.9208;-2.983;-3.3585;-5.5953;0.791;0.5373;-0.4955;3.2936;8323.0;-32.18;-26.17;17.51;165.88;5.39;-107.79;5.0;987.5;63.874;35.957664;-83.92447;791.06;NaN;;5.11;12.226105;141.2;15 / 18;53527;2022-10-12 12:11:10:701
11.1302;-6.9846;-1.5108;9.2096;-2.0596;-2.6667;5.7383;-4.9552;-0.0049;-0.0841;0.5669;-3.8154;5301.0;-36.58;-2.01;22.28;169.99;41.3;-113.74;5.0;987.55;62.044;35.957664;-83.92447;791.06;NaN;;5.11;12.226105;141.2;15 / 18;54026;2022-10-12 12:11:11:200
10.4504;-2.6815;-2.4957;8.0541;-4.2478;-3.6411;2.6676;0.8908;-0.8124;0.1597;-0.6479;2.848;8988.0;-31.24;-21.94;23.48;157.19;8.34;-109.39;5.0;987.49;61.268;35.957653;-83.92446;792.7;NaN;;5.0;12.226105;132.8;15 / 18;54526;2022-10-12 12:11:11:700
8.0788;-5.1078;-1.8553;8.9723;-3.0488;-2.5246;5.2318;-2.045;1.5481;1.942;0.6754;-3.1255;6271.0;-39.34;-5.08;18.81;156.8;18.11;-105.72;5.0;987.47;65.009;35.957653;-83.92446;792.7;NaN;;5.0;12.226105;132.8;15 / 18;55026;2022-10-12 12:11:12:200
8.5552;-2.7987;-2.0889;8.3552;-3.9238;-3.3112;1.0917;-0.3107;-1.0335;-0.9627;0.118;2.6194;8737.0;-35.12;-20.87;19.24;172.26;23.59;-111.62;5.0;987.5;64.427;35.95764;-83.924446;791.09;NaN;;4.97;12.226105;135.9;15 / 18;55526;2022-10-12 12:11:12:700
10.0887;-6.9021;-2.9183;8.8517;-3.3469;-2.5722;5.8195;-1.3335;1.2973;1.5199;0.8149;-3.7896;5899.0;-38.25;-3.97;19.58;188.21;39.68;-123.61;5.0;987.5;63.65;35.95764;-83.924446;791.09;NaN;;4.97;12.226105;135.9;15 / 18;56027;2022-10-12 12:11:13:201
8.9504;-4.4495;-2.6958;8.0997;-4.4945;-3.2195;-0.3869;-0.0987;-1.1919;-1.376;1.0185;3.4764;8652.0;-32.32;-19.95;22.14;157.69;5.54;-110.1;5.0;987.49;63.614;35.957626;-83.92444;790.31;NaN;;5.0;12.226105;146.8;15 / 18;56526;2022-10-12 12:11:13:700
11.1864;-7.6516;-2.8645;8.6375;-3.6438;-2.8786;6.9053;-1.0157;2.0691;1.7973;0.4868;-4.2423;6146.0;-37.01;0.11;21.23;152.06;21.81;-108.43;5.0;987.45;62.502;35.957626;-83.92444;790.31;NaN;;5.0;12.226105;146.8;15 / 18;57026;2022-10-12 12:11:14:200
10.5078;-3.888;-2.2265;8.1398;-3.9932;-3.7374;2.0593;-1.9398;-2.3332;-2.3558;0.8776;3.5761;8761.0;-31.28;-18.9;25.28;163.52;24.03;-114.66;5.0;987.5;64.542;35.957615;-83.92443;792.89;NaN;;4.82;12.226105;151.9;15 / 18;57526;2022-10-12 12:11:14:700
10.2287;-8.7876;-4.0675;9.7015;-0.0344;-1.4321;4.7628;-8.6792;-0.9188;1.8903;1.3115;-3.4698;7118.0;-35.44;-2.32;23.61;164.49;31.83;-115.49;5.0;987.42;65.98;35.957615;-83.92443;792.89;NaN;;4.82;12.226105;151.9;15 / 18;58027;2022-10-12 12:11:15:201
12.7463;-4.386;-2.2277;8.7519;-3.0343;-3.2198;0.1137;-3.1569;-0.504;-1.2888;-0.4429;4.0729;7893.0;-34.31;-23.47;20.16;168.28;18.02;-110.2;5.0;987.51;64.427;35.9576;-83.92443;793.5;NaN;;4.97;12.226105;152.9;15 / 18;58528;2022-10-12 12:11:15:702
18.1448;-9.7499;-1.3478;9.4677;-2.4146;-0.8386;8.7749;-5.1742;0.5157;3.699;0.809;-4.3563;6206.0;-40.05;0.09;20.42;200.37;39.1;-129.75;5.0;987.43;60.679;35.9576;-83.92443;793.5;NaN;;4.97;12.226105;152.9;15 / 18;59027;2022-10-12 12:11:16:201
10.4109;-5.6812;-4.3382;9.087;0.2869;-3.6761;-4.9668;-8.2699;0.8537;0.1678;0.1918;3.5564;7939.0;-31.09;-27.49;21.24;163.17;-1.68;-112.03;5.0;987.49;70.684;35.957592;-83.92442;796.53;NaN;;5.33;12.226105;152.9;15 / 18;59527;2022-10-12 12:11:16:701
13.3615;-9.8109;-2.1069;9.3382;-2.4145;-1.7717;7.8615;-3.9556;3.7527;2.356;1.7391;-4.5619;5686.0;-36.41;-3.66;24.24;179.42;38.36;-123.29;5.0;987.42;57.181;35.957592;-83.92442;796.53;NaN;;5.33;12.226105;152.9;15 / 18;60026;2022-10-12 12:11:17:200
11.6043;-1.5359;-2.1045;9.1125;-2.4797;-2.6426;1.9118;0.2591;-0.8419;-0.6741;-0.1975;3.1883;8168.0;-29.36;-28.26;17.85;156.96;-8.39;-105.23;5.0;987.46;60.23;35.95758;-83.924416;797.3;NaN;;5.0;12.226105;157.3;15 / 18;60526;2022-10-12 12:11:17:700
9.9117;-5.79;-2.4227;9.504;-1.6963;-1.7222;5.9839;-3.0172;1.3341;2.2346;0.5571;-3.6734;5382.0;-39.62;-11.62;13.61;160.78;9.96;-100.27;5.0;987.44;64.381;35.95758;-83.924416;797.3;NaN;;5.0;12.226105;157.3;15 / 18;61026;2022-10-12 12:11:18:200
10.692;-3.0129;-5.5232;7.9195;-4.149;-4.0297;2.7536;1.2066;-1.1037;-1.4219;-0.1316;2.6179;7589.0;-33.88;-23.1;16.22;181.81;25.03;-116.97;5.0;987.49;65.046;35.95757;-83.92441;797.79;NaN;;5.11;12.226105;155.0;15 / 18;61526;2022-10-12 12:11:18:700
7.3786;-4.8517;-2.7796;9.1164;-2.8177;-2.2631;6.6934;-0.889;-0.014;1.6354;1.8183;-3.0965;5922.0;-39.73;-5.19;17.57;189.43;30.92;-120.04;5.0;987.45;60.229;35.95757;-83.92441;797.79;NaN;;5.11;12.226105;155.0;15 / 18;62026;2022-10-12 12:11:19:200
8.8893;-2.7162;-2.6563;9.0156;-2.7217;-2.7352;1.6967;-1.2337;-1.8231;-2.0473;0.4675;2.4634;7334.0;-35.31;-24.47;13.41;170.22;-0.5;-104.1;5.0;987.44;61.369;35.95756;-83.9244;799.67;NaN;;5.08;12.226105;152.3;15 / 18;62526;2022-10-12 12:11:19:700
8.0955;-6.2521;-2.9674;9.5438;-1.3217;-1.8273;7.2393;-5.3656;2.8009;3.6135;1.0413;-3.4821;9860.0;-42.71;-10.01;7.2;184.39;7.75;-100.84;5.0;987.37;66.226;35.95756;-83.9244;799.67;NaN;;5.08;12.226105;152.3;15 / 18;63026;2022-10-12 12:11:20:200
9.5345;-3.8761;-1.9669;8.4778;-3.3308;-3.6336;1.9734;-0.7731;-2.9056;-2.055;0.147;2.6312;6607.0;-34.74;-26.06;12.96;182.84;19.86;-113.2;5.0;987.47;59.679;35.957546;-83.92439;799.25;NaN;;5.36;12.226105;157.1;14 / 18;63526;2022-10-12 12:11:20:700
8.0632;-6.1804;-3.7349;9.6209;0.1679;-1.8924;1.3736;-7.2766;-1.2366;2.6507;1.2457;-3.4759;6149.0;-40.48;-6.92;15.83;176.69;21.59;-110.08;5.0;987.41;56.937;35.957546;-83.92439;799.25;NaN;;5.36;12.226105;157.1;14 / 18;64027;2022-10-12 12:11:21:201
12.0458;-1.78;-7.6205;9.0653;-0.345;-3.7245;-0.8462;-1.097;-3.3125;0.0166;-0.982;1.9656;5687.0;-34.26;-29.31;10.91;185.19;2.02;-112.34;5.0;987.45;61.579;35.957535;-83.924385;799.41;NaN;;5.04;12.226105;160.4;14 / 18;64526;2022-10-12 12:11:21:700
11.5935;-1.3908;-4.5547;6.161;-5.7504;-5.0145;4.222;4.2176;0.3528;-0.0475;-0.2117;0.3105;5280.0;-37.31;-12.86;23.76;186.44;28.97;-127.76;5.0;987.45;57.92;35.957535;-83.924385;799.41;NaN;;5.04;12.226105;160.4;14 / 18;65026;2022-10-12 12:11:22:200
2.2038;-4.55;-4.1154;8.3459;4.5766;-2.3603;-3.8451;-9.4125;-2.8602;0.1524;-0.6808;-0.7093;4808.0;-30.9;-25.09;19.28;120.4;-27.82;-105.79;5.0;987.43;70.313;35.957523;-83.924385;801.35;NaN;;5.22;12.226105;147.2;15 / 18;65527;2022-10-12 12:11:22:701
20.1715;-0.0837;-0.1567;4.4673;-6.2533;-6.0918;8.14;8.4507;4.4907;1.7305;-1.6982;-0.6879;4243.0;-30.11;-20.46;23.42;188.95;39.14;-136.85;5.0;987.47;59.695;35.957523;-83.924385;801.35;NaN;;5.22;12.226105;147.2;15 / 18;66026;2022-10-12 12:11:23:200
5.6907;-8.7876;-2.3067;8.5253;1.2927;-4.671;-5.156;-11.1452;2.24;-0.9341;-0.1125;-0.7942;3586.0;-25.48;-12.79;32.18;55.3;-24.82;-131.8;5.0;987.43;64.217;35.957516;-83.92438;801.75;NaN;;4.97;12.226105;135.0;15 / 18;66527;2022-10-12 12:11:23:701
20.1464;-5.0097;-5.2729;6.2419;-5.7018;-4.9697;13.3204;5.1153;-3.9654;-1.6975;0.9433;-3.702;2580.0;-24.11;-4.09;36.11;154.09;35.55;-128.53;5.0;987.49;60.49;35.957516;-83.92438;801.75;NaN;;4.97;12.226105;135.0;15 / 18;67026;2022-10-12 12:11:24:200
9.7475;-8.1111;-5.1808;7.7462;-3.8595;-4.612;2.295;-4.0817;-1.5069;-1.2558;1.3657;3.5308;1761.0;-22.09;-16.87;36.81;146.06;23.18;-120.77;5.0;987.45;61.3;35.957504;-83.92437;800.85;NaN;;4.9;12.226105;143.0;15 / 18;67526;2022-10-12 12:11:24:700
8.3255;-8.7254;-3.1507;7.168;-5.7681;-3.3939;10.1272;1.5452;0.3881;0.9976;-0.4607;-5.5108;1108.0;-28.72;3.51;32.23;196.14;62.47;-151.52;5.0;987.43;67.187;35.957504;-83.92437;800.85;NaN;;4.9;12.226105;143.0;15 / 18;68025;2022-10-12 12:11:25:199
9.4053;-5.7972;-3.9742;7.4958;-5.2414;-3.537;1.192;-2.8485;-3.8163;-0.9178;2.0537;3.8704;1269.0;-27.13;-13.8;34.5;135.5;6.01;-118.55;5.0;987.43;62.365;35.957497;-83.924355;801.32;NaN;;5.26;12.226105;134.3;15 / 18;68526;2022-10-12 12:11:25:700
12.7726;-8.0285;-2.1906;7.1872;-5.766;-3.3569;6.3823;3.7086;0.668;0.4481;1.327;-3.3742;1140.0;-32.49;5.27;30.36;146.32;36.01;-115.04;5.0;987.44;60.458;35.957497;-83.924355;801.32;NaN;;5.26;12.226105;134.3;15 / 18;69026;2022-10-12 12:11:26:200
8.4942;-4.0675;-4.2724;8.4446;-3.5255;-3.5256;0.3017;-1.6018;0.8899;0.1697;-0.421;2.6801;779.0;-28.76;-14.27;32.34;145.9;21.07;-112.66;5.0;987.44;66.854;35.95749;-83.92435;802.21;NaN;;4.75;12.226105;138.2;15 / 18;69526;2022-10-12 12:11:26:700
13.2706;-6.5492;-0.7899;9.1885;-2.8607;-1.8863;5.6459;-3.673;0.9983;-0.9433;1.0979;-1.7206;780.0;-31.03;3.86;31.84;157.58;42.01;-121.99;5.0;987.41;60.629;35.95749;-83.92435;802.21;NaN;;4.75;12.226105;138.2;15 / 18;70026;2022-10-12 12:11:27:200
11.9106;-6.1816;-3.2728;9.0687;-1.8546;-3.2389;-2.2535;-4.4535;0.1614;-0.1755;0.347;3.1411;752.0;-35.18;-17.83;28.84;148.89;10.9;-109.65;5.0;987.43;65.248;35.957478;-83.92434;801.82;NaN;;5.18;12.226105;157.6;15 / 18;70525;2022-10-12 12:11:27:699
9.3981;-7.5532;-2.2816;9.2372;-2.5342;-2.103;4.702;-4.8398;0.7883;1.7419;0.3905;-4.0722;719.0;-39.58;0.49;29.03;171.42;40.21;-120.38;5.0;987.43;59.534;35.957478;-83.92434;801.82;NaN;;5.18;12.226105;157.6;15 / 18;71026;2022-10-12 12:11:28:200
9.4938;-3.408;-3.1101;9.2558;-0.5354;-3.1961;-3.5;-4.3511;0.5648;0.2817;-0.1055;2.959;822.0;-32.57;-24.71;29.49;148.53;3.13;-109.05;5.0;987.43;62.576;35.957462;-83.92433;801.74;NaN;;5.22;12.226105;140.7;15 / 18;71526;2022-10-12 12:11:28:700
9.7762;-5.1377;-3.3745;9.2029;-2.0939;-2.6633;5.0776;-2.6946;0.4392;1.2242;0.3467;-3.5376;935.0;-38.46;-7.24;29.19;163.73;32.99;-116.29;5.0;987.36;60.229;35.957462;-83.92433;801.74;NaN;;5.22;12.226105;140.7;15 / 18;72026;2022-10-12 12:11:29:200
9.8291;-3.1579;-2.5606;7.915;-4.1521;-4.0353;2.8377;0.4872;-0.8414;0.223;-0.873;3.3594;1198.0;-32.91;-25.76;25.16;158.0;7.89;-109.44;5.0;987.41;65.339;35.95745;-83.92433;801.22;NaN;;5.18;12.226105;159.3;15 / 18;72526;2022-10-12 12:11:29:700
11.5158;-5.9626;-3.2046;8.9056;-2.6745;-3.1159;5.5216;-0.5402;1.0301;1.4248;1.1834;-3.6361;1860.0;-40.11;-8.68;24.06;155.91;15.83;-109.28;5.0;987.32;61.082;35.95745;-83.92433;801.22;NaN;;5.18;12.226105;159.3;15 / 18;73027;2022-10-12 12:11:30:201
11.1458;-2.7975;-4.8051;8.2614;-3.4792;-3.9767;3.7815;-0.4799;-1.245;-1.0175;-0.2937;3.0154;2490.0;-30.84;-26.31;21.79;170.37;20.78;-115.7;5.0;987.4;64.29;35.95744;-83.92432;802.03;NaN;;4.79;12.226105;150.9;15 / 18;73527;2022-10-12 12:11:30:701
9.6852;-6.0559;-3.3386;8.648;-3.1843;-3.353;6.536;1.4704;1.3384;1.3897;1.4062;-3.0348;4999.0;-35.89;-10.8;23.89;185.28;32.21;-127.65;5.0;987.36;58.904;35.95744;-83.92432;802.03;NaN;;4.79;12.226105;150.9;15 / 18;74026;2022-10-12 12:11:31:200
11.3396;-4.3418;-7.1859;8.7438;-2.4911;-3.6758;1.125;-2.4111;-1.4107;-1.1724;-0.3378;3.1701;4818.0;-31.42;-24.3;21.9;147.62;-8.16;-107.26;5.0;987.38;59.64;35.957428;-83.92431;802.66;NaN;;4.9;12.226105;154.6;15 / 18;74526;2022-10-12 12:11:31:700
13.153;-7.7725;-3.2489;6.8129;-5.2433;-4.7183;9.9241;3.8737;3.3525;0.8291;1.0933;-2.2823;5002.0;-36.13;-4.14;25.5;178.15;32.32;-124.7;5.0;987.36;64.891;35.957428;-83.92431;802.66;NaN;;4.9;12.226105;154.6;15 / 18;75026;2022-10-12 12:11:32:200
11.4353;-6.3443;-5.8678;9.1735;-0.3932;-3.4442;-3.355;-6.1433;-0.4263;-0.2376;0.1498;3.4514;6086.0;-29.76;-23.74;26.48;151.56;2.3;-110.58;5.0;987.39;61.455;35.957417;-83.9243;803.68;NaN;;5.08;12.226105;149.7;15 / 18;75527;2022-10-12 12:11:32:701
16.171;-6.2438;-2.7066;8.3027;-3.8723;-3.4988;7.9826;0.1163;1.7474;-0.4353;1.4313;-0.5213;5297.0;-34.2;-6.36;28.67;183.77;37.79;-133.18;5.0;987.35;63.573;35.957417;-83.9243;803.68;NaN;;5.08;12.226105;149.7;15 / 18;76026;2022-10-12 12:11:33:200
7.2805;-3.5133;-4.5332;9.2302;0.6793;-3.2423;-4.468;-8.9865;0.5762;1.0334;-0.0017;2.5468;6891.0;-33.11;-18.75;24.92;142.06;-3.97;-109.36;5.0;987.39;64.9;35.957405;-83.92429;804.17;NaN;;5.04;12.226105;141.9;15 / 17;76526;2022-10-12 12:11:33:700
12.4672;-4.9702;-1.9789;8.5596;-3.4027;-3.3654;6.3577;0.6565;0.716;0.9428;1.2728;-3.5047;5208.0;-36.62;-2.53;27.51;180.33;39.02;-127.34;5.0;987.38;59.708;35.957405;-83.92429;804.17;NaN;;5.04;12.226105;141.9;15 / 17;77025;2022-10-12 12:11:34:199
8.2825;-2.849;-4.9187;8.4416;1.6908;-4.6959;-0.9526;-5.5994;-0.093;0.34;-0.7271;2.0239;7238.0;-31.52;-23.32;23.91;161.1;-9.93;-119.09;5.0;987.41;62.836;35.957394;-83.924286;802.45;NaN;;4.75;12.226105;148.9;15 / 18;77525;2022-10-12 12:11:34:699
17.2017;-4.3071;0.1854;7.7692;-3.35;-4.9585;9.1402;2.377;2.0181;0.9393;2.8951;-2.0654;6812.0;-34.03;-11.98;28.88;196.3;27.83;-142.18;5.0;987.34;59.542;35.957394;-83.924286;802.45;NaN;;4.75;12.226105;148.9;15 / 18;78026;2022-10-12 12:11:35:200
11.7263;-4.2003;-7.7569;8.5648;-0.7006;-4.7247;-2.9571;-5.3481;-0.1281;0.6932;-0.1401;0.1469;7041.0;-32.72;-21.56;22.13;162.35;-17.98;-119.68;5.0;987.39;63.932;35.95738;-83.92428;801.04;NaN;;4.72;12.226105;154.0;15 / 18;78526;2022-10-12 12:11:35:700
15.8967;-5.3976;-1.6041;7.265;-4.7531;-4.5606;10.4984;4.7584;1.5987;-0.7755;2.0844;-1.9145;5868.0;-35.21;-7.56;27.66;169.87;28.99;-122.12;5.0;987.35;63.162;35.95738;-83.92428;801.04;NaN;;4.72;12.226105;154.0;15 / 18;79026;2022-10-12 12:11:36:200
8.1688;-5.3315;-2.6886;9.1055;-0.0075;-3.6414;-1.7693;-6.7076;-0.1793;0.1329;-0.1403;3.4811;6589.0;-31.86;-24.67;21.77;161.15;0.04;-111.8;5.0;987.39;65.693;35.957367;-83.92427;800.58;NaN;;4.82;12.226105;139.5;15 / 18;79526;2022-10-12 12:11:36:700
15.9876;0.6452;-1.8625;4.9911;-6.7883;-5.0178;8.0348;7.677;1.905;-0.4546;0.8958;-0.2004;5090.0;-34.41;-10.05;23.96;183.2;40.53;-127.88;5.0;987.36;60.543;35.957367;-83.92427;800.58;NaN;;4.82;12.226105;139.5;15 / 18;80026;2022-10-12 12:11:37:200
4.2425;-8.5863;-4.2281;9.2996;1.6591;-2.6336;-5.9776;-8.8334;-0.6221;-0.4018;-1.0017;3.2136;6115.0;-33.88;-15.9;19.22;96.04;-21.56;-100.54;5.0;987.36;59.347;35.957355;-83.92426;799.51;NaN;;4.79;12.226105;137.6;15 / 18;80527;2022-10-12 12:11:37:701
16.8832;-4.8111;0.4633;5.5503;-5.9328;-5.4925;8.0633;7.0072;2.3618;-2.7995;2.6727;0.6922;5999.0;-37.43;-8.98;19.2;201.89;37.23;-134.7;5.0;987.37;60.578;35.957355;-83.92426;799.51;NaN;;4.79;12.226105;137.6;15 / 18;81026;2022-10-12 12:11:38:200
4.0735;1.5036;1.4509;5.3403;4.7301;6.7289;0.848;-5.9032;-5.0007;-0.1287;1.5331;-0.0241;13933.0;-31.11;-23.92;-5.91;114.72;-28.84;-38.44;5.0;987.31;70.537;35.957344;-83.924255;799.6;NaN;;4.57;12.226105;155.9;15 / 18;81527;2022-10-12 12:11:38:701
7.7845;0.8477;12.8719;3.3441;0.812;9.183;2.0523;0.4721;0.005;0.7189;0.5023;0.5541;76306.0;-11.21;-32.16;-30.28;185.6;-4.59;-25.3;5.0;987.35;51.166;35.957344;-83.924255;799.6;NaN;;4.57;12.226105;155.9;15 / 18;82027;2022-10-12 12:11:39:201
3.7744;6.0559;6.6305;2.0133;4.8075;8.3069;0.7014;0.4886;-2.4609;1.878;-0.7387;-0.9775;46754.0;-7.35;-30.67;-32.87;185.28;-29.36;-13.62;5.0;987.32;51.248;35.957333;-83.92425;799.11;NaN;;4.75;12.226105;161.6;15 / 18;82527;2022-10-12 12:11:39:701
1.5538;5.1401;9.0221;1.1021;3.6506;9.0349;-0.7418;1.7676;0.3056;-0.4519;0.7138;1.6976;11710.0;-4.71;-40.29;-19.03;176.17;-25.5;-9.33;5.0;987.37;53.644;35.957333;-83.92425;799.11;NaN;;4.75;12.226105;161.6;15 / 18;83026;2022-10-12 12:11:40:200
0.2189;3.6209;10.5652;-0.828;0.9622;9.7241;2.3976;1.6654;-0.062;0.1035;0.1302;0.0054;25030.0;-12.32;-27.22;-35.19;147.63;-5.63;4.87;5.0;987.35;60.635;35.957325;-83.92424;797.81;NaN;;4.57;12.226105;148.0;15 / 18;83526;2022-10-12 12:11:40:700
-6.1672;2.4347;2.6838;-5.3266;4.7053;6.7571;2.3028;-0.8846;-3.3708;0.4258;4.4103;0.1002;17082.0;-8.4;-28.24;-35.51;128.6;-23.36;12.5;5.0;987.33;58.974;35.957325;-83.92424;797.81;NaN;;4.57;12.226105;148.0;15 / 18;84026;2022-10-12 12:11:41:200
-14.1108;1.008;2.1655;-8.0321;-5.2325;-2.0679;-5.8599;6.1273;4.1064;-0.3898;1.0381;-2.0195;21014.0;31.74;-14.36;-20.03;132.24;28.42;104.22;5.0;987.37;60.913;35.957314;-83.92424;797.83;NaN;;4.43;12.226105;156.2;15 / 18;84526;2022-10-12 12:11:41:700
-6.5623;-2.8729;-1.4797;-9.4185;2.7312;0.0523;3.1726;-5.6353;-1.6041;-0.1832;0.3521;0.264;9647.0;42.9;-8.72;-7.14;63.69;-16.17;89.68;5.0;987.33;59.211;35.957314;-83.92424;797.83;NaN;;4.43;12.226105;156.2;15 / 18;85026;2022-10-12 12:11:42:200
-11.5134;-0.3987;-0.3616;-7.9322;-5.7046;-0.8414;-3.1157;5.0491;0.7492;0.3224;0.0716;-0.1719;7761.0;45.11;-6.77;-6.75;159.49;35.57;96.06;5.0;987.36;56.685;35.957302;-83.92423;798.79;NaN;;4.97;12.226105;163.6;15 / 18;85529;2022-10-12 12:11:42:703
-6.7669;-4.1154;-0.8441;-9.6697;1.6178;0.2221;1.9787;-5.545;-0.6207;0.408;0.2567;1.3839;7906.0;46.5;-0.11;-7.33;125.43;5.69;89.46;5.0;987.35;64.272;35.957302;-83.92423;798.79;NaN;;4.97;12.226105;163.6;15 / 18;86026;2022-10-12 12:11:43:200
-10.5185;-1.8434;-0.1902;-7.4231;-6.3962;-0.3967;-2.5095;4.0966;-0.1618;0.0362;-0.1162;-1.019;8301.0;45.51;-8.92;-8.34;161.62;31.19;92.99;5.0;987.37;55.8;35.95729;-83.924225;801.08;NaN;;4.57;12.226105;165.7;15 / 18;86526;2022-10-12 12:11:43:700
-6.0296;-3.705;-0.51;-9.7923;-0.1378;0.5116;1.1674;-4.4704;-0.5899;0.5771;0.0988;1.9601;7553.0;47.25;1.76;-10.22;79.97;0.81;87.01;5.0;987.34;60.379;35.95729;-83.924225;801.08;NaN;;4.57;12.226105;165.7;15 / 18;87026;2022-10-12 12:11:44:200
-10.6059;-2.1224;0.0981;-7.9716;-5.6672;-0.7116;-0.5569;3.5118;0.0957;-0.6715;-0.1636;-1.1698;7875.0;47.59;-5.66;-8.46;159.14;35.3;95.1;5.0;987.32;58.609;35.957283;-83.924225;803.22;NaN;;4.64;12.226105;160.6;15 / 18;87526;2022-10-12 12:11:44:700
-5.4251;-3.7409;-0.711;-9.7041;1.3645;0.3727;3.2124;-6.1616;-0.5373;-0.12;-1.0923;3.089;7282.0;48.34;6.53;-9.45;76.9;6.22;88.12;5.0;987.33;64.969;35.957283;-83.924225;803.22;NaN;;4.64;12.226105;160.6;15 / 18;88026;2022-10-12 12:11:45:200
-9.0592;-2.1906;-0.6751;-8.0465;-5.49;-1.1331;-2.3663;3.1393;-0.3864;-0.8401;-0.4291;-1.3559;8595.0;46.69;-11.92;-9.73;154.95;34.04;98.02;5.0;987.35;57.485;35.957275;-83.92421;802.54;NaN;;4.64;12.226105;150.7;15 / 18;88526;2022-10-12 12:11:45:700
-9.4005;-5.8164;-0.9517;-9.7727;0.7182;0.3866;-0.2749;-6.4034;-1.0633;-0.2261;-0.5731;2.6606;5887.0;48.53;7.22;-7.39;128.76;20.19;96.4;5.0;987.34;56.704;35.957275;-83.92421;802.54;NaN;;4.64;12.226105;150.7;15 / 18;89027;2022-10-12 12:11:46:201
-10.6214;-2.2504;-1.1611;-8.3844;-4.9705;-1.0795;-2.6874;-0.2362;-0.7458;-0.4884;-0.3035;-2.3063;8758.0;44.83;-10.5;-8.44;156.0;30.45;97.34;5.0;987.35;57.88;35.957264;-83.92421;802.81;NaN;;5.22;12.226105;151.9;16 / 18;89526;2022-10-12 12:11:46:700
-6.3969;-5.3498;0.2477;-9.6964;0.382;1.416;-1.0541;-6.8502;-2.4325;-0.5662;-1.9962;2.9281;6029.0;47.64;10.91;-4.82;133.23;23.14;94.87;5.0;987.33;59.757;35.957264;-83.92421;802.81;NaN;;5.22;12.226105;151.9;16 / 18;90027;2022-10-12 12:11:47:201
-12.3404;-2.0112;-0.6021;-6.8063;-6.9181;-1.4086;-4.0349;3.7922;1.0507;-0.2851;0.7501;-2.707;10984.0;43.05;-14.87;-11.85;154.92;29.32;94.99;5.0;987.32;55.97;35.957256;-83.924194;801.72;NaN;;4.72;12.226105;148.4;16 / 18;90527;2022-10-12 12:11:47:701
-5.4371;-4.5153;-0.2994;-9.7246;-1.0665;0.6823;-1.2755;-5.2584;-0.7453;1.0746;-0.7517;2.8517;6425.0;47.4;9.68;-6.36;29.34;6.24;85.99;5.0;987.34;59.535;35.957256;-83.924194;801.72;NaN;;4.72;12.226105;148.4;16 / 18;91026;2022-10-12 12:11:48:200
-10.5305;-2.9518;-1.1109;-7.48;-6.2729;-0.9327;-2.5791;3.4135;-0.124;-0.311;-0.1025;-1.6164;9313.0;44.96;-12.09;-6.86;161.42;39.77;97.11;5.0;987.33;58.136;35.957245;-83.92419;799.41;NaN;;4.93;12.226105;143.3;16 / 18;91527;2022-10-12 12:11:48:701
-5.7589;-6.4089;-0.2982;-8.6954;-4.4294;-0.97;-4.6021;-3.5125;-0.3393;-0.6226;0.126;3.2661;4123.0;48.79;9.86;-3.97;159.6;45.78;97.33;5.0;987.35;61.13;35.957245;-83.92419;799.41;NaN;;4.93;12.226105;143.3;16 / 18;92026;2022-10-12 12:11:49:200
-9.1621;-3.5468;-1.6998;-7.5064;-6.1953;-1.2009;-2.5465;1.0747;-1.3246;-0.973;-0.3292;-1.8774;9352.0;47.66;-10.97;-3.21;162.97;23.73;97.1;5.0;987.33;56.123;35.957233;-83.92418;800.34;NaN;;4.93;12.226105;152.6;16 / 18;92527;2022-10-12 12:11:49:701
-9.9703;-6.816;-0.2213;-8.9043;-3.8975;-1.3011;-5.4409;-1.8834;-0.2344;-0.2091;-0.716;3.4336;4676.0;47.4;10.11;-3.28;133.09;23.42;98.31;5.0;987.36;61.574;35.957233;-83.92418;800.34;NaN;;4.93;12.226105;152.6;16 / 18;93027;2022-10-12 12:11:50:201
-9.8961;-1.5227;-2.3773;-8.2893;-4.2929;-3.0049;-3.2645;-0.2705;-2.1427;-0.2422;-0.291;-3.0199;9453.0;43.76;-19.67;0.98;158.8;25.96;109.93;5.0;987.33;57.483;35.957226;-83.92417;800.41;NaN;;4.97;12.226105;149.7;16 / 18;93526;2022-10-12 12:11:50:700
-9.2279;-5.4921;-1.6101;-9.7841;-0.4279;-0.5079;-2.2742;-7.1367;-0.4635;-0.4397;-1.3146;3.3881;5463.0;48.21;5.59;3.56;156.16;28.53;103.97;5.0;987.34;62.324;35.957226;-83.92417;800.41;NaN;;4.97;12.226105;149.7;16 / 18;94026;2022-10-12 12:11:51:200
-10.4384;-2.6396;-1.2832;-9.3554;-2.5814;-1.4084;-1.7692;-3.356;-1.046;-0.7263;-0.3008;-2.7022;9447.0;42.88;-20.66;-3.38;163.36;15.26;98.56;5.0;987.3;61.826;35.957214;-83.92416;798.24;NaN;;4.9;12.226105;156.7;16 / 18;94527;2022-10-12 12:11:51:701
-12.5007;-7.7438;-0.8835;-9.2616;-3.1191;-0.8154;-3.0274;-0.9666;-0.1667;1.2948;-0.3026;2.9324;5180.0;48.49;7.37;-2.01;148.2;41.47;106.34;5.0;987.34;59.031;35.957214;-83.92416;798.24;NaN;;4.9;12.226105;156.7;16 / 18;95027;2022-10-12 12:11:52:201
-12.0577;-4.6947;-2.5283;-9.6014;-1.3596;-1.4612;1.4799;-5.0657;0.2157;0.0541;-0.0829;-3.014;9730.0;44.1;-19.28;-3.97;156.88;7.97;98.65;5.0;987.31;61.326;35.957207;-83.92414;796.04;NaN;;4.79;12.226105;150.2;15 / 18;95526;2022-10-12 12:11:52:700
-10.8679;-5.7996;-0.4585;-9.0029;-3.6776;-1.2626;-4.2944;0.4926;0.3636;-0.0088;-1.1187;2.9831;5046.0;48.66;2.19;-1.07;153.76;40.05;105.59;5.0;987.35;60.561;35.957207;-83.92414;796.04;NaN;;4.79;12.226105;150.2;15 / 18;96026;2022-10-12 12:11:53:200
-13.8476;-4.3848;-2.5905;-8.5728;-4.5555;-1.3872;-5.4228;-0.5077;-0.9512;-0.2383;0.636;-2.894;10542.0;44.36;-15.9;-5.1;152.15;6.34;97.77;5.0;987.29;62.524;35.9572;-83.92413;794.02;NaN;;4.68;12.226105;153.8;16 / 18;96526;2022-10-12 12:11:53:700
-14.1491;-6.8626;-0.5782;-8.9204;-3.8376;-1.3677;-5.8979;0.2111;0.3487;0.1624;-1.0559;3.0313;5697.0;49.09;3.51;-0.15;154.07;23.04;98.72;5.0;987.33;57.396;35.9572;-83.92413;794.02;NaN;;4.68;12.226105;153.8;16 / 18;97026;2022-10-12 12:11:54:200
-10.9699;-4.7067;-2.4419;-9.0916;-3.443;-1.2881;-2.6223;-0.9259;-1.2326;-0.1583;0.3234;-2.029;10586.0;43.71;-17.91;-1.09;167.42;20.55;98.06;5.0;987.3;60.817;35.95719;-83.924126;792.59;NaN;;5.04;12.226105;160.4;16 / 18;97525;2022-10-12 12:11:54:699
-9.4184;-4.2449;-1.2628;-8.7113;-4.3179;-1.2805;-5.0397;1.6866;-0.0599;0.4955;-0.5602;2.6492;5599.0;47.76;-0.54;3.38;160.09;40.64;107.17;5.0;987.34;59.848;35.95719;-83.924126;792.59;NaN;;5.04;12.226105;160.4;16 / 18;98026;2022-10-12 12:11:55:200
-9.4651;-2.9686;-2.8454;-8.9615;-3.6773;-1.5297;-0.9551;-0.7771;-0.9802;-0.3945;0.2255;-2.0966;10651.0;44.53;-15.9;0.28;163.18;6.03;97.95;5.0;987.31;61.041;35.957184;-83.92412;792.08;NaN;;4.72;12.226105;156.2;16 / 18;98526;2022-10-12 12:11:55:700
-10.5233;-4.2281;-0.9242;-8.3327;-5.0104;-1.2774;-4.0082;3.0822;-0.5055;-0.1212;-0.1351;2.049;5454.0;48.19;3.77;2.42;165.82;30.73;98.72;5.0;987.31;60.956;35.957184;-83.92412;792.08;NaN;;4.72;12.226105;156.2;16 / 18;99027;2022-10-12 12:11:56:201
-7.788;-1.8924;-2.6037;-9.1213;-3.3231;-1.3891;-0.2597;-1.7872;-0.0528;0.2336;0.3241;-1.9401;10895.0;46.29;-14.68;3.3;172.4;19.81;98.66;5.0;987.31;61.828;35.957172;-83.92411;791.73;NaN;;4.86;12.226105;157.7;16 / 18;99525;2022-10-12 12:11:56:699
-7.8826;-4.611;-1.0283;-9.6871;-1.3849;-0.6423;0.6805;-3.5903;-0.1782;0.2538;-1.3452;2.409;6340.0;49.07;2.1;4.37;161.86;26.62;102.34;5.0;987.31;62.544;35.957172;-83.92411;791.73;NaN;;4.86;12.226105;157.7;16 / 18;100027;2022-10-12 12:11:57:201
-8.2286;-1.896;-2.004;-8.658;-4.3255;-1.5808;-3.4428;-0.3496;-1.6554;-0.0459;0.4406;-1.452;10799.0;47.93;-13.39;-0.19;165.14;26.17;100.35;5.0;987.32;58.649;35.957165;-83.9241;790.57;NaN;;4.86;12.226105;158.7;16 / 18;100527;2022-10-12 12:11:57:701
-10.5401;-4.8649;-0.9852;-9.4656;-2.3871;-0.9347;-2.1393;-3.1175;-0.1686;0.1001;-0.6803;2.578;5699.0;50.76;4.69;0.79;151.92;14.09;95.64;5.0;987.29;58.41;35.957165;-83.9241;790.57;NaN;;4.86;12.226105;158.7;16 / 18;101026;2022-10-12 12:11:58:200
-8.2167;-1.6974;-2.7209;-9.2439;-3.0241;-1.255;-0.0908;-1.4682;0.6873;0.887;0.056;-1.5399;11103.0;46.65;-15.47;0.51;169.47;17.96;97.73;5.0;987.29;57.036;35.957153;-83.924095;789.4;NaN;;5.11;12.226105;160.3;16 / 18;101527;2022-10-12 12:11:58:701
-8.2848;-4.4698;-1.0917;-9.4183;-2.604;-0.8283;-1.4306;-1.9735;-0.0635;-0.0328;-0.0655;2.1719;6114.0;50.03;-0.32;2.03;166.88;33.2;99.56;5.0;987.32;56.186;35.957153;-83.924095;789.4;NaN;;5.11;12.226105;160.3;16 / 18;102026;2022-10-12 12:11:59:200
-8.6222;-2.8071;-0.9649;-8.3862;-4.8037;-1.6634;-0.6648;2.4344;-0.006;0.0928;-0.1196;-1.7665;14482.0;46.39;-15.41;-1.56;164.71;19.19;97.45;5.0;987.28;55.848;35.95714;-83.92409;787.14;NaN;;4.79;12.226105;164.0;15 / 18;102526;2022-10-12 12:11:59:700
-8.8427;-4.6672;-0.9577;-9.2522;-3.1034;-0.9677;-2.9722;-1.7435;0.1377;0.2834;-0.5538;2.5675;6102.0;49.33;1.29;1.86;167.93;18.45;95.97;5.0;987.3;57.967;35.95714;-83.92409;787.14;NaN;;4.79;12.226105;164.0;15 / 18;103026;2022-10-12 12:12:00:200
-8.1987;-1.8278;-1.6675;-8.8221;-4.0701;-1.3322;-1.272;0.6662;-0.902;-0.4636;-0.3241;-1.0132;16368.0;44.12;-16.82;1.16;170.57;24.52;98.59;5.0;987.3;54.996;35.95713;-83.92408;786.58;NaN;;4.86;12.226105;163.5;14 / 18;103526;2022-10-12 12:12:00:700
-10.3519;-4.7617;-1.5909;-8.7609;-4.2856;-1.025;-2.8471;2.4347;0.3375;1.0356;-0.1508;2.0729;6226.0;47.72;-1.59;3.53;166.95;36.05;102.97;5.0;987.31;54.955;35.95713;-83.92408;786.58;NaN;;4.86;12.226105;163.5;14 / 18;104027;2022-10-12 12:12:01:201
-9.4161;-2.2086;-2.0243;-8.6193;-4.4642;-1.3964;-3.0927;0.4958;-1.1791;0.0135;0.3655;-1.518;13907.0;43.95;-13.37;2.76;172.52;12.97;97.75;5.0;987.29;55.551;35.95712;-83.92408;786.55;NaN;;4.75;12.226105;167.4;14 / 18;104525;2022-10-12 12:12:01:699
-9.44;-4.9044;-1.057;-8.4625;-4.8424;-1.0527;-7.2348;-0.3356;-0.9538;-0.2795;-0.8761;2.2574;5804.0;46.91;1.5;5.34;177.77;29.59;97.09;5.0;987.27;56.239;35.95712;-83.92408;786.55;NaN;;4.75;12.226105;167.4;14 / 18;105025;2022-10-12 12:12:02:199
-11.3611;-4.7943;-1.9259;-8.7169;-4.2189;-1.545;-1.3956;-0.4843;-0.4414;-0.7703;-0.4536;-1.8128;11772.0;44.14;-12.56;2.85;171.22;25.48;100.05;5.0;987.27;54.305;35.95711;-83.92407;784.26;NaN;;4.86;12.226105;165.8;14 / 18;105526;2022-10-12 12:12:02:700
-10.4683;-5.2513;-1.0714;-9.3008;-2.936;-1.0221;-4.0585;-2.0319;-0.8257;0.4997;-0.2476;0.7161;5804.0;47.33;2.48;4.65;168.42;37.36;102.77;5.0;987.27;56.453;35.95711;-83.92407;784.26;NaN;;4.86;12.226105;165.8;14 / 18;106026;2022-10-12 12:12:03:200
-8.3327;-2.8573;-1.2975;-9.2072;-3.0648;-1.4155;0.6019;-2.8728;0.2559;0.2627;-0.3332;-2.055;11372.0;44.36;-15.19;2.42;170.43;18.21;98.74;5.0;987.28;58.378;35.957104;-83.924065;783.79;NaN;;4.97;12.226105;158.8;14 / 18;106526;2022-10-12 12:12:03:700
-10.5114;-4.9487;-1.1109;-8.8602;-4.0822;-1.0014;-1.8341;1.2868;-0.0154;0.5818;0.0517;1.9677;6011.0;48.51;1.97;3.24;172.27;24.6;96.45;5.0;987.28;56.613;35.957104;-83.924065;783.79;NaN;;4.97;12.226105;158.8;14 / 18;107027;2022-10-12 12:12:04:201
-8.8379;-3.6835;-2.2086;-9.537;-2.1315;-0.8202;0.9579;-3.5536;-0.1089;0.2497;0.3466;-1.1972;11264.0;45.94;-13.74;0.26;170.53;12.55;94.92;5.0;987.27;57.642;35.957096;-83.92406;784.42;NaN;;4.61;12.226105;161.1;14 / 18;107526;2022-10-12 12:12:04:700
-9.6757;-3.9814;-0.9015;-8.9947;-3.8055;-0.8857;-2.5757;0.885;0.168;0.4394;0.1552;2.019;6202.0;47.94;-2.46;2.51;168.36;36.85;101.01;5.0;987.26;55.497;35.957096;-83.92406;784.42;NaN;;4.61;12.226105;161.1;14 / 18;108026;2022-10-12 12:12:05:200
-10.346;-1.8182;-1.8458;-8.551;-4.5221;-1.6128;-4.2841;0.4909;-0.443;0.2592;0.4521;-2.6234;11635.0;45.34;-15.39;1.2;168.56;14.84;97.97;5.0;987.29;57.382;35.95709;-83.92405;785.1;NaN;;5.04;12.226105;167.9;14 / 18;108525;2022-10-12 12:12:05:699
-10.5102;-4.4542;-1.0056;-8.8257;-4.1485;-1.0326;-4.1438;0.4687;0.4234;0.8721;-0.0983;1.9332;6236.0;48.11;0.13;4.73;178.28;25.03;96.67;5.0;987.29;55.668;35.95709;-83.92405;785.1;NaN;;5.04;12.226105;167.9;14 / 18;109027;2022-10-12 12:12:06:201
-9.8746;-3.3374;-2.3186;-9.1131;-3.4354;-1.1491;-2.3855;-0.6215;-0.2238;0.3324;0.525;-1.1175;11844.0;45.26;-15.62;5.44;178.76;20.51;97.19;5.0;987.23;56.906;35.957077;-83.92405;783.6;NaN;;4.5;12.226105;171.8;14 / 18;109526;2022-10-12 12:12:06:700
-8.9312;-3.2429;-1.2018;-8.878;-4.1075;-0.6926;-4.5156;2.5022;-0.8228;0.2059;-1.0183;1.895;6715.0;47.93;-4.87;7.28;179.7;33.33;98.49;5.0;987.25;55.037;35.957077;-83.92405;783.6;NaN;;4.5;12.226105;171.8;14 / 18;110026;2022-10-12 12:12:07:200
-8.8654;-1.7895;-1.4354;-9.0811;-3.453;-1.3343;-2.599;0.0396;-0.3003;-0.5349;0.1829;-0.7718;11942.0;45.66;-13.99;5.23;179.48;13.52;96.48;5.0;987.26;56.442;35.957066;-83.92404;782.97;NaN;;4.9;12.226105;161.7;14 / 18;110526;2022-10-12 12:12:07:700
-11.0417;-2.569;-0.079;-8.9956;-3.7988;-0.9048;-4.2819;0.5876;0.0701;0.8726;-0.5007;1.5305;7800.0;47.72;-4.43;7.11;185.5;22.79;95.74;5.0;987.24;58.427;35.957066;-83.92404;782.97;NaN;;4.9;12.226105;161.7;14 / 18;111027;2022-10-12 12:12:08:201
-8.9288;-3.5779;-1.9693;-9.2227;-3.1263;-1.1566;-0.904;0.0712;0.435;0.0182;0.3647;-1.0436;12202.0;45.98;-13.82;5.89;180.47;18.59;97.15;5.0;987.25;55.098;35.957054;-83.92404;782.4;NaN;;4.68;12.226105;177.5;13 / 18;111526;2022-10-12 12:12:08:700
-11.3408;-5.5184;-0.9613;-9.1074;-3.5313;-0.8693;-3.3631;-0.3322;0.2363;0.1797;-0.1534;0.368;6377.0;48.43;-1.44;5.79;178.18;38.37;98.28;5.0;987.25;56.088;35.957054;-83.92404;782.4;NaN;;4.68;12.226105;177.5;13 / 18;112026;2022-10-12 12:12:09:200
-9.7582;-4.7943;-0.3341;-9.628;-1.6966;-0.7708;0.5727;-4.1729;-0.6409;0.3256;-0.2522;-1.7085;11619.0;45.71;-14.83;4.37;180.8;9.96;94.58;5.0;987.25;56.466;35.957043;-83.92404;782.12;NaN;;4.54;12.226105;178.9;13 / 18;112526;2022-10-12 12:12:09:700
-13.4273;-5.5543;-1.3705;-9.2312;-3.1943;-0.8672;-2.9709;0.038;-0.5871;-0.2277;-0.2454;2.5097;6630.0;48.24;-2.42;6.9;187.99;19.01;95.37;5.0;987.26;56.97;35.957043;-83.92404;782.12;NaN;;4.54;12.226105;178.9;13 / 18;113026;2022-10-12 12:12:10:200
-12.1896;-3.766;-2.467;-9.6771;-1.0715;-1.1733;2.4789;-4.5947;-0.9835;-0.6566;0.3534;-2.8217;11537.0;41.19;-21.82;5.44;180.06;6.27;96.91;5.0;987.23;56.107;35.95703;-83.924034;782.64;NaN;;5.18;12.226105;164.2;14 / 18;113526;2022-10-12 12:12:10:700
-12.8862;-6.3766;-1.185;-8.723;-4.3094;-1.2283;-5.5185;1.2872;0.4253;0.8554;-1.2008;2.6683;6703.0;46.09;-3.22;8.74;167.25;39.92;109.96;5.0;987.26;56.782;35.95703;-83.924034;782.64;NaN;;5.18;12.226105;164.2;14 / 18;114027;2022-10-12 12:12:11:201
-9.9212;-2.9865;-1.567;-9.0484;-3.4834;-1.4705;-2.837;-1.7836;-0.0088;0.0851;1.0825;-1.9304;11414.0;41.48;-17.46;3.68;178.67;-0.25;96.11;5.0;987.22;55.464;35.957024;-83.92403;782.77;NaN;;4.64;12.226105;158.3;14 / 18;114526;2022-10-12 12:12:11:700
-9.3048;-5.3231;-0.51;-8.1704;-5.218;-1.4789;-7.5202;0.7093;0.0821;0.1164;-0.3654;2.2439;6596.0;45.77;-0.43;9.36;181.52;32.15;100.26;5.0;987.26;54.98;35.957024;-83.92403;782.77;NaN;;4.64;12.226105;158.3;14 / 18;115026;2022-10-12 12:12:12:200
-10.4037;-3.8258;-0.1352;-9.3903;-2.4936;-1.3319;0.4209;-1.5135;1.4496;0.5381;0.1733;-1.3042;11426.0;43.59;-15.34;8.63;186.02;14.73;98.07;5.0;987.22;56.499;35.957012;-83.92402;785.84;NaN;;4.72;12.226105;159.0;14 / 18;115526;2022-10-12 12:12:12:700
-11.0094;-5.3569;-0.7792;-7.6456;-5.878;-1.779;-7.6082;3.0365;-0.322;-0.4076;-0.707;1.1439;6576.0;46.59;-2.68;9.02;175.8;39.63;103.73;5.0;987.25;55.44;35.957012;-83.92402;785.84;NaN;;4.72;12.226105;159.0;14 / 18;116026;2022-10-12 12:12:13:200
-7.43;-2.819;0.1448;-9.3977;-2.2389;-1.6856;-0.7235;-4.0737;0.6484;0.588;0.0835;-1.9455;11520.0;43.2;-13.22;3.71;179.71;0.13;95.4;5.0;987.23;57.833;35.957005;-83.92402;784.87;NaN;;4.61;12.226105;188.5;14 / 18;116526;2022-10-12 12:12:13:700
-11.913;-3.5312;-1.0116;-7.961;-5.5259;-1.5027;-2.2537;4.1071;-0.257;0.4011;-0.0724;0.7765;10684.0;42.9;-5.44;6.88;177.81;34.3;100.69;5.0;987.22;62.108;35.957005;-83.92402;784.87;NaN;;4.61;12.226105;188.5;14 / 18;117026;2022-10-12 12:12:14:200
-8.4081;-3.2309;-0.6547;-9.6292;-1.4723;-1.1321;1.4612;-2.8118;-0.1583;-0.334;0.0314;-0.151;11732.0;39.17;-9.13;11.14;203.14;8.63;96.71;5.0;987.2;57.114;35.956993;-83.92403;784.97;NaN;;4.82;12.226105;198.0;15 / 18;117526;2022-10-12 12:12:14:700
-17.065;-5.4814;-2.0267;-7.8738;-5.6217;-1.6031;-6.0945;2.9257;-0.79;0.1786;0.2734;0.1313;7350.0;40.97;0.24;14.44;192.14;38.27;101.27;5.0;987.24;56.25;35.956993;-83.92403;784.97;NaN;;4.82;12.226105;198.0;15 / 18;118026;2022-10-12 12:12:15:200
-9.3323;-3.8258;-2.4455;-9.5179;-0.4085;-2.3266;3.1576;-3.3185;1.3576;-0.5291;-0.5138;-0.9689;11016.0;47.49;0.73;20.44;262.42;2.39;103.74;5.0;987.22;62.264;35.956985;-83.92403;784.79;NaN;;5.08;12.226105;212.0;15 / 18;118526;2022-10-12 12:12:15:700
-13.887;-2.26;-3.044;-7.2778;-6.4145;-1.4342;-3.5179;5.4116;-0.4218;0.1306;-0.0053;-1.0042;6797.0;54.68;2.64;23.94;199.7;40.85;101.15;5.0;987.23;59.181;35.956985;-83.92403;784.79;NaN;;5.08;12.226105;212.0;15 / 18;119026;2022-10-12 12:12:16:200
-8.8439;-4.6911;-1.8817;-9.7281;0.9566;-0.7866;3.3834;-5.265;-0.4322;-0.9189;0.4284;0.4991;6571.0;48.58;-10.71;14.4;238.74;-5.6;94.62;5.0;987.19;58.78;35.956978;-83.924034;785.78;NaN;;4.75;12.226105;202.8;15 / 18;119526;2022-10-12 12:12:16:700
-14.9022;-0.7062;-1.2389;-8.9043;-3.4601;-2.2161;-1.8706;4.7626;-0.111;-0.4145;-0.0297;-1.2575;3217.0;42.56;-21.58;16.28;191.01;14.45;102.46;5.0;987.21;58.303;35.956978;-83.924034;785.78;NaN;;4.75;12.226105;202.8;15 / 18;120026;2022-10-12 12:12:17:200
-11.0883;-4.1417;-1.9606;-9.6303;1.3603;-1.256;2.2977;-3.7557;-1.0266;0.0028;0.2759;-0.3711;5303.0;43.31;-18.02;15.45;240.0;-14.31;94.84;5.0;987.19;56.666;35.956966;-83.924034;785.9;NaN;;4.72;12.226105;199.9;16 / 18;120526;2022-10-12 12:12:17:700
-12.5605;-0.0694;-2.0207;-8.7383;-3.785;-2.3422;-0.6841;3.8195;0.8323;0.0635;0.2795;-1.1568;4074.0;41.55;-17.4;18.99;192.68;22.7;105.0;5.0;987.21;62.672;35.956966;-83.924034;785.9;NaN;;4.72;12.226105;199.9;16 / 18;121026;2022-10-12 12:12:18:200
-9.1513;-3.1986;-1.9669;-9.7345;0.3485;-1.1348;2.8073;-2.7028;-0.4296;0.1218;0.2572;0.3415;6432.0;42.73;-14.72;17.31;221.62;-2.04;96.65;5.0;987.19;64.918;35.95696;-83.924034;785.68;NaN;;4.86;12.226105;216.9;16 / 18;121526;2022-10-12 12:12:18:700
-8.7625;-1.1049;-1.1886;-8.7922;-3.9919;-1.7124;0.0772;3.199;-0.0535;0.7203;0.0617;-0.1374;7299.0;41.89;-11.79;19.41;199.05;22.24;102.16;5.0;987.21;62.616;35.95696;-83.924034;785.68;NaN;;4.86;12.226105;216.9;16 / 18;122026;2022-10-12 12:12:19:200
-6.0559;-2.636;-1.8625;-9.7069;0.8119;-1.135;2.7509;-3.7675;0.0482;0.8782;0.3617;1.4517;11073.0;43.63;-6.02;20.16;241.75;3.74;94.29;5.0;987.17;62.222;35.956955;-83.924034;788.83;NaN;;4.32;12.226105;213.5;16 / 18;122526;2022-10-12 12:12:19:700
-9.9691;-0.4717;-1.9836;-8.7133;-4.1434;-1.7551;0.4341;3.2396;0.1568;0.1448;0.2431;-0.8329;11011.0;42.83;-9.98;18.81;199.6;24.99;101.39;5.0;987.22;63.553;35.956955;-83.924034;788.83;NaN;;4.32;12.226105;213.5;16 / 18;123027;2022-10-12 12:12:20:201
-6.1014;-3.0751;-1.0798;-9.7873;0.2714;-0.5525;1.9934;-3.6441;-0.2768;0.417;-0.2797;1.8405;10406.0;44.61;-6.73;16.07;246.91;-1.59;93.23;5.0;987.18;63.748;35.956944;-83.92404;787.29;NaN;;4.64;12.226105;209.7;16 / 18;123527;2022-10-12 12:12:20:701
-8.9192;-1.3334;-1.4079;-8.5941;-4.3465;-1.8491;0.7718;2.7667;1.2625;-0.3212;0.0134;-0.7518;11310.0;42.26;-13.82;17.34;196.45;21.02;101.13;5.0;987.18;62.869;35.956944;-83.92404;787.29;NaN;;4.64;12.226105;209.7;16 / 18;124027;2022-10-12 12:12:21:201
-6.9631;-3.1531;-1.2401;-9.6927;-1.2766;-0.7698;0.8277;-1.3411;-0.8356;0.1399;0.1241;0.6331;10109.0;45.08;-4.39;16.26;231.17;7.48;94.54;5.0;987.17;59.638;35.956936;-83.92405;786.89;NaN;;4.14;12.226105;210.6;16 / 18;124527;2022-10-12 12:12:21:701
-9.0377;-1.823;-1.1492;-8.8214;-3.9002;-1.7724;1.7191;2.4546;1.0221;-0.1883;0.0609;-0.7623;12243.0;43.41;-11.61;15.13;192.16;23.43;101.36;5.0;987.18;60.672;35.956936;-83.92405;786.89;NaN;;4.14;12.226105;210.6;16 / 18;125027;2022-10-12 12:12:22:201
-7.2996;-3.8486;-0.3808;-9.6985;-1.3448;-0.549;-0.9519;-1.911;-1.067;0.2962;-0.1525;1.2034;10013.0;45.39;-6.84;14.4;220.89;7.88;93.24;5.0;987.19;58.665;35.95693;-83.92405;788.28;NaN;;4.79;12.226105;208.3;16 / 18;125526;2022-10-12 12:12:22:700
-8.3124;-1.5072;-0.3449;-8.9545;-3.5663;-1.8082;0.8044;2.2564;0.533;-0.7998;-0.1475;-0.4115;12369.0;43.97;-14.92;15.19;194.26;18.95;99.67;5.0;987.23;57.217;35.95693;-83.92405;788.28;NaN;;4.79;12.226105;208.3;16 / 18;126026;2022-10-12 12:12:23:200
-6.877;-2.9506;-1.197;-9.7511;-0.7559;-0.7178;2.1402;-1.5987;-0.9902;0.3663;-0.1258;1.4879;9878.0;45.99;-6.92;14.76;210.5;14.3;95.09;5.0;987.2;58.431;35.95692;-83.92406;787.83;NaN;;4.46;12.226105;213.5;16 / 18;126526;2022-10-12 12:12:23:700
-7.6851;-1.7393;-0.3078;-9.3156;-2.7008;-1.4475;0.5293;0.4974;-0.9027;-0.3697;0.2987;-0.6226;12851.0;42.77;-14.25;16.13;199.62;15.99;98.83;5.0;987.19;58.488;35.95692;-83.92406;787.83;NaN;;4.46;12.226105;213.5;16 / 18;127026;2022-10-12 12:12:24:200
-8.2956;-2.776;-1.2389;-9.5168;-2.137;-1.0173;0.4928;-0.7017;-0.8501;-0.0602;-0.2096;1.2877;10209.0;45.04;-4.59;16.76;218.89;12.59;96.1;5.0;987.22;57.226;35.956913;-83.924065;789.08;NaN;;4.36;12.226105;199.8;16 / 18;127527;2022-10-12 12:12:24:701
-7.9687;-2.016;-1.5622;-9.1654;-3.096;-1.6062;-1.7447;0.1154;-0.7624;-0.9083;-0.6047;-0.7478;12929.0;42.79;-10.07;17.85;208.01;12.99;99.56;5.0;987.18;58.677;35.956913;-83.924065;789.08;NaN;;4.36;12.226105;199.8;16 / 18;128026;2022-10-12 12:12:25:200
-6.9416;-3.0897;-0.9386;-9.5687;-1.9696;-0.8549;-0.7936;-2.1478;0.028;-0.0661;-0.4858;1.6283;9528.0;43.95;-2.01;16.41;201.2;25.11;99.79;5.0;987.2;57.207;35.9569;-83.924065;790.51;NaN;;4.68;12.399264;202.0;16 / 18;128526;2022-10-12 12:12:25:700
-7.2362;-0.8222;-1.7213;-9.0909;-3.2216;-1.7743;-2.1585;0.7418;0.3467;-0.6886;-0.6582;-0.3649;13046.0;42.28;-12.0;15.56;196.48;19.18;101.04;5.0;987.17;57.49;35.9569;-83.924065;790.51;NaN;;4.68;12.399264;202.0;16 / 18;129026;2022-10-12 12:12:26:200
-8.3734;-2.6563;-1.9164;-9.326;-2.7633;-1.2495;-1.9516;-1.382;0.6795;0.7352;0.0265;1.4612;9158.0;44.72;-3.56;15.08;207.66;16.37;97.63;5.0;987.18;59.049;35.95689;-83.92407;792.11;NaN;;4.64;12.226105;213.9;16 / 18;129526;2022-10-12 12:12:26:700
-7.1871;-1.2915;-1.8338;-8.8547;-3.9983;-1.3332;0.3142;1.7009;-0.7925;0.1493;0.2552;-0.9067;13074.0;42.77;-10.24;15.34;201.16;18.2;97.74;5.0;987.17;58.754;35.95689;-83.92407;792.11;NaN;;4.64;12.226105;213.9;16 / 18;130026;2022-10-12 12:12:27:200
-8.4619;-3.2381;-1.7465;-9.2822;-2.9609;-1.1152;-2.743;0.6127;0.1132;-0.2132;-0.3259;2.0605;8176.0;46.14;-2.29;14.34;207.44;17.57;96.85;5.0;987.2;58.448;35.956882;-83.92408;792.16;NaN;;4.14;12.226105;207.1;16 / 18;130526;2022-10-12 12:12:27:700
-9.4005;-1.6663;-2.473;-8.6826;-4.2988;-1.5178;-2.2444;0.4933;-0.4914;0.9538;0.8915;-1.6297;12986.0;43.01;-15.77;12.21;187.43;26.0;99.92;5.0;987.21;59.184;35.956882;-83.92408;792.16;NaN;;4.14;12.226105;207.1;16 / 18;131026;2022-10-12 12:12:28:200
-10.57;-4.6732;-0.5662;-8.9475;-3.8932;-0.9775;-3.4873;1.1022;0.7253;0.7103;0.0447;2.3332;7368.0;46.07;1.29;14.53;209.01;23.39;96.23;5.0;987.21;58.538;35.95687;-83.92408;792.33;NaN;;4.64;12.226105;201.2;16 / 18;131526;2022-10-12 12:12:28:700
-9.4316;-1.7501;-2.8155;-9.0537;-3.6694;-0.8587;-1.6397;-1.0166;0.367;1.6447;-0.5176;-2.0868;12867.0;42.92;-12.66;16.44;211.95;3.82;97.88;5.0;987.2;56.82;35.95687;-83.92408;792.33;NaN;;4.64;12.226105;201.2;16 / 18;132026;2022-10-12 12:12:29:200
-8.8128;-3.8486;-0.2189;-9.6967;-1.4637;0.0374;-2.1572;-3.534;-0.2589;-0.5188;-0.6557;2.3471;8672.0;43.74;5.91;17.61;219.62;28.31;95.73;5.0;987.19;57.106;35.956863;-83.92409;792.49;NaN;;4.75;12.294429;211.1;16 / 18;132528;2022-10-12 12:12:29:702
-11.7395;-4.0065;-0.7552;-8.9162;-3.8977;-1.2161;-1.0909;-1.8961;0.0576;-0.7762;0.069;-1.9159;13044.0;43.43;-12.43;14.81;197.48;23.42;97.77;5.0;987.2;56.07;35.956863;-83.92409;792.49;NaN;;4.75;12.294429;211.1;16 / 18;133026;2022-10-12 12:12:30:200
-13.5099;-9.1178;-0.5542;-9.5977;-2.0136;-0.0255;-5.0904;-5.6136;-0.875;0.5295;-1.2435;3.8825;7391.0;46.43;7.71;13.99;263.33;11.85;90.15;5.0;987.17;57.512;35.956856;-83.924095;790.68;NaN;;4.64;12.617346;206.3;16 / 18;133527;2022-10-12 12:12:30:701
-12.4026;-3.3864;-1.9872;-9.517;-2.0466;-1.1865;2.3431;-4.1714;0.6438;0.1564;0.6405;-3.5031;12815.0;41.7;-16.29;10.71;232.13;-11.52;92.35;5.0;987.18;58.225;35.956856;-83.924095;790.68;NaN;;4.64;12.617346;206.3;16 / 18;134026;2022-10-12 12:12:31:200
-11.0393;-6.8818;-0.4825;-9.3621;-2.8857;-0.4417;-3.7979;-2.0316;0.2838;0.2331;-1.0354;3.1436;7576.0;45.15;6.49;15.04;187.19;41.5;104.34;5.0;987.2;57.441;35.95685;-83.9241;790.05;NaN;;4.64;12.238662;217.9;16 / 18;134526;2022-10-12 12:12:31:700
-13.5482;-5.4646;-1.337;-9.5972;-1.6352;-1.1789;3.2202;-3.6379;-0.3225;-0.11;0.1939;-3.1714;12731.0;41.14;-16.97;12.38;196.2;9.6;97.0;5.0;987.17;56.032;35.95685;-83.9241;790.05;NaN;;4.64;12.238662;217.9;16 / 18;135026;2022-10-12 12:12:32:200
-13.978;-11.4664;1.3107;-7.9558;-5.5626;-1.3905;-8.9838;-0.0178;-1.8427;-1.2642;-0.4823;0.8582;7707.0;43.29;9.23;15.34;202.19;34.56;99.91;5.0;987.18;58.464;35.95684;-83.92411;791.4;NaN;;4.54;12.226105;215.0;16 / 18;135527;2022-10-12 12:12:32:701
-13.1267;-7.2841;-1.4617;-8.755;-4.1894;-1.4031;-1.8962;-2.3906;1.0046;0.6933;-0.0512;-3.912;12431.0;37.67;-13.27;16.24;235.03;-7.25;96.95;5.0;987.18;56.439;35.95684;-83.92411;791.4;NaN;;4.54;12.226105;215.0;16 / 18;136026;2022-10-12 12:12:33:200
-13.8691;-6.8339;-0.9015;-7.5635;-6.0808;-1.4101;-8.6919;1.8049;0.3555;0.375;-0.9029;3.4014;7990.0;40.84;6.13;18.77;206.45;38.32;100.56;5.0;987.17;56.439;35.956833;-83.92412;791.76;NaN;;4.75;12.226105;206.5;14 / 18;136526;2022-10-12 12:12:33:700
-10.946;-4.7019;-2.7353;-9.3172;-2.9276;-0.8883;0.5344;-3.0039;1.1093;-0.532;0.6344;-3.3216;11245.0;40.29;-13.26;15.98;206.11;17.37;95.45;5.0;987.19;55.51;35.956833;-83.92412;791.76;NaN;;4.75;12.226105;206.5;14 / 18;137026;2022-10-12 12:12:34:200
-13.4094;-6.2366;-0.8572;-7.0027;-6.6749;-1.6056;-5.3184;4.5183;0.6129;0.2123;-0.4573;2.1914;7800.0;42.53;6.0;18.81;198.25;42.89;102.91;5.0;987.21;56.891;35.95682;-83.924126;791.44;NaN;;4.57;12.226105;208.4;12 / 18;137526;2022-10-12 12:12:34:700
-14.0629;-5.3533;-1.3298;-9.638;-1.3364;-1.2219;2.0706;-3.5695;0.1815;-0.0889;0.6438;-0.7012;6870.0;41.7;-6.88;15.86;252.21;-2.83;90.98;5.0;987.17;57.054;35.95682;-83.924126;791.44;NaN;;4.57;12.226105;208.4;12 / 18;138026;2022-10-12 12:12:35:200
-13.2515;-2.9889;-0.4753;-7.796;-5.7785;-1.415;-7.944;0.9336;0.621;-0.144;-0.1528;0.4984;2767.0;43.03;0.83;18.34;193.64;46.14;102.99;5.0;987.19;56.045;35.956814;-83.92413;790.85;NaN;;4.82;12.226105;207.1;13 / 18;138526;2022-10-12 12:12:35:700
-14.2244;-5.3737;-1.252;-9.7895;0.4939;-0.3033;4.6811;-4.4558;-0.616;-0.2389;0.3118;-0.0688;5186.0;41.12;-12.08;14.78;234.2;-2.89;91.77;5.0;987.17;56.679;35.956814;-83.92413;790.85;NaN;;4.82;12.226105;207.1;13 / 18;139025;2022-10-12 12:12:36:199
-11.688;-1.7668;-0.7229;-7.6101;-6.0022;-1.4937;-6.6395;2.3331;0.9706;0.229;0.0394;0.7723;2169.0;44.06;-4.09;16.82;194.56;37.74;101.1;5.0;987.18;57.244;35.956802;-83.92414;793.14;NaN;;4.72;12.226105;223.4;13 / 18;139526;2022-10-12 12:12:36:700
-9.859;-7.2637;-1.4593;-9.8013;0.2247;-0.2335;4.4355;-3.7152;-1.2727;-0.7614;0.7252;-2.3324;4084.0;36.71;-12.02;14.49;230.35;0.89;88.19;5.0;987.14;57.334;35.956802;-83.92414;793.14;NaN;;4.72;12.226105;223.4;13 / 18;140027;2022-10-12 12:12:37:201
-14.8914;-0.5267;-2.3844;-7.445;-6.067;-1.9834;-4.3353;4.4908;0.9339;-0.1939;-0.1281;-0.6111;2091.0;32.21;-8.61;15.53;194.79;40.45;103.99;5.0;987.18;56.751;35.95679;-83.92415;792.55;NaN;;4.97;12.226105;200.8;15 / 18;140527;2022-10-12 12:12:37:701
-3.5061;0.0658;4.2413;-7.475;4.6783;4.2906;-5.9781;-5.9704;-4.1679;0.1086;-5.1633;1.1264;4989.0;29.81;-18.06;9.23;256.3;-28.49;60.14;5.0;987.15;57.305;35.95679;-83.92415;792.55;NaN;;4.97;12.226105;200.8;15 / 18;141028;2022-10-12 12:12:38:202
1.1025;5.5244;7.9232;-0.2078;4.8061;8.5457;0.1291;0.2595;-1.7432;0.5164;-0.4989;0.0036;7264.0;8.98;-33.64;-19.01;202.89;-29.35;1.39;5.0;987.13;54.664;35.956783;-83.92417;793.65;NaN;;5.18;12.226105;217.9;15 / 18;141525;2022-10-12 12:12:38:699
-0.8788;5.4802;6.5145;-1.0205;5.3838;8.1329;0.3924;0.2865;-1.9357;-0.3528;-0.5879;-1.0536;6111.0;12.28;-36.28;-17.01;208.71;-35.89;6.06;5.0;987.14;55.475;35.956783;-83.92417;793.65;NaN;;5.18;12.226105;217.9;15 / 18;142026;2022-10-12 12:12:39:200
-0.7576;4.7967;6.4941;-1.8714;3.9315;8.787;0.3584;-0.0421;-3.0567;-0.7191;1.1086;0.0434;6722.0;25.16;-28.71;-21.64;231.41;-23.63;12.02;5.0;987.13;52.829;35.95678;-83.92418;794.33;NaN;;4.57;12.226105;218.7;15 / 18;142526;2022-10-12 12:12:39:700
-3.961;2.618;8.2513;-3.9907;2.1024;8.7077;0.9882;0.5999;-0.9398;-0.2084;1.4531;-0.7457;7862.0;29.96;-19.89;-26.57;234.11;-12.38;24.62;5.0;987.12;54.429;35.95678;-83.92418;794.33;NaN;;4.57;12.226105;218.7;15 / 18;143025;2022-10-12 12:12:40:199
-3.4187;1.7608;7.8885;-3.0121;0.6417;9.3105;0.2441;-0.1156;-0.9168;0.8211;-0.3014;-1.0932;7683.0;36.92;-9.96;-24.66;254.41;-3.75;17.93;5.0;987.14;55.534;35.95677;-83.924194;797.11;NaN;;4.61;12.226105;215.5;15 / 18;143527;2022-10-12 12:12:40:701
-1.8278;1.7991;8.1075;-1.5483;1.2271;9.6056;-0.4326;-0.2617;-1.394;0.2739;-0.1396;-0.968;38393.0;33.83;-3.94;-29.76;269.92;-6.41;9.58;5.0;987.1;55.804;35.95677;-83.924194;797.11;NaN;;4.61;12.226105;215.5;15 / 18;144027;2022-10-12 12:12:41:201
-3.3972;1.5168;7.9723;-2.6252;1.4095;9.343;-0.1985;-0.0919;-1.8402;0.2701;0.286;-0.1739;50002.0;30.77;3.75;-33.28;291.57;-7.01;13.82;5.0;987.1;56.102;35.956764;-83.9242;799.67;NaN;;4.61;12.982244;226.5;15 / 18;144526;2022-10-12 12:12:41:700
-3.2393;0.9386;7.9759;-3.1364;1.861;9.1033;-0.0607;-0.1139;-0.2058;-0.3761;0.2173;-0.4384;43437.0;32.94;4.11;-30.9;298.65;-10.94;19.01;5.0;987.15;55.896;35.956764;-83.9242;799.67;NaN;;4.61;12.982244;226.5;15 / 18;145026;2022-10-12 12:12:42:200
-3.8617;1.002;7.6086;-4.6621;0.486;8.6139;1.1855;0.4358;-0.796;-0.1552;0.7083;0.0937;29507.002;35.7;6.58;-27.9;296.3;-2.84;28.42;5.0;987.15;56.278;35.95676;-83.92422;800.38;NaN;;4.68;13.187998;232.0;15 / 18;145527;2022-10-12 12:12:42:701
-3.8222;1.0834;7.3044;-3.3692;0.7943;9.1754;-0.0204;-9.0E-4;-0.8868;-0.0605;0.1457;-0.1166;24362.0;37.89;6.68;-25.07;290.56;-5.07;19.98;5.0;987.14;56.054;35.95676;-83.92422;800.38;NaN;;4.68;13.187998;232.0;15 / 18;146026;2022-10-12 12:12:43:200
-4.331;1.5251;6.6078;-4.5159;0.8927;8.6591;0.8164;-2.0062;2.007;0.2325;0.2389;0.3477;24044.0;36.66;6.58;-26.76;297.79;-5.22;27.54;5.0;987.02;54.367;35.956757;-83.92423;800.76;NaN;;4.61;13.077696;236.9;12 / 18;146527;2022-10-12 12:12:43:701
-1.6627;1.8159;10.5317;-3.1177;1.8595;9.11;1.0657;-0.396;0.9295;-0.3495;0.6509;1.6677;33540.0;36.32;2.51;-27.92;292.16;-10.93;18.89;5.0;987.12;55.896;35.956757;-83.92423;800.76;NaN;;4.61;13.077696;236.9;12 / 18;147027;2022-10-12 12:12:44:201
-1.2772;3.1412;7.4922;-2.2187;3.4216;8.9186;1.7431;-0.9115;1.098;0.2357;-2.574;-1.0271;19518.0;35.76;-10.44;-26.34;274.51;-21.45;10.42;5.0;987.12;57.615;35.956753;-83.92424;801.52;NaN;;4.32;12.347274;236.2;12 / 18;147526;2022-10-12 12:12:44:700
3.1412;1.3741;10.127;3.1174;1.6867;9.1437;1.2042;-0.6221;3.9065;-0.4207;-1.3736;-0.5257;81544.0;29.08;-9.47;-33.04;270.31;-16.86;-5.08;5.0;987.18;56.207;35.956753;-83.92424;801.52;NaN;;4.32;12.347274;236.2;12 / 18;148026;2022-10-12 12:12:45:200
3.3302;0.5782;8.5122;3.4865;2.0818;8.9264;2.7243;-2.0768;1.4982;1.0523;1.617;0.9747;101217.0;1.54;5.61;-44.18;294.61;-8.64;-31.77;5.0;987.1;56.308;35.95675;-83.924255;802.41;NaN;;4.61;12.627289;233.1;12 / 18;148527;2022-10-12 12:12:45:701
12.2016;0.5578;5.5208;7.5945;2.4571;5.6971;2.8382;-1.1194;-3.6056;-2.9182;-2.7498;0.2676;131889.0;2.03;-5.48;-42.51;271.97;-14.51;-53.12;5.0;987.16;56.466;35.95675;-83.924255;802.41;NaN;;4.61;12.627289;233.1;12 / 18;149026;2022-10-12 12:12:46:200
13.9875;-0.9254;4.2808;9.7409;0.0384;1.1327;4.7876;0.3628;4.1505;2.7096;1.8387;-0.3832;5994.0;-33.82;10.22;-20.16;302.47;-0.22;-83.37;5.0;987.2;56.379;35.95674;-83.92427;802.08;NaN;;4.61;12.238957;215.0;12 / 18;149526;2022-10-12 12:12:46:700
12.4971;-0.5219;-1.2999;8.9112;4.0757;0.3873;0.7026;-4.4133;-3.2099;-0.0228;-2.4348;0.7011;85600.0;-31.16;-4.03;-27.13;290.77;-24.56;-87.51;5.0;987.15;59.127;35.95674;-83.92427;802.08;NaN;;4.61;12.238957;215.0;12 / 18;150026;2022-10-12 12:12:47:200
14.6219;-3.1711;3.7445;9.4992;-1.4968;-1.9224;6.2871;1.6042;5.9486;0.5372;2.4522;-1.467;3142.0;-38.61;5.44;-12.66;263.35;15.28;-113.68;5.0;987.16;55.747;35.95673;-83.92428;801.27;NaN;;4.5;12.502123;204.9;13 / 18;150526;2022-10-12 12:12:47:700
10.777;-0.2934;0.6236;9.5622;2.1725;0.1202;-1.3363;-4.2171;-2.3861;-0.8173;-1.0229;2.33;22372.0;-31.5;-11.59;-23.83;290.26;-32.01;-85.09;5.0;987.17;58.446;35.95673;-83.92428;801.27;NaN;;4.5;12.502123;204.9;13 / 18;151025;2022-10-12 12:12:48:199
15.6012;-3.469;2.5208;8.9761;-2.7918;-2.7939;4.4354;3.4371;7.9032;0.534;0.9499;-0.5361;3462.0;-36.0;9.58;-14.44;272.34;16.54;-107.29;5.0;987.2;51.449;35.95672;-83.924286;802.64;NaN;;4.07;12.226105;205.3;13 / 18;151527;2022-10-12 12:12:48:701
10.7315;-0.8477;-3.0236;8.5403;4.8112;-0.2921;-3.3521;-6.6847;-1.7092;-1.1075;-1.1785;2.7991;21074.0;-32.62;-0.94;-20.38;322.83;-39.42;-83.71;5.0;987.2;53.892;35.95672;-83.924286;802.64;NaN;;4.07;12.226105;205.3;13 / 18;152026;2022-10-12 12:12:49:200
18.5854;3.4439;1.2628;8.4166;-2.2766;-4.4886;3.087;5.7601;7.4217;-0.3276;0.1759;0.46;3585.0;-36.75;3.36;-12.09;263.18;13.42;-118.07;5.0;987.21;53.759;35.95671;-83.924286;802.47;NaN;;4.39;12.226105;203.3;13 / 18;152527;2022-10-12 12:12:49:701
10.1306;-0.2704;-3.6799;7.6686;5.4677;-2.7325;-3.3145;-8.327;-0.4856;-1.3032;0.1482;1.6687;14609.0;-34.63;-7.91;-10.93;293.65;-33.89;-109.61;5.0;987.16;61.527;35.95671;-83.924286;802.47;NaN;;4.39;12.226105;203.3;13 / 18;153026;2022-10-12 12:12:50:200
17.7416;3.2345;1.8781;9.5344;-0.7881;-2.1552;6.6811;3.3577;4.4261;-0.3887;-0.5779;0.3174;2933.0;-38.42;-1.39;-14.14;252.97;11.47;-106.56;5.0;987.24;54.484;35.956703;-83.92429;799.37;NaN;;4.25;12.226105;191.7;13 / 18;153526;2022-10-12 12:12:50:700
10.0193;-1.7237;-1.8338;8.3165;4.9371;-1.622;-1.9125;-7.9191;-1.2658;-0.5001;-0.4206;1.3341;38351.0;-36.26;-6.66;-16.59;296.5;-30.37;-97.78;5.0;987.19;62.214;35.956703;-83.92429;799.37;NaN;;4.25;12.226105;191.7;13 / 18;154026;2022-10-12 12:12:51:200
15.1881;1.5084;0.2644;8.761;-3.2856;-2.9359;8.6131;3.6063;3.9438;-0.2488;1.6081;-2.1264;3194.0;-36.53;-1.39;-15.15;245.16;26.9;-114.25;5.0;987.23;60.473;35.95669;-83.9243;798.82;NaN;;4.54;12.226105;206.4;14 / 18;154525;2022-10-12 12:12:51:699
7.672;-2.5208;-1.9223;9.2859;2.6128;-1.7654;-2.476;-6.6012;-0.0554;-0.5897;-0.1281;0.6386;5984.0;-37.33;-5.64;-15.11;278.29;-15.45;-100.76;5.0;987.21;56.334;35.95669;-83.9243;798.82;NaN;;4.54;12.226105;206.4;14 / 18;155027;2022-10-12 12:12:52:201
17.1383;-2.3127;-1.5861;8.5696;-4.0332;-2.5427;4.1269;4.6466;0.4367;-0.3704;0.6249;-0.4171;2548.0;-40.31;-2.7;-11.92;233.23;24.28;-106.53;5.0;987.19;53.934;35.956684;-83.92431;798.62;NaN;;4.9;12.226105;222.5;14 / 18;155526;2022-10-12 12:12:52:700
11.7682;-1.9152;-3.1675;9.4454;2.1746;-1.492;0.0554;-5.2817;-2.1395;0.2524;-0.4878;-0.1983;2797.0;-38.53;-6.86;-13.26;276.7;-14.13;-98.28;5.0;987.19;51.632;35.956684;-83.92431;798.62;NaN;;4.9;12.226105;222.5;14 / 18;156027;2022-10-12 12:12:53:201
14.3527;2.5319;-0.7816;8.9614;-2.0809;-3.3961;0.6737;3.7604;3.2277;-0.5773;-0.3819;1.0781;3064.0;-38.19;-11.76;-12.06;236.62;4.66;-106.38;5.0;987.17;55.882;35.95668;-83.92433;798.8;NaN;;4.07;12.226105;229.8;13 / 18;156526;2022-10-12 12:12:53:700
9.4232;-1.8063;-3.0787;9.1358;2.7333;-2.2885;-2.0486;-4.7976;0.0075;-0.356;-0.2705;0.1571;3448.0;-37.8;-7.54;-12.0;273.82;-15.3;-102.95;5.0;987.21;55.939;35.95668;-83.92433;798.8;NaN;;4.07;12.226105;229.8;13 / 18;157027;2022-10-12 12:12:54:201
13.838;4.8123;0.1651;9.0634;-2.3591;-2.9087;0.1957;3.1234;1.5703;-1.0358;-0.195;1.7137;3292.0;-38.53;-8.7;-11.31;233.02;13.92;-107.79;5.0;987.21;54.087;35.956673;-83.92434;798.18;NaN;;4.75;12.226105;213.0;13 / 18;157526;2022-10-12 12:12:54:700
3.7289;-4.5547;-4.1369;8.5365;4.5886;-1.4981;-0.6466;-6.897;-1.5259;-0.2579;-0.0212;-1.1204;7176.0;-37.09;3.36;-14.81;307.43;-14.95;-91.72;5.0;987.18;57.328;35.956673;-83.92434;798.18;NaN;;4.75;12.226105;213.0;13 / 18;158026;2022-10-12 12:12:55:200
10.3208;3.122;1.2162;8.7972;-2.6883;-3.399;2.2702;3.6539;4.4019;-0.6421;-0.9394;1.444;7637.0;-35.64;-3.3;-13.95;247.64;15.91;-111.13;5.0;987.21;54.016;35.956665;-83.92434;797.05;NaN;;4.14;12.226105;201.0;14 / 18;158527;2022-10-12 12:12:55:701
8.0836;-2.8394;-4.8194;7.8873;5.2142;-2.6024;1.3805;-10.2429;0.2696;2.4354;-1.1779;-3.2282;24263.0;-34.56;7.01;-9.71;316.99;-32.12;-108.26;5.0;987.19;55.505;35.956665;-83.92434;797.05;NaN;;4.14;12.226105;201.0;14 / 18;159028;2022-10-12 12:12:56:202
12.9521;2.0136;-1.9992;7.5763;-3.5784;-5.0956;5.7383;5.3615;2.8726;-2.7209;0.3669;3.2324;16950.0;-34.73;-15.17;-8.16;217.69;17.02;-107.39;5.0;987.18;59.062;35.95666;-83.924355;795.65;NaN;;5.15;12.226105;235.8;15 / 18;159527;2022-10-12 12:12:56:701
6.1265;-3.9036;-3.0464;8.5917;4.4534;-1.5876;3.7842;-9.6199;-1.1541;3.2152;0.2019;-3.4343;19619.0;-37.35;11.79;-7.52;317.36;-2.95;-97.44;5.0;987.15;53.785;35.95666;-83.924355;795.65;NaN;;5.15;12.226105;235.8;15 / 18;160026;2022-10-12 12:12:57:200
14.8974;4.0496;-2.0363;6.8597;-5.6938;-4.086;8.4399;5.5424;0.4657;-0.596;0.0492;1.5832;15712.0;-35.23;-19.74;-9.58;221.51;18.18;-115.94;5.0;987.21;57.195;35.95665;-83.92436;793.78;NaN;;4.36;12.226105;214.2;15 / 18;160526;2022-10-12 12:12:57:700
5.2837;-3.8222;-2.0901;9.0705;3.1434;-2.0037;4.519;-10.6535;-0.1166;2.3699;-0.3599;-3.8217;18223.0;-36.82;6.79;-11.55;311.42;-18.7;-102.46;5.0;987.17;54.441;35.95665;-83.92436;793.78;NaN;;4.36;12.226105;214.2;15 / 18;161026;2022-10-12 12:12:58:200
16.7204;-2.1511;-7.0074;6.0066;-7.7114;-0.7914;10.726;0.9944;-1.3151;3.468;-2.8868;3.7198;27819.002;-32.48;-18.08;-12.71;206.17;51.84;-97.51;5.0;987.18;56.199;35.956642;-83.92438;794.32;NaN;;4.86;12.226105;244.2;14 / 18;161526;2022-10-12 12:12:58:700
10.0074;-7.8311;1.7991;8.9787;-1.7097;-3.554;4.7303;-8.0439;6.3453;-1.393;0.8801;-3.3315;6812.0;-37.01;7.03;-2.77;273.79;10.04;-111.6;5.0;987.2;56.987;35.956642;-83.92438;794.32;NaN;;4.86;12.226105;244.2;14 / 18;162026;2022-10-12 12:12:59:200
19.7919;-7.9854;-5.243;8.5822;-4.4027;-1.7699;7.5822;-7.1762;0.4048;-3.1887;2.9035;4.6825;6605.0;-26.4;-29.38;12.45;177.32;-6.35;-112.37;5.0;987.2;57.091;35.95663;-83.92438;794.05;NaN;;6.01;12.226105;192.3;14 / 18;162526;2022-10-12 12:12:59:700
16.3098;-11.7191;-1.2999;9.7019;-1.2324;0.7246;9.5764;-8.6994;0.063;5.1654;0.3526;-4.5217;11178.0;-35.57;11.18;-3.45;241.39;34.52;-112.73;5.0;987.18;58.172;35.95663;-83.92438;794.05;NaN;;6.01;12.226105;192.3;14 / 18;163027;2022-10-12 12:13:00:201
17.7356;-5.286;0.8895;9.6082;-0.1937;-1.9534;-1.4298;-6.1361;1.0651;-2.9586;-0.1175;4.9689;12484.0;-28.54;-27.06;-5.44;201.19;1.13;-101.49;5.0;987.19;60.675;35.956623;-83.924385;795.64;NaN;;4.0;12.226105;207.9;16 / 18;163526;2022-10-12 12:13:00:700
17.4218;-10.844;1.1109;9.2952;-3.0674;-0.6005;8.385;-2.3378;1.8861;3.3735;1.6995;-4.3455;5160.0;-33.24;4.8;-8.81;246.95;39.72;-122.67;5.0;987.23;57.553;35.956623;-83.924385;795.64;NaN;;4.0;12.226105;207.9;16 / 18;164026;2022-10-12 12:13:01:200
12.0613;-2.843;-2.4885;9.3601;1.6296;-2.4299;-3.8155;-7.7853;-0.5163;-2.0383;0.5686;3.6228;21226.0;-30.9;-18.64;-8.03;227.8;-9.57;-104.55;5.0;987.2;60.08;35.956615;-83.924385;795.55;NaN;;4.07;12.226105;216.2;16 / 18;164526;2022-10-12 12:13:01:700
17.3668;-6.7406;1.9789;9.2439;-3.129;-0.9649;6.6963;1.3692;2.1334;1.5022;1.9904;-3.3674;4290.0;-36.28;6.81;-11.02;253.22;18.61;-95.96;5.0;987.22;51.457;35.956615;-83.924385;795.55;NaN;;4.07;12.226105;216.2;16 / 18;165027;2022-10-12 12:13:02:201
15.6084;-5.5675;-1.6041;9.2339;-2.8998;-1.5803;4.1048;-2.1807;0.9036;-1.1472;-0.5183;3.0943;38262.0;-34.74;-18.86;-12.15;234.94;-9.42;-102.61;5.0;987.19;49.515;35.95661;-83.92439;796.57;NaN;;4.21;12.226105;228.2;16 / 18;165527;2022-10-12 12:13:02:701
12.9365;-10.0481;0.5076;8.1313;-5.1866;-1.7754;9.4219;0.4927;3.6985;1.362;1.9948;-3.3374;4599.0;-35.06;7.91;-9.84;246.93;44.63;-121.86;5.0;987.23;50.175;35.95661;-83.92439;796.57;NaN;;4.21;12.226105;228.2;16 / 18;166026;2022-10-12 12:13:03:200
13.1519;-6.105;0.9829;9.4027;-2.3859;-1.4378;-0.9018;-4.6039;0.2684;-1.0538;0.8022;3.393;38844.0;-36.17;-10.37;-12.94;259.39;-10.89;-99.63;5.0;987.21;50.385;35.956604;-83.9244;795.21;NaN;;4.25;12.226105;214.4;17 / 18;166527;2022-10-12 12:13:03:701
12.3105;-8.7063;0.8919;7.5255;-5.5418;-2.9708;9.6346;3.279;4.0401;-0.5941;2.2605;-2.394;4488.0;-35.72;12.53;-11.19;255.84;34.41;-111.54;5.0;987.23;48.45;35.956604;-83.9244;795.21;NaN;;4.25;12.226105;214.4;17 / 18;167026;2022-10-12 12:13:04:200
14.8349;-4.6516;-1.3561;9.7076;-0.5639;-1.2706;-2.7939;-6.9125;-1.9543;-1.4492;0.8643;3.6497;43397.0;-34.46;-17.4;-14.81;225.73;3.3;-97.46;5.0;987.19;50.889;35.956596;-83.924416;794.29;NaN;;4.32;12.226105;227.8;18 / 18;167527;2022-10-12 12:13:04:701
13.4022;-6.8662;0.6811;7.7063;-5.5527;-2.4396;8.461;5.1361;2.2542;-0.5152;1.7805;-2.0266;4622.0;-35.55;4.61;-13.74;241.92;34.49;-107.57;5.0;987.24;49.715;35.956596;-83.924416;794.29;NaN;;4.32;12.226105;227.8;18 / 18;168026;2022-10-12 12:13:05:200
12.6841;-4.9929;-1.4833;9.7741;-0.2939;-0.7426;-3.6107;-6.9185;-0.0305;-0.9202;1.0257;3.5265;47771.0;-34.87;-13.76;-15.09;261.69;-18.72;-100.38;5.0;987.2;50.122;35.956593;-83.92442;795.4;NaN;;4.25;12.226105;237.4;18 / 18;168527;2022-10-12 12:13:05:701
14.4126;-6.1385;-0.0598;9.7083;-0.9036;-1.0497;6.7513;-4.9881;2.2236;2.1816;1.2451;-3.9501;5005.0;-36.3;10.29;-11.4;255.92;30.74;-113.22;5.0;987.24;50.164;35.956593;-83.92442;795.4;NaN;;4.25;12.226105;237.4;18 / 18;169026;2022-10-12 12:13:06:200
13.2897;-1.8159;-3.1962;9.4918;1.6228;-1.8556;-4.6081;-5.8874;0.2906;-0.1976;0.0418;3.6591;37204.0;-33.07;-22.87;-12.39;225.65;-9.53;-101.06;5.0;987.2;51.364;35.95659;-83.92444;797.42;NaN;;4.18;12.421686;234.4;18 / 18;169526;2022-10-12 12:13:06:700
15.2599;-4.823;1.2712;9.7257;-0.3051;-1.2197;7.1414;-1.9205;1.6668;1.0406;0.8559;-3.9247;4474.0;-38.32;-0.32;-12.88;232.65;29.87;-104.24;5.0;987.25;53.906;35.95659;-83.92444;797.42;NaN;;4.18;12.421686;234.4;18 / 18;170027;2022-10-12 12:13:07:201
12.0855;-1.6149;-3.4834;9.2326;2.164;-2.4994;-3.7076;-6.8982;0.2063;-0.5132;0.2039;3.178;34320.0;-32.4;-24.6;-10.61;226.2;-12.75;-105.15;5.0;987.18;54.642;35.956585;-83.924446;797.52;NaN;;4.5;12.528211;223.6;18 / 18;170527;2022-10-12 12:13:07:701
14.2448;-3.4499;0.6236;9.7974;0.1361;-0.4028;6.4026;1.6198;5.6964;2.8455;2.6456;-1.8156;6485.0;-39.84;3.41;-13.31;283.63;-0.8;-92.35;5.0;987.21;56.013;35.956585;-83.924446;797.52;NaN;;4.5;12.528211;223.6;18 / 18;171026;2022-10-12 12:13:08:200
14.4784;-1.4809;-0.5734;9.7077;-0.2194;-1.3721;3.6835;-0.8194;2.1352;-2.0017;-1.109;2.9108;83016.0;-30.45;-20.25;-22.8;255.77;-24.5;-91.9;5.0;987.22;57.226;35.95658;-83.92446;796.95;NaN;;4.21;12.45884;233.4;18 / 18;171526;2022-10-12 12:13:08:700
16.7611;-4.2772;2.6216;9.4107;-2.4214;-1.3215;8.4193;2.5644;3.3411;0.3144;1.3437;-2.7537;4781.0;-37.5;2.03;-17.44;243.62;29.44;-106.55;5.0;987.21;50.086;35.95658;-83.92446;796.95;NaN;;4.21;12.45884;233.4;18 / 18;172026;2022-10-12 12:13:09:200
13.9193;-0.8115;-1.0044;9.6916;0.5138;-1.4066;0.9597;-1.9189;0.6576;-0.3158;-0.4304;2.8229;61073.0;-33.75;-17.38;-19.2;265.36;-25.67;-98.2;5.0;987.21;49.008;35.956577;-83.92448;797.01;NaN;;4.43;12.332656;237.2;18 / 18;172527;2022-10-12 12:13:09:701
15.0661;-4.113;0.8859;8.7229;-3.5878;-2.6852;5.8699;5.2901;2.7258;-0.4426;0.9786;-1.5069;4531.0;-38.89;5.51;-15.36;255.99;21.46;-107.11;5.0;987.24;48.671;35.956577;-83.92448;797.01;NaN;;4.43;12.332656;237.2;18 / 18;173026;2022-10-12 12:13:10:200
9.4519;-3.1938;-1.0642;9.6792;1.4094;-0.7045;-1.6158;-6.3886;-1.8089;-1.4006;-0.1593;3.222;70670.0;-34.56;-16.95;-22.22;243.82;-8.26;-94.16;5.0;987.21;51.305;35.956573;-83.9245;796.6;NaN;;4.32;12.512876;234.7;18 / 18;173527;2022-10-12 12:13:10:701
18.6787;-5.4179;2.1057;7.2377;-5.4259;-3.7877;5.203;6.2143;5.8798;-0.2431;0.517;-0.0985;5240.0;-38.4;1.16;-17.47;247.65;33.59;-117.62;5.0;987.24;50.494;35.956573;-83.9245;796.6;NaN;;4.32;12.512876;234.7;18 / 18;174027;2022-10-12 12:13:11:201
6.4101;-0.6906;-2.3928;8.7694;4.2855;-0.9496;-4.0055;-5.7225;2.0758;0.8464;-0.0186;1.6661;69856.0;-33.32;-10.78;-17.81;286.83;-27.31;-89.75;5.0;987.19;54.041;35.956566;-83.92451;795.23;NaN;;4.46;12.226105;220.5;18 / 18;174527;2022-10-12 12:13:11:701
9.5704;1.2688;-0.5865;9.5371;-2.0859;-0.929;1.2821;2.3191;2.7663;-0.3073;0.3307;-0.1652;65631.0;-37.11;-13.13;-19.31;228.58;12.97;-96.64;5.0;987.23;57.413;35.956566;-83.92451;795.23;NaN;;4.46;12.226105;220.5;18 / 18;175026;2022-10-12 12:13:12:200
6.288;-1.0223;-2.3629;9.2346;3.3;-0.053;0.4884;-2.8463;-3.3143;0.3521;-0.088;-1.3139;54231.0;-37.57;-3.43;-23.21;293.13;-19.66;-90.33;5.0;987.19;52.435;35.95656;-83.92452;797.13;NaN;;4.57;12.226105;245.0;18 / 18;175526;2022-10-12 12:13:12:700
6.2928;5.164;4.5858;9.3384;-2.2474;-1.9783;4.5342;9.4343;1.269;-0.8799;0.379;0.6946;15604.0;-38.34;-11.34;-19.67;243.3;4.86;-101.82;5.0;987.21;50.087;35.95656;-83.92452;797.13;NaN;;4.57;12.226105;245.0;18 / 18;176026;2022-10-12 12:13:13:200
4.4219;-9.1525;0.0036;9.4556;2.5992;-0.082;1.2881;-6.7701;-1.8286;-0.7947;0.8469;-2.6277;6397.0;-38.31;9.41;-17.25;317.2;-15.37;-90.5;5.0;987.2;49.443;35.956554;-83.92453;795.8;NaN;;4.25;12.226105;243.0;18 / 18;176527;2022-10-12 12:13:13:701
18.1555;0.1208;-0.1256;7.5535;-6.0043;-1.7503;7.62;8.4795;-2.187;0.4251;-1.0876;-1.1852;5140.0;-39.41;4.5;-20.19;239.68;37.75;-103.05;5.0;987.23;50.013;35.956554;-83.92453;795.8;NaN;;4.25;12.226105;243.0;18 / 18;177027;2022-10-12 12:13:14:201
5.8666;-6.0799;-7.229;9.5824;0.0757;-2.0839;-4.0106;-4.1697;-1.8145;0.8996;0.4874;0.523;24399.0;-40.09;-16.35;-8.68;247.98;-13.09;-103.18;5.0;987.18;50.147;35.95655;-83.924545;796.41;NaN;;4.1;12.226105;247.6;18 / 18;177526;2022-10-12 12:13:14:700
12.7582;0.7361;-1.9307;7.7586;-5.711;-1.8325;0.0543;5.1137;1.0153;-0.4245;-0.1336;1.2148;19443.0;-41.7;-12.13;-10.14;208.94;27.4;-98.49;5.0;987.19;54.15;35.95655;-83.924545;796.41;NaN;;4.1;12.226105;247.6;18 / 18;178025;2022-10-12 12:13:15:199
3.827;-5.2394;-3.0021;9.106;3.1073;-1.8962;-4.9951;-8.3534;-1.3436;-1.3691;-0.3714;1.2483;41034.0;-38.38;-5.76;-16.33;284.8;-18.63;-98.15;5.0;987.19;62.781;35.956547;-83.92456;797.94;NaN;;4.39;12.226105;232.7;18 / 18;178526;2022-10-12 12:13:15:700
13.2024;3.9407;-0.5542;7.4002;-5.7815;-2.8252;5.9272;10.2254;2.7318;-0.3532;0.3841;-0.2818;7886.0;-38.76;-3.99;-14.49;231.11;36.12;-110.9;5.0;987.23;63.539;35.956547;-83.92456;797.94;NaN;;4.39;12.226105;232.7;18 / 18;179027;2022-10-12 12:13:16:201
7.0328;-7.7904;-3.0897;7.9771;4.8877;-2.9405;-4.4112;-10.4416;-0.432;-1.2141;-0.3058;1.912;29188.998;-33.79;-17.66;-13.76;265.14;-29.89;-110.23;5.0;987.18;51.22;35.956543;-83.924576;798.05;NaN;;4.18;12.226105;243.4;18 / 18;179526;2022-10-12 12:13:16:700
17.8241;0.5483;2.0303;7.6885;-4.7732;-3.778;7.8569;4.556;7.2295;-0.6137;-0.781;1.3252;6567.0;-35.46;-7.42;-10.58;238.11;30.97;-123.84;5.0;987.23;61.907;35.956543;-83.924576;798.05;NaN;;4.18;12.226105;243.4;18 / 18;180027;2022-10-12 12:13:17:201
7.4288;-4.617;-0.9517;8.6027;4.3785;-1.7298;-3.8644;-9.4825;-1.0086;-0.4967;-0.2185;0.5356;38813.0;-34.22;1.61;-15.51;304.29;-26.52;-101.37;5.0;987.17;62.805;35.95654;-83.92458;798.92;NaN;;4.21;12.226105;248.6;18 / 18;180526;2022-10-12 12:13:17:700
16.9334;-1.0834;3.8234;7.767;-4.1183;-4.3454;7.7952;3.8182;6.8256;0.5109;1.0936;-1.3916;8770.0;-37.22;1.61;-13.41;252.27;34.08;-127.18;5.0;987.23;63.863;35.95654;-83.92458;798.92;NaN;;4.21;12.226105;248.6;18 / 18;181026;2022-10-12 12:13:18:200
4.6959;-10.0612;-3.1675;8.4475;4.3828;2.3664;0.1302;-8.4121;-9.7484;-0.8115;-1.0411;-1.4669;39050.0;-33.96;-2.03;-20.98;324.29;-26.55;-74.35;5.0;987.19;63.965;35.956535;-83.9246;799.74;NaN;;4.07;12.226105;245.0;18 / 18;181527;2022-10-12 12:13:18:701
18.0467;-1.835;6.7956;7.1793;-5.4009;-3.9317;8.9817;6.2934;9.3044;1.9883;1.1968;-1.4922;7351.0;-34.31;3.21;-18.64;259.06;37.11;-127.48;5.0;987.21;62.841;35.956535;-83.9246;799.74;NaN;;4.07;12.226105;245.0;18 / 18;182026;2022-10-12 12:13:19:200
4.7593;-4.7859;-2.1547;8.0972;5.2911;-1.6156;-0.7332;-11.158;0.2535;-0.3991;0.2305;-1.4632;37731.0;-33.53;-0.9;-15.62;304.68;-32.65;-101.28;5.0;987.19;62.935;35.956535;-83.92461;800.19;NaN;;4.07;12.226105;240.7;18 / 18;182527;2022-10-12 12:13:19:701
18.6524;3.6547;-0.1615;7.0326;-6.461;-2.229;5.3633;9.6712;-2.3795;-0.3187;-0.6699;-0.5966;6508.0;-36.19;-0.04;-20.49;238.11;41.21;-107.59;5.0;987.2;63.599;35.956535;-83.92461;800.19;NaN;;4.07;12.226105;240.7;18 / 18;183026;2022-10-12 12:13:20:200
7.1082;-5.2322;-1.8182;8.3275;4.8591;-1.7921;-6.1269;-10.7127;0.7923;0.1359;-0.2061;-2.823;42477.0;-35.38;-14.94;-18.88;283.64;-35.43;-99.55;5.0;987.17;66.579;35.95653;-83.92462;800.3;NaN;;4.14;12.226105;249.2;18 / 18;183526;2022-10-12 12:13:20:700
17.9928;0.3293;3.0655;7.5978;-5.3745;-3.0916;5.7177;10.7513;3.3031;-1.1847;0.4347;0.0635;6393.0;-35.38;-11.42;-18.37;229.06;28.16;-105.78;5.0;987.22;49.656;35.95653;-83.92462;800.3;NaN;;4.14;12.226105;249.2;18 / 18;184026;2022-10-12 12:13:21:200
9.2892;-6.4484;-1.7859;8.4137;4.782;-1.5852;-1.4645;-8.1355;-0.6854;-1.1792;-0.9971;0.9035;40281.0;-34.91;-5.53;-18.24;292.53;-30.63;-102.11;5.0;987.22;53.602;35.956528;-83.92464;801.46;NaN;;4.97;12.226105;237.7;18 / 18;184526;2022-10-12 12:13:21:700
18.7325;1.634;-1.1743;7.4501;-4.5362;-4.4822;4.6108;7.4134;7.6339;0.7946;-0.8379;0.2902;5540.0;-39.9;-1.35;-9.26;242.75;27.55;-121.03;5.0;987.23;53.144;35.956528;-83.92464;801.46;NaN;;4.97;12.226105;237.7;18 / 18;185026;2022-10-12 12:13:22:200
8.8104;-7.0603;-4.4231;8.692;4.5328;0.2691;-6.003;-10.5795;-2.9491;-0.1238;-1.8019;2.0424;42741.0;-34.28;-9.69;-20.49;290.62;-27.53;-88.23;5.0;987.2;57.611;35.95652;-83.92466;802.34;NaN;;4.9;12.226105;233.6;18 / 18;185527;2022-10-12 12:13:22:701
16.4928;-1.392;3.5779;8.0901;-3.9044;-3.934;5.4315;4.3301;6.8298;-1.5219;0.1029;0.669;4386.0;-36.04;-3.66;-17.33;249.82;29.72;-126.3;5.0;987.24;56.446;35.95652;-83.92466;802.34;NaN;;4.9;12.226105;233.6;18 / 18;186027;2022-10-12 12:13:23:201
5.965;-5.7757;-3.2477;8.2634;4.7863;2.2311;-2.2532;-8.5794;-5.0412;0.0141;-0.7438;0.0529;48772.0;-33.34;0.9;-20.01;330.56;-29.21;-74.89;5.0;987.22;53.565;35.956516;-83.924675;803.03;NaN;;4.46;12.226105;241.3;17 / 18;186527;2022-10-12 12:13:23:701
13.2634;-3.7995;7.6158;9.3927;-1.6943;-2.2531;-1.2605;0.8564;10.0275;1.1977;1.0458;0.3219;3265.0;-34.41;2.78;-18.09;270.58;5.81;-108.04;5.0;987.29;57.515;35.956516;-83.924675;803.03;NaN;;4.46;12.226105;241.3;17 / 18;187026;2022-10-12 12:13:24:200
4.2784;-3.5061;-4.1668;7.306;6.256;1.9119;0.4593;-9.3938;-5.5766;0.1766;0.0489;-0.9014;21430.0;-25.46;-9.49;-25.07;305.07;-39.64;-75.34;5.0;987.2;56.471;35.956512;-83.92469;802.81;NaN;;4.61;12.226105;257.6;17 / 18;187526;2022-10-12 12:13:24:700
12.8851;-5.1449;12.6685;9.772;-0.7823;0.259;-1.6896;-1.6453;9.9997;0.1025;0.2821;0.7179;6054.0;-21.34;-5.7;-31.16;256.05;1.36;-79.5;5.0;987.25;56.492;35.956512;-83.92469;802.81;NaN;;4.61;12.226105;257.6;17 / 18;188026;2022-10-12 12:13:25:200
10.1163;-2.0997;-3.1208;8.3842;4.2876;2.7372;-1.5008;-5.1489;-7.1891;0.3034;-0.1406;-0.5816;4077.0;-26.1;2.93;-28.5;311.81;-25.93;-71.92;5.0;987.21;61.2;35.956512;-83.924706;801.0;NaN;;4.61;12.226105;238.0;17 / 18;188526;2022-10-12 12:13:25:700
17.1646;3.4522;7.7378;9.22;-2.2535;-2.4666;2.2609;6.4251;5.2573;-0.9638;0.4854;0.4519;2353.0;-31.37;2.1;-27.07;264.42;13.29;-104.98;5.0;987.22;52.757;35.956512;-83.924706;801.0;NaN;;4.61;12.226105;238.0;17 / 18;189026;2022-10-12 12:13:26:200
6.1158;-2.4837;-1.0068;9.3921;2.7863;-0.4412;-0.3792;-7.3565;-1.0975;-0.6896;0.2892;-0.4003;1769.0;-26.49;-15.79;-21.3;263.56;-29.11;-97.27;5.0;987.22;56.167;35.95651;-83.92471;799.68;NaN;;4.14;12.226105;239.6;17 / 18;189525;2022-10-12 12:13:26:699
19.2628;-1.9152;7.4384;8.6116;-3.6765;-2.9143;2.6428;6.3802;5.776;-1.5532;0.4755;0.4435;1226.0;-27.24;-10.5;-21.15;237.57;18.53;-101.67;5.0;987.25;49.385;35.95651;-83.92471;799.68;NaN;;4.14;12.226105;239.6;17 / 18;190026;2022-10-12 12:13:27:200
9.6745;-3.5994;-3.8366;9.066;3.3228;-1.7138;-4.0447;-8.6775;0.4423;-0.0713;-2.004;2.7203;1519.0;-25.57;-4.61;-20.47;286.58;-28.2;-96.3;5.0;987.2;50.434;35.956505;-83.92473;798.55;NaN;;4.54;12.226105;244.0;17 / 18;190526;2022-10-12 12:13:27:700
14.4018;-3.2453;1.9068;8.0937;-2.964;-4.6772;7.53;7.5476;5.3096;-1.8496;1.7732;-0.4229;1190.0;-30.71;4.35;-11.19;263.99;17.59;-120.02;5.0;987.28;50.023;35.956505;-83.92473;798.55;NaN;;4.54;12.226105;244.0;17 / 18;191027;2022-10-12 12:13:28:201
8.5026;-6.865;-3.4774;9.095;2.5346;-2.6508;-2.8775;-6.6892;-0.7035;0.3157;-0.3133;1.6417;1054.0;-34.43;-11.57;-13.78;259.71;-14.98;-106.25;5.0;987.24;52.019;35.956505;-83.924736;799.19;NaN;;4.32;12.226105;255.0;17 / 18;191526;2022-10-12 12:13:28:700
15.0075;2.1679;4.4901;9.3928;-2.4932;-1.3154;7.218;1.5354;7.4079;-2.8671;0.4864;1.0281;991.0;-37.31;-5.08;-9.92;243.6;16.69;-117.52;5.0;987.27;49.019;35.956505;-83.924736;799.19;NaN;;4.32;12.226105;255.0;17 / 18;192028;2022-10-12 12:13:29:202
7.095;-4.0436;-1.998;9.491;2.4381;0.3842;-2.6689;-5.9173;-2.8094;-1.6978;-0.6261;1.2783;1113.0;-33.79;-2.32;-20.61;288.92;-14.4;-87.68;5.0;987.26;52.267;35.9565;-83.92475;799.16;NaN;;4.57;12.226105;248.0;17 / 18;192526;2022-10-12 12:13:29:700
14.6399;0.6212;4.8362;9.3862;-2.6718;-0.9643;7.4377;0.9752;6.1303;2.2032;2.1663;-2.0319;1059.0;-36.96;7.63;-17.44;263.69;21.37;-109.73;5.0;987.26;51.046;35.9565;-83.92475;799.16;NaN;;4.57;12.226105;248.0;17 / 18;193026;2022-10-12 12:13:30:200
8.3973;-6.2258;-1.8338;9.1737;2.2371;-2.6473;-5.4129;-7.7027;-2.8605;-2.8788;-0.272;3.4698;1086.0;-37.48;-12.58;-18.64;258.6;-13.19;-106.1;5.0;987.23;51.481;35.956493;-83.92476;799.77;NaN;;4.64;12.226105;231.5;17 / 18;193527;2022-10-12 12:13:30:701
15.2408;-1.3131;4.8446;8.2219;-4.5414;-2.819;7.3115;3.0688;7.1409;2.7994;0.0829;-2.1775;860.0;-38.7;8.18;-11.59;255.26;33.6;-122.02;5.0;987.24;49.679;35.956493;-83.92476;799.77;NaN;;4.64;12.226105;231.5;17 / 18;194027;2022-10-12 12:13:31:201
10.2826;-2.8956;-5.388;9.1195;3.4575;-1.0248;-2.2637;-9.6745;0.2178;1.9443;-1.2559;1.1538;978.0;-37.41;-3.94;-17.61;291.13;-20.64;-96.41;5.0;987.22;55.894;35.956486;-83.92477;798.26;NaN;;4.61;12.226105;232.2;17 / 18;194526;2022-10-12 12:13:31:700
14.3934;-1.6436;2.5666;8.5352;-4.0423;-2.6419;2.2134;3.9364;4.4557;-0.8963;0.0063;0.3507;1708.0;-41.1;-1.71;-15.69;239.7;24.34;-107.2;5.0;987.25;50.816;35.956486;-83.92477;798.26;NaN;;4.61;12.226105;232.2;17 / 18;195026;2022-10-12 12:13:32:200
7.8622;-4.4231;0.5351;9.7797;-0.5695;-0.4501;-0.1743;-4.5591;-1.7006;-0.3641;-0.4281;-0.3218;1768.0;-40.73;0.51;-19.48;278.04;-2.86;-93.1;5.0;987.23;49.457;35.95648;-83.92478;799.79;NaN;;4.43;12.226105;234.4;17 / 18;195526;2022-10-12 12:13:32:700
16.0202;-1.0762;2.2014;7.7727;-5.0847;-3.1467;6.0865;5.6862;3.674;-0.9743;0.493;-0.4168;1005.0;-39.36;4.09;-18.81;244.79;29.64;-103.69;5.0;987.23;49.655;35.95648;-83.92478;799.79;NaN;;4.43;12.226105;234.4;17 / 18;196026;2022-10-12 12:13:33:200
9.082;-5.3148;-1.2951;9.6397;0.633;-1.6872;-1.2042;-6.7178;-1.2683;-1.5683;-0.3051;3.1461;1062.0;-37.12;-4.82;-18.96;283.43;-17.51;-97.02;5.0;987.21;54.016;35.95647;-83.9248;800.81;NaN;;4.5;12.226105;241.0;18 / 18;196527;2022-10-12 12:13:33:701
17.7177;-6.6927;2.4514;5.6126;-7.2207;-3.54;10.9212;5.7104;7.5673;1.7009;-0.5549;-1.3401;995.0;-34.93;13.44;-13.41;255.1;47.42;-122.24;5.0;987.28;49.306;35.95647;-83.9248;800.81;NaN;;4.5;12.226105;241.0;18 / 18;197027;2022-10-12 12:13:34:201
10.3591;-4.6851;-3.3087;9.5035;1.2383;-2.0786;-2.8912;-8.6995;0.046;0.0419;0.1994;2.9522;1027.0;-34.89;-14.57;-17.46;245.41;-7.25;-102.34;5.0;987.18;56.638;35.95647;-83.924805;801.5;NaN;;4.61;12.226105;240.8;18 / 18;197526;2022-10-12 12:13:34:700
17.435;-7.4563;1.9415;9.2026;-3.2604;-0.9233;5.5806;0.673;3.1467;-1.6721;2.3772;-0.7016;1085.0;-37.39;-2.59;-11.57;237.46;36.32;-118.99;5.0;987.25;55.115;35.95647;-83.924805;801.5;NaN;;4.61;12.226105;240.8;18 / 18;198026;2022-10-12 12:13:35:200
11.1482;-6.6221;0.553;9.657;0.5021;-1.6314;-4.4938;-7.477;-0.9347;-2.6292;0.0085;3.3916;1263.0;-31.65;-10.8;-17.64;247.58;-2.93;-99.59;5.0;987.24;56.13;35.956463;-83.92483;801.95;NaN;;4.61;12.226105;239.8;18 / 18;198526;2022-10-12 12:13:35:700
17.1093;-4.6552;1.579;8.717;-4.2192;-1.5435;7.2759;0.7124;4.4936;2.8943;0.8417;-3.8231;976.0;-25.57;10.48;-19.93;271.29;41.55;-124.26;5.0;987.23;59.898;35.956463;-83.92483;801.95;NaN;;4.61;12.226105;239.8;18 / 18;199027;2022-10-12 12:13:36:201
13.8535;-4.3131;-3.2154;9.1234;2.7939;-2.2645;-4.407;-9.5769;-1.1253;-0.6865;-0.4641;2.4551;1181.0;-32.46;-10.37;-18.08;265.52;-16.55;-103.94;5.0;987.23;58.43;35.95646;-83.92484;801.38;NaN;;4.93;12.226105;245.3;18 / 18;199526;2022-10-12 12:13:36:700
18.3867;-9.8255;1.3023;8.7156;-4.0521;-1.9464;9.4693;2.1784;7.8032;2.9662;2.4238;-3.9177;1241.0;-33.68;7.46;-12.51;259.5;38.69;-129.26;5.0;987.24;55.832;35.95646;-83.92484;801.38;NaN;;4.93;12.226105;245.3;18 / 18;200027;2022-10-12 12:13:37:201
1.4581;3.3458;4.8864;2.6969;4.1687;8.4569;4.3126;-5.425;-6.4338;-2.2005;3.9712;-0.8111;2268.0;-20.85;-3.62;-27.58;47.79;-25.16;-17.69;5.0;987.22;64.698;35.956455;-83.92486;801.4;NaN;;4.61;12.226105;251.5;18 / 18;200527;2022-10-12 12:13:37:701
1.9427;4.7426;7.7486;2.0863;5.2195;8.0358;-1.6285;2.4404;-1.1823;0.552;-0.0456;0.1325;6347.0;19.31;-14.1;-38.78;281.43;-32.16;-14.55;5.0;987.2;48.207;35.956455;-83.92486;801.4;NaN;;4.61;12.226105;251.5;18 / 18;201027;2022-10-12 12:13:38:201
18.3832;-2.6659;3.14;9.7973;-0.4286;0.0142;9.3023;-2.1689;4.0971;-2.7235;-3.9839;3.0306;6325.0;0.71;-20.64;-34.14;244.94;-25.76;-74.83;5.0;987.24;51.167;35.956455;-83.924866;800.53;NaN;;4.43;12.226105;243.6;18 / 18;201526;2022-10-12 12:13:38:700
15.7543;-6.8662;2.7832;8.9171;-3.4377;-2.1994;7.8166;1.0151;7.4904;2.4273;1.7989;-1.3591;3884.0;-33.45;11.04;-15.51;274.5;21.75;-118.76;5.0;987.22;52.09;35.956455;-83.924866;800.53;NaN;;4.43;12.226105;243.6;18 / 18;202025;2022-10-12 12:13:39:199
13.0825;-3.8067;0.0431;9.7545;-0.1719;-0.9954;-2.1397;-3.6355;0.0639;-0.2724;0.0204;2.7586;4397.0;-35.25;-7.5;-14.81;279.26;-19.91;-99.67;5.0;987.22;58.273;35.956448;-83.92488;801.01;NaN;;4.5;12.226105;238.0;18 / 18;202527;2022-10-12 12:13:39:701
14.8409;-6.7346;1.8051;8.6238;-3.8165;-2.6899;5.7854;4.138;3.9948;-0.5292;1.6669;-0.9102;3396.0;-35.32;10.76;-12.41;266.13;22.9;-107.32;5.0;987.28;54.13;35.956448;-83.92488;801.01;NaN;;4.5;12.226105;238.0;18 / 18;203026;2022-10-12 12:13:40:200
12.8276;-3.7911;0.1208;9.6714;1.6173;-0.1363;-3.5801;-7.9107;-2.8433;-5.255;1.2882;3.5263;38455.0;-33.32;-13.5;-15.56;242.96;-9.49;-90.81;5.0;987.22;60.058;35.95644;-83.92489;798.67;NaN;;4.32;12.226105;232.9;18 / 18;203527;2022-10-12 12:13:40:701
16.5407;-6.2234;3.4056;9.6182;-1.8895;-0.3002;5.1985;0.4153;2.8463;-0.2593;0.6672;-0.3984;5042.0;-33.19;7.16;-12.94;257.73;25.98;-110.83;5.0;987.25;57.846;35.95644;-83.92489;798.67;NaN;;4.32;12.226105;232.9;18 / 18;204026;2022-10-12 12:13:41:200
11.3755;-3.4104;0.449;9.5383;1.6538;-1.5673;-2.6087;-6.4423;-1.086;-1.7435;0.0015;2.9098;47374.0;-35.29;-6.02;-15.08;268.6;-9.71;-99.33;5.0;987.24;58.398;35.956436;-83.924904;798.93;NaN;;4.39;12.226105;245.6;18 / 18;204526;2022-10-12 12:13:41:700
19.3059;-2.8669;4.0089;8.1285;-4.7733;-2.7045;9.6527;0.7046;7.7936;2.2821;3.0392;-3.3209;5037.0;-32.16;17.33;-7.46;275.98;32.47;-125.53;5.0;987.23;58.608;35.956436;-83.924904;798.93;NaN;;4.39;12.226105;245.6;18 / 18;205027;2022-10-12 12:13:42:201
5.8451;-2.7425;-1.9944;8.6626;4.0804;-2.1165;-6.5277;-7.3766;-0.3619;-0.5627;-0.2667;1.2106;30734.0;-33.88;-8.61;-14.04;280.91;-24.59;-103.73;5.0;987.22;60.646;35.956436;-83.92491;801.23;NaN;;4.36;12.226105;258.6;18 / 18;205526;2022-10-12 12:13:42:700
14.8253;0.6823;-1.4282;4.7612;-8.1476;-2.6679;7.1227;10.4206;0.6651;-0.5143;-0.6661;-0.1837;11938.0;-34.44;3.56;-13.26;233.08;52.06;-111.91;5.0;987.24;58.566;35.956436;-83.92491;801.23;NaN;;4.36;12.226105;258.6;18 / 18;206028;2022-10-12 12:13:43:202
2.7221;-7.509;-2.7664;8.7328;4.3443;-1.0173;-0.2564;-12.7679;1.5104;1.4779;0.0024;-2.2888;35457.0;-31.74;7.86;-14.42;319.39;-26.3;-96.64;5.0;987.21;64.233;35.956432;-83.92493;802.51;NaN;;4.32;12.226105;250.4;18 / 18;206525;2022-10-12 12:13:43:699
17.3979;0.5052;0.8704;6.2259;-7.4126;-1.5691;6.8966;10.3504;-5.541;-3.9839;1.3316;0.5403;24785.0;-34.24;-3.68;-17.59;226.78;49.1;-104.15;5.0;987.23;57.227;35.956432;-83.92493;802.51;NaN;;4.32;12.226105;250.4;18 / 18;207026;2022-10-12 12:13:44:200
4.7163;-5.9028;-2.0459;9.1292;3.35;-1.2668;-4.4401;-9.2159;-0.8636;1.9684;-0.6223;-2.2032;35659.0;-33.36;-4.78;-16.58;286.54;-19.59;-94.74;5.0;987.21;65.3;35.956425;-83.924934;802.88;NaN;;4.39;12.226105;242.0;18 / 18;207526;2022-10-12 12:13:44:700
17.0303;-2.4299;3.7217;5.3803;-7.3117;-3.7097;8.1047;6.1444;4.2863;-1.5671;0.2572;1.4141;15393.0;-35.01;-7.71;-13.58;224.83;39.64;-108.47;5.0;987.26;59.262;35.956425;-83.924934;802.88;NaN;;4.39;12.226105;242.0;18 / 18;208027;2022-10-12 12:13:45:201
4.1943;-5.5759;-2.8442;7.235;5.9608;-2.8799;-3.8399;-11.8612;-0.4257;-1.0933;0.2282;-0.8514;20864.0;-30.6;4.5;-13.78;311.59;-25.22;-99.1;5.0;987.22;61.378;35.956417;-83.92494;803.67;NaN;;4.0;12.226105;239.1;17 / 18;208526;2022-10-12 12:13:45:700
11.511;3.3099;5.3521;7.1568;-2.5997;-6.1799;8.6314;3.5998;4.9077;-2.7764;-1.5455;2.0709;9167.0;-34.69;-14.66;-5.02;232.28;15.37;-130.81;5.0;987.25;51.535;35.956417;-83.92494;803.67;NaN;;4.0;12.226105;239.1;17 / 18;209027;2022-10-12 12:13:46:201
6.4786;-7.8179;-6.0811;7.7481;4.8278;-3.5818;-1.4766;-9.692;0.0466;2.0995;0.3373;-1.5991;6804.0;-35.21;-4.74;-6.71;295.07;-29.49;-114.81;5.0;987.22;60.264;35.956413;-83.92496;803.67;NaN;;4.28;12.226105;237.7;17 / 18;209526;2022-10-12 12:13:46:700
11.9943;-0.3293;9.9703;7.4785;-2.4148;-5.866;4.3349;1.0372;13.5849;-5.6341;-0.2601;2.8869;10000.0;-35.25;-13.82;-6.73;233.04;17.45;-127.93;5.0;987.27;53.068;35.956413;-83.92496;803.67;NaN;;4.28;12.226105;237.7;17 / 18;210026;2022-10-12 12:13:47:200
0.7851;-7.0364;-3.8641;7.6165;5.0266;-3.5906;-1.921;-12.3391;0.3019;-0.7179;-0.0735;-1.4327;7052.0;-32.59;7.29;-4.12;319.12;-30.84;-115.24;5.0;987.2;69.745;35.95641;-83.924965;800.93;NaN;;4.39;12.226105;225.9;17 / 18;210527;2022-10-12 12:13:47:701
17.1057;3.0835;6.1863;6.8095;-6.7081;-2.1914;8.0802;9.5063;10.7715;3.0218;-0.9877;-1.258;13945.0;-31.61;0.21;-12.19;244.07;39.0;-121.75;5.0;987.27;53.809;35.95641;-83.924965;800.93;NaN;;4.39;12.226105;225.9;17 / 18;211027;2022-10-12 12:13:48:201
5.5149;-7.6002;-2.8059;8.348;4.9089;-1.5437;-2.6837;-10.7795;0.8704;0.8123;-1.0132;-0.998;22981.0;-30.66;-4.14;-18.47;293.52;-30.04;-100.48;5.0;987.23;58.452;35.9564;-83.92497;798.88;NaN;;4.72;12.226105;248.7;17 / 18;211526;2022-10-12 12:13:48:700
15.9266;1.1408;2.3665;6.6948;-6.3754;-3.2717;6.5143;9.9824;4.3735;-0.9613;0.8563;-0.4468;17646.0;-33.92;-6.41;-15.69;231.07;41.66;-110.79;5.0;987.26;57.569;35.9564;-83.92497;798.88;NaN;;4.72;12.226105;248.7;17 / 18;212027;2022-10-12 12:13:49:201
4.8936;-7.034;-2.3821;8.241;4.6754;-2.5291;-1.2138;-10.5653;1.0384;0.9183;-0.919;-1.4757;33778.0;-31.72;0.6;-16.12;298.18;-28.47;-107.06;5.0;987.25;64.007;35.956394;-83.924995;799.65;NaN;;4.46;12.226105;239.8;17 / 18;212526;2022-10-12 12:13:49:700
19.3995;-5.8992;2.4036;7.3088;-5.9666;-2.6742;6.6227;9.2982;5.5572;0.3799;0.1568;-0.4723;14215.0;-35.4;-3.07;-14.23;232.31;37.48;-110.1;5.0;987.26;56.386;35.956394;-83.924995;799.65;NaN;;4.46;12.226105;239.8;17 / 18;213026;2022-10-12 12:13:50:200
8.8403;-6.3682;-2.1416;9.4564;2.0671;-1.573;-3.9933;-7.2038;-0.4638;-0.2226;-0.362;-0.5368;42318.0;-34.99;-11.72;-17.12;272.75;-23.61;-102.79;5.0;987.26;60.956;35.956394;-83.925;794.43;NaN;;4.57;12.226105;253.6;17 / 18;213526;2022-10-12 12:13:50:700
17.86;-3.0595;2.3904;6.695;-5.9657;-3.9696;7.2969;8.2073;7.2474;-0.008;0.6044;-0.558;6726.0;-35.59;-0.43;-14.34;239.84;37.92;-115.36;5.0;987.28;63.571;35.956394;-83.925;794.43;NaN;;4.57;12.226105;253.6;17 / 18;214026;2022-10-12 12:13:51:200
7.7402;-8.3088;-2.5546;9.1292;3.1866;-1.6352;-5.1786;-8.384;-0.9351;-1.2845;-0.247;2.2546;40253.0;-33.21;-1.99;-15.3;296.09;-25.19;-102.14;5.0;987.25;64.866;35.95639;-83.92502;794.71;NaN;;4.82;12.808128;230.7;17 / 18;214525;2022-10-12 12:13:51:699
17.4386;-4.9259;5.904;6.1883;-4.6851;-5.9938;7.7138;3.3738;8.5441;-1.4834;-0.1794;0.984;5610.0;-35.53;7.43;-8.62;264.18;28.54;-134.09;5.0;987.29;57.863;35.95639;-83.92502;794.71;NaN;;4.82;12.808128;230.7;17 / 18;215027;2022-10-12 12:13:52:201
2.2265;-9.1992;-1.1958;8.5193;4.3587;-2.1431;-1.9102;-10.6799;-0.7112;-1.1299;0.1379;0.8078;21769.0;-34.99;-2.49;-11.76;300.73;-26.39;-104.12;5.0;987.25;63.903;35.956387;-83.92503;793.75;NaN;;4.79;13.14878;253.4;17 / 18;215526;2022-10-12 12:13:52:700
19.7369;-3.8892;5.3402;7.7976;-4.9236;-3.3356;10.5941;2.778;8.2072;-1.797;-0.6188;1.6113;8481.0;-36.84;-2.7;-11.14;244.87;38.94;-131.13;5.0;987.31;59.532;35.956387;-83.92503;793.75;NaN;;4.79;13.14878;253.4;17 / 18;216026;2022-10-12 12:13:53:200
8.7266;-3.3422;-0.3676;8.7974;3.2819;-2.8294;-5.3175;-9.5703;-0.8609;-1.5735;-0.1528;1.366;19134.0;-35.19;2.42;-11.74;298.07;-19.55;-107.83;5.0;987.23;65.288;35.956383;-83.92504;793.62;NaN;;4.43;12.920223;246.4;17 / 18;216526;2022-10-12 12:13:53:700
16.1519;1.2401;1.3992;8.6935;-3.9583;-2.2194;10.0637;2.7421;4.1996;0.6809;1.9896;-2.4115;3998.0;-38.68;5.04;-13.2;247.78;31.29;-114.32;5.0;987.28;51.131;35.956383;-83.92504;793.62;NaN;;4.43;12.920223;246.4;17 / 18;217027;2022-10-12 12:13:54:201
9.7857;-3.7564;0.1436;9.5306;1.258;-1.9381;-3.9009;-6.1133;-0.5709;-2.2041;0.0799;1.7971;18146.0;-39.11;-5.81;-18.56;266.67;-7.37;-101.49;5.0;987.24;57.839;35.95638;-83.92506;793.85;NaN;;4.43;12.898487;250.5;17 / 18;217528;2022-10-12 12:13:54:702
16.8509;-2.1846;0.7421;8.7748;-3.8554;-2.0759;9.9466;1.4467;4.4254;1.5562;1.73;-3.0167;4549.0;-38.16;9.51;-15.17;259.16;34.85;-120.47;5.0;987.27;56.006;35.95638;-83.92506;793.85;NaN;;4.43;12.898487;250.5;17 / 18;218026;2022-10-12 12:13:55:200
16.8114;-6.038;-2.3737;9.1753;2.3463;-2.5453;-7.3192;-8.8291;-0.7942;-1.9165;-0.1108;3.0752;33121.0;-37.43;-8.55;-15.84;267.21;-13.84;-105.5;5.0;987.27;53.965;35.956375;-83.92507;794.8;NaN;;4.54;12.662851;240.2;17 / 18;218525;2022-10-12 12:13:55:699
18.1878;-7.5616;2.0554;8.237;-4.5754;-2.718;9.7081;1.6388;6.3931;1.7125;1.7321;-2.8052;3576.0;-34.95;19.88;-11.19;280.04;27.81;-108.26;5.0;987.26;54.388;35.956375;-83.92507;794.8;NaN;;4.54;12.662851;240.2;17 / 18;219026;2022-10-12 12:13:56:200
13.7061;-7.8838;-3.6799;9.3592;-1.8335;-2.2835;-0.2532;-4.4211;2.1137;-0.7153;-1.3578;1.6584;33572.0;-38.27;-11.98;-15.99;265.96;-17.95;-108.94;5.0;987.27;55.692;35.956364;-83.92508;796.08;NaN;;4.57;12.342763;227.7;17 / 18;219525;2022-10-12 12:13:56:699
19.0953;-10.6394;0.1507;8.0823;-4.4475;-3.3265;7.9889;1.3487;6.1894;1.4584;1.5566;-3.1566;3281.0;-36.34;13.67;-8.49;269.01;37.05;-135.65;5.0;987.26;60.254;35.956364;-83.92508;796.08;NaN;;4.57;12.342763;227.7;17 / 18;220026;2022-10-12 12:13:57:200
17.441;-5.9028;-2.1655;9.5209;-0.8561;-2.1887;0.5726;-7.1145;-0.5505;-3.2103;1.2838;4.496;23317.0;-36.17;-10.82;-13.24;269.2;-21.18;-114.54;5.0;987.29;54.52;35.956364;-83.92508;796.08;NaN;;4.57;12.342763;227.7;17 / 18;220527;2022-10-12 12:13:57:701
17.3453;-3.7588;2.5451;7.9893;-4.2615;-3.7657;7.7362;4.3417;6.1634;0.1922;2.2391;-1.7498;2028.0;-38.23;17.51;-10.29;277.06;25.76;-115.24;5.0;987.28;63.231;35.956364;-83.92508;796.08;NaN;;4.57;12.342763;227.7;17 / 18;221026;2022-10-12 12:13:58:200
11.6964;-4.5093;-3.821;9.3336;1.2964;-2.7155;-1.4838;-8.3458;-2.1324;-1.7298;0.4668;3.3487;14790.0;-36.82;-16.29;-15.86;245.42;-7.6;-106.22;5.0;987.28;61.261;35.956352;-83.92511;795.66;NaN;;5.04;12.226105;239.3;0 / 18;221526;2022-10-12 12:13:58:700
18.5877;-5.9901;1.3394;9.6371;-1.0987;-1.4455;8.1883;-3.7992;2.6156;-0.1662;1.5803;-1.4474;1109.0;-40.28;3.0;-8.79;249.79;25.73;-120.38;5.0;987.29;59.097;35.956352;-83.92511;795.66;NaN;;5.04;12.226105;239.3;0 / 18;222026;2022-10-12 12:13:59:200
6.6676;-5.9243;-2.8442;9.4301;1.111;-2.4513;-3.2942;-8.2098;-0.5757;-1.2212;0.19;3.6865;2831.0;-37.73;-14.29;-14.74;247.1;-6.5;-104.57;5.0;987.28;59.536;35.956345;-83.92512;793.75;NaN;;4.64;12.808603;248.3;17 / 18;222526;2022-10-12 12:13:59:700
15.9398;-9.3873;0.8163;8.8619;-3.7327;-1.9245;7.6734;1.2041;4.6574;3.1029;1.1209;-4.0679;1169.0;-36.56;15.41;-10.12;265.82;36.64;-126.41;5.0;987.29;59.05;35.956345;-83.92512;793.75;NaN;;4.64;12.808603;248.3;17 / 18;223026;2022-10-12 12:14:00:200
14.8134;-7.684;-1.4354;8.909;2.874;-2.9223;-6.6461;-10.2796;0.0308;-1.7773;0.3834;3.2173;1202.0;-35.44;-18.41;-14.21;250.15;-17.04;-108.16;5.0;987.26;61.322;35.956337;-83.92513;792.99;NaN;;4.75;13.212319;234.2;17 / 18;223526;2022-10-12 12:14:00:700
18.3604;-7.2829;4.0376;8.5953;-4.4433;-1.5963;8.5385;-0.6781;7.5627;3.9642;0.9396;-3.9561;1176.0;-34.99;8.04;-12.67;256.44;40.54;-125.69;5.0;987.3;64.151;35.956337;-83.92513;792.99;NaN;;4.75;13.212319;234.2;17 / 18;224025;2022-10-12 12:14:01:199
16.1315;0.3365;-0.9482;8.8458;3.9019;-1.6421;-7.0034;-10.1504;-0.4188;-0.5747;-0.4733;1.4818;1296.0;-33.53;-10.93;-18.39;274.55;-23.45;-100.52;5.0;987.23;62.998;35.956333;-83.925156;795.85;NaN;;5.22;12.417037;260.1;17 / 18;224526;2022-10-12 12:14:01:700
17.9067;-3.6377;3.9239;8.7096;-3.4113;-2.9457;6.6174;2.0311;7.4682;1.1879;0.1824;-0.9971;1419.0;-38.62;5.08;-18.32;258.23;20.36;-108.69;5.0;987.28;53.274;35.956333;-83.925156;795.85;NaN;;5.22;12.417037;260.1;17 / 18;225026;2022-10-12 12:14:02:200
9.6147;-2.6982;-3.65;9.6948;0.9099;-1.1631;-3.169;-3.5004;-1.6514;0.155;-0.2259;0.068;1328.0;-37.44;-11.53;-19.35;265.58;-16.68;-99.48;5.0;987.26;58.082;35.956326;-83.92517;795.32;NaN;;4.61;12.226105;245.3;17 / 18;225526;2022-10-12 12:14:02:700
17.7715;-3.3182;2.7843;8.1579;-4.5407;-3.0002;7.485;6.4355;4.7538;0.7794;0.6515;-1.4138;1257.0;-39.64;-2.19;-17.04;242.17;29.09;-112.82;5.0;987.28;59.329;35.956326;-83.92517;795.32;NaN;;4.61;12.226105;245.3;17 / 18;226026;2022-10-12 12:14:03:200
9.7786;0.504;-2.4371;8.8862;3.121;-2.7323;-0.9565;-6.4957;-0.987;-0.501;0.111;1.5996;1210.0;-34.03;-15.58;-15.88;269.23;-28.29;-104.18;5.0;987.26;63.626;35.956318;-83.92518;795.91;NaN;;4.97;12.226105;221.0;17 / 18;226527;2022-10-12 12:14:03:701
16.937;1.0905;-2.0686;9.5099;-0.1293;-2.3907;4.0166;3.2485;2.28;-0.3551;0.4582;-0.2966;1303.0;-36.98;-26.21;-7.99;212.4;0.76;-104.11;5.0;987.3;53.864;35.956318;-83.92518;795.91;NaN;;4.97;12.226105;221.0;17 / 18;227027;2022-10-12 12:14:04:201
14.8831;-1.8266;-2.4431;8.9663;-3.6753;-1.5059;2.5153;-2.2517;3.3907;0.1881;-0.5021;2.6802;1032.0;-37.33;-19.29;-16.01;215.87;22.01;-99.53;5.0;987.31;56.675;35.956303;-83.92519;790.47;NaN;;4.82;12.226105;239.1;17 / 18;227527;2022-10-12 12:14:04:701
15.539;-5.4179;2.5232;9.6655;-1.5044;0.696;7.3213;-3.3928;1.463;0.917;0.6325;-1.1064;859.0;-36.19;12.28;-19.11;255.04;29.69;-96.75;5.0;987.27;55.429;35.956303;-83.92519;790.47;NaN;;4.82;12.226105;239.1;17 / 18;228027;2022-10-12 12:14:05:201
8.6797;-2.1787;-3.1436;9.5904;-0.4091;-2.0066;-1.4988;-6.1912;0.4392;-0.4985;-1.4025;2.6003;972.0;-34.89;-9.69;-22.03;248.63;2.39;-101.82;5.0;987.29;63.149;35.956295;-83.92521;790.34;NaN;;4.68;12.226105;239.5;17 / 18;228526;2022-10-12 12:14:05:700
14.2448;-5.6967;3.1017;9.2858;-2.9946;-0.9882;7.927;-0.0448;3.7397;3.0303;1.2991;-2.9985;933.0;-36.24;15.53;-13.69;268.28;32.29;-114.66;5.0;987.31;50.99;35.956295;-83.92521;790.34;NaN;;4.68;12.226105;239.5;17 / 18;229026;2022-10-12 12:14:06:200
11.4102;-4.0304;-2.1117;9.7178;-0.1087;-1.3126;-3.1843;-7.8517;-1.4509;-2.2578;1.4053;2.9257;956.0;-38.06;-4.69;-18.6;257.3;0.64;-97.69;5.0;987.28;62.867;35.956287;-83.925224;785.87;NaN;;4.64;12.226105;246.7;17 / 18;229526;2022-10-12 12:14:06:700
16.2117;-8.2741;4.0531;9.2973;-2.7013;1.5603;7.865;-1.3378;4.6955;3.1235;2.952;-1.7623;963.0;-31.44;20.79;-12.43;289.35;26.36;-106.8;5.0;987.3;55.786;35.956287;-83.925224;785.87;NaN;;4.64;12.226105;246.7;17 / 18;230025;2022-10-12 12:14:07:199
11.0393;-1.4545;1.3801;9.1774;2.9066;1.8702;-3.0554;-8.1794;-4.3777;-2.1478;-2.3174;2.0725;2164.0;-24.58;6.58;-31.82;301.0;-17.24;-78.48;5.0;987.28;52.039;35.956284;-83.92524;784.24;NaN;;4.75;12.226105;256.3;17 / 18;230527;2022-10-12 12:14:07:701
11.755;-4.6516;-4.6325;8.0208;-2.1013;-5.2366;5.6375;0.6749;-3.7829;-0.6009;0.034;-3.7923;1555.0;-39.6;13.69;-8.79;284.41;12.37;-123.14;5.0;987.31;55.253;35.956284;-83.92524;784.24;NaN;;4.75;12.226105;256.3;17 / 18;231026;2022-10-12 12:14:08:200
9.4986;-1.9391;-8.3877;8.0846;-0.8359;-5.4874;2.6315;-0.5163;-5.2454;2.3408;-1.0396;2.5378;852.0;-43.65;-13.67;-1.65;257.17;-12.31;-128.95;5.0;987.28;54.555;35.956284;-83.925255;783.99;NaN;;4.68;12.226105;259.0;17 / 18;231526;2022-10-12 12:14:08:700
18.1508;-6.9882;2.4323;9.0522;-2.8431;-2.4787;5.921;-1.839;7.4955;4.0518;0.6692;-3.2273;834.0;-36.28;15.83;-0.36;285.75;19.07;-117.54;5.0;987.28;54.286;35.956284;-83.925255;783.99;NaN;;4.68;12.226105;259.0;17 / 18;232027;2022-10-12 12:14:09:201
3.7971;3.9766;6.4077;2.9651;4.1518;8.375;-1.5483;-2.3974;-2.9047;-0.0819;0.0108;-0.1742;4865.0;-12.86;2.33;-32.66;4.17;-26.28;-19.44;5.0;987.28;57.398;35.95628;-83.92527;784.5;NaN;;4.75;12.226105;257.9;17 / 18;232526;2022-10-12 12:14:09:700
0.6416;3.0428;9.2447;1.7499;3.9601;8.7992;-0.5078;3.3361;-0.2124;-0.3402;0.1568;-1.0804;4697.0;17.98;-5.08;-39.58;291.15;-23.82;-11.25;5.0;987.28;52.833;35.95628;-83.92527;784.5;NaN;;4.75;12.226105;257.9;17 / 18;233027;2022-10-12 12:14:10:201
11.0907;-0.0562;3.9574;6.2606;4.1631;6.2964;0.6505;-0.6303;-8.0186;-1.6223;-4.8306;0.3134;4856.0;19.41;-1.74;-38.98;275.91;-25.12;-44.84;5.0;987.3;52.11;35.956276;-83.925285;783.54;NaN;;4.72;12.226105;249.2;16 / 18;233526;2022-10-12 12:14:10:700
17.5666;1.2413;2.3605;9.593;0.2187;-2.0241;8.0361;1.5652;3.7826;-0.3594;0.5256;-0.0724;1646.0;-27.24;11.96;-21.06;286.27;11.4;-120.72;5.0;987.29;55.229;35.956276;-83.925285;783.54;NaN;;4.72;12.226105;249.2;16 / 18;234026;2022-10-12 12:14:11:200
9.3443;-2.3509;-5.7948;8.1905;4.9845;-2.0593;-1.2056;-6.8176;-2.2402;0.4156;-1.0833;2.1408;1149.0;-38.25;-5.51;-16.58;293.98;-30.55;-104.11;5.0;987.31;57.695;35.956272;-83.9253;782.03;NaN;;4.72;12.392083;241.9;17 / 18;234527;2022-10-12 12:14:11:701
20.1655;1.4426;1.2891;8.405;-3.6421;-3.5016;8.4281;5.1221;5.9008;0.7353;1.8445;-2.7536;1037.0;-37.33;14.66;-9.36;271.23;30.65;-127.12;5.0;987.35;55.526;35.956272;-83.9253;782.03;NaN;;4.72;12.392083;241.9;17 / 18;235027;2022-10-12 12:14:12:201
5.9901;-2.904;-2.3797;6.6608;5.5271;-4.6103;-2.8535;-11.3428;1.4515;-0.9677;-0.0266;1.014;985.0;-33.75;-12.13;-13.39;273.19;-34.31;-124.69;5.0;987.28;65.329;35.95627;-83.92531;781.39;NaN;;4.57;12.751847;245.9;17 / 18;235527;2022-10-12 12:14:12:701
17.6276;0.8584;-1.9693;9.3655;-1.8316;-2.2589;6.1669;2.4909;1.0753;0.0098;-0.1253;-1.2841;966.0;-37.54;-7.44;-14.64;237.03;14.56;-103.44;5.0;987.31;50.224;35.95627;-83.92531;781.39;NaN;;4.57;12.751847;245.9;17 / 18;236026;2022-10-12 12:14:13:200
10.267;-3.5097;0.2862;9.3471;1.8787;-2.2961;-2.0454;-6.3373;-0.7114;-1.8771;0.0958;2.2249;988.0;-41.74;-2.62;-20.06;277.65;-11.04;-103.8;5.0;987.3;55.692;35.956264;-83.92533;778.83;NaN;;4.5;12.828038;244.8;17 / 18;236525;2022-10-12 12:14:13:699
13.1088;-6.4244;1.0187;8.9033;-2.9773;-2.8349;9.2986;3.3632;2.6199;-0.6451;2.6983;-2.8329;970.0;-36.77;19.44;-15.88;288.53;17.67;-107.66;5.0;987.31;62.54;35.956264;-83.92533;778.83;NaN;;4.5;12.828038;244.8;17 / 18;237025;2022-10-12 12:14:14:199
10.7638;-2.2086;-4.4279;9.1933;-1.2533;-3.1754;2.3767;-2.9073;0.3354;-1.7808;0.7026;2.4771;996.0;-41.85;-9.45;-16.33;275.72;-18.4;-106.52;5.0;987.3;60.099;35.95626;-83.92535;777.65;NaN;;4.54;12.81519;244.8;17 / 18;237526;2022-10-12 12:14:14:700
12.5928;-5.097;-1.78;8.9482;-2.8357;-2.8388;7.6121;4.5683;2.432;1.9892;1.7673;-3.1981;1042.0;-37.31;17.1;-9.49;273.74;31.51;-127.19;5.0;987.32;58.175;35.95626;-83.92535;777.65;NaN;;4.54;12.81519;244.8;17 / 18;238025;2022-10-12 12:14:15:199
11.0357;-1.9259;-2.26;9.4072;-1.2414;-2.4768;1.5792;-2.1026;1.1382;-0.7487;-0.6586;3.7627;1097.0;-39.94;-5.7;-18.41;280.33;-18.53;-105.19;5.0;987.29;60.9;35.956257;-83.92536;775.34;NaN;;4.54;12.942856;248.6;18 / 18;238526;2022-10-12 12:14:15:700
14.7033;-7.8335;0.2333;9.0392;-3.1305;-2.1594;8.4296;2.2722;1.3695;0.799;2.5286;-4.0627;1036.0;-33.21;24.56;-13.35;305.35;18.62;-103.44;5.0;987.33;59.826;35.956257;-83.92536;775.34;NaN;;4.54;12.942856;248.6;18 / 18;239027;2022-10-12 12:14:16:201
10.133;-0.917;-5.0779;8.6896;-1.4341;-4.3134;3.5414;-2.5369;-2.4874;-1.1018;-0.6321;3.3902;1033.0;-40.82;-14.66;-15.66;239.51;8.41;-116.4;5.0;987.32;62.78;35.956253;-83.92538;775.07;NaN;;4.57;12.959868;242.5;18 / 18;239525;2022-10-12 12:14:16:699
10.3388;-2.8837;-3.9993;9.4187;0.9577;-2.5575;0.7467;-4.0674;-1.1899;2.727;1.3145;-2.9467;1044.0;-39.75;16.31;-7.09;290.88;13.17;-108.93;5.0;987.32;60.183;35.956253;-83.92538;775.07;NaN;;4.57;12.959868;242.5;18 / 18;240026;2022-10-12 12:14:17:200
16.7001;-1.5299;-3.9287;8.8157;-2.8217;-3.2391;2.3584;-1.7828;-2.408;-2.2234;0.3983;3.8825;1134.0;-44.19;-2.89;-15.86;246.44;16.72;-110.17;5.0;987.31;58.267;35.95625;-83.92539;776.55;NaN;;4.79;13.17089;259.9;17 / 18;240527;2022-10-12 12:14:17:701
11.2199;-6.3634;-4.6265;7.9496;4.927;-2.9493;5.6548;-12.259;-0.9325;2.8436;-0.0194;-4.3993;1113.0;-37.18;22.07;-3.86;327.52;-1.64;-106.97;5.0;987.28;62.131;35.95625;-83.92539;776.55;NaN;;4.79;13.17089;259.9;17 / 18;241026;2022-10-12 12:14:18:200
14.9848;1.3023;-1.6974;9.0258;-2.0653;-3.231;6.0757;-1.4995;-1.0449;-1.8972;0.5193;4.4046;1134.0;-39.73;-16.93;-9.49;222.56;12.16;-109.7;5.0;987.31;57.384;35.95625;-83.92541;777.66;NaN;;4.64;13.231828;261.0;17 / 18;241527;2022-10-12 12:14:18:701
8.1302;-4.6804;-1.9848;9.0523;3.2316;-1.9449;1.7395;-8.7209;1.1101;3.8005;-0.6343;-3.6968;1112.0;-37.39;22.01;-9.94;321.36;5.59;-97.51;5.0;987.28;56.422;35.95625;-83.92541;777.66;NaN;;4.64;13.231828;261.0;17 / 18;242026;2022-10-12 12:14:19:200
13.4632;0.0622;-1.8494;9.0348;-2.0767;-3.1985;3.8069;-1.2586;-0.0414;-1.6461;0.6259;3.971;1162.0;-42.21;-14.17;-14.06;232.24;12.23;-109.49;5.0;987.3;58.303;35.956245;-83.92542;775.88;NaN;;4.46;13.033888;248.0;17 / 18;242527;2022-10-12 12:14:19:701
