sep=;
ACCELEROMETER X (m/s²);ACCELEROMETER Y (m/s²);ACCELEROMETER Z (m/s²);GRAVITY X (m/s²);GRAVITY Y (m/s²);GRAVITY Z (m/s²);LINEAR ACCELERATION X (m/s²);LINEAR ACCELERATION Y (m/s²);LINEAR ACCELERATION Z (m/s²);GYROSCOPE X (rad/s);GYROSCOPE Y (rad/s);GYROSCOPE Z (rad/s);LIGHT (lux);MAGNETIC FIELD X (μT);MAGNETIC FIELD Y (μT);MAGNETIC FIELD Z (μT);ORIENTATION Z (azimuth °);ORIENTATION X (pitch °);ORIENTATION Y (roll °);PROXIMITY (i);ATMOSPHERIC PRESSURE (hPa);SOUND LEVEL (dB);LOCATION Latitude : ;LOCATION Longitude : ;LOCATION Altitude ( m);LOCATION Altitude-google ( m);LOCATION Altitude-atmospheric pressure ( m);LOCATION Speed ( Kmh);LOCATION Accuracy ( m);LOCATION ORIENTATION (°);Satellites in range;Time since start in ms ;YYYY-MO-DD HH-MI-SS_SSS
-1.4964;3.7792;6.3144;-2.5078;2.5904;9.1198;-0.8382;1.1376;-0.6177;-1.4624;-0.6683;-0.2996;6565.0;-1.72;-10.97;-41.29;91.37;-15.32;15.38;5.0;986.52;41.644;35.955223;-83.928955;814.28;NaN;;0.0;19.546267;;13 / 18;24;2022-10-24 16:24:43:274
-2.0471;2.6898;8.2011;-1.2947;1.9844;9.5161;-1.2854;1.3;-2.1353;1.3427;-0.0813;-0.1882;8386.0;-8.44;-7.88;-41.53;97.47;-8.35;12.38;5.0;986.46;43.33;35.955215;-83.92895;820.57;NaN;;0.0;15.710315;;14 / 18;524;2022-10-24 16:24:43:774
11.9118;-2.6982;1.6663;9.3557;1.8251;2.3042;0.7915;-0.3549;4.0426;-0.5402;-2.7727;1.669;8252.0;-24.15;-12.26;-26.92;265.7;-18.21;-44.22;5.0;986.52;45.126;35.955215;-83.92895;820.57;NaN;;0.0;15.710315;;14 / 18;1024;2022-10-24 16:24:44:274
12.0206;0.3341;0.5566;9.3087;-2.3392;-2.0115;1.2717;3.1513;3.4493;0.0484;0.2014;-0.1258;4798.0;-36.73;0.92;28.71;123.73;16.89;-106.17;5.0;986.56;42.656;35.955208;-83.928925;819.01;NaN;;1.84;13.408089;115.2;14 / 18;1524;2022-10-24 16:24:44:774
6.4965;-3.4774;-2.3749;8.9719;3.2009;-2.33;-2.6764;-6.6021;0.4266;0.8451;-1.5494;-0.0479;5153.0;-35.01;0.34;31.89;58.32;-19.05;-104.56;5.0;986.55;43.568;35.955208;-83.928925;819.01;NaN;;1.84;13.408089;115.2;14 / 18;2025;2022-10-24 16:24:45:275
15.5438;0.1352;-3.524;7.521;-5.0449;-3.7621;3.3917;7.8164;1.3893;0.1752;0.002;-0.8334;2953.0;-29.32;5.72;37.09;121.07;25.55;-115.25;5.0;986.56;42.088;35.955215;-83.92891;813.52;NaN;;7.31;12.52157;50.7;14 / 18;2525;2022-10-24 16:24:45:775
9.4663;-3.9203;-3.4032;8.7623;4.3987;-0.2068;0.5683;-8.1687;-1.845;1.0624;-0.1343;-1.5123;5428.0;-31.8;8.38;31.07;54.17;-26.65;-91.35;5.0;986.56;40.912;35.955215;-83.92891;813.52;NaN;;7.31;12.52157;50.7;14 / 18;3024;2022-10-24 16:24:46:274
12.9628;4.1154;0.8835;7.8523;-3.7918;-4.4871;4.2607;7.0243;4.0317;0.0039;0.561;0.1384;2670.0;-32.08;4.43;32.59;136.33;22.75;-119.75;5.0;986.57;40.976;35.955235;-83.92889;812.21;NaN;;5.22;12.226105;49.9;14 / 18;3524;2022-10-24 16:24:46:774
2.7126;-3.548;-3.5647;6.8545;5.4621;-4.3991;-3.2556;-9.1029;1.2162;1.4332;-1.2506;-2.6393;2798.0;-32.98;6.81;31.31;35.67;-29.06;-108.73;5.0;986.57;40.208;35.955235;-83.92889;812.21;NaN;;5.22;12.226105;49.9;14 / 18;4024;2022-10-24 16:24:47:274
9.0796;3.4391;3.7181;8.4743;-1.9183;-4.5471;4.1166;4.8186;6.1344;-0.2781;-0.8821;1.3555;2117.0;-33.11;0.56;34.37;98.35;5.76;-108.28;5.0;986.59;39.455;35.95524;-83.92886;812.13;NaN;;4.61;12.226105;47.3;15 / 18;4525;2022-10-24 16:24:47:775
1.7357;-3.9682;-3.8521;6.7811;4.6301;-5.3618;-3.1434;-9.1271;1.8104;3.7618;-1.3431;-3.4989;2362.0;-32.19;3.64;35.36;47.87;-23.59;-109.21;5.0;986.6;41.971;35.95524;-83.92886;812.13;NaN;;4.61;12.226105;47.3;15 / 18;5025;2022-10-24 16:24:48:275
13.049;2.843;-1.756;7.3648;-3.1043;-5.6827;6.4348;5.7012;4.4085;0.6517;-0.5388;0.5138;1776.0;-26.7;3.6;39.94;125.21;18.45;-127.65;5.0;986.61;41.278;35.95525;-83.92885;810.97;NaN;;4.5;12.226105;56.0;14 / 18;5524;2022-10-24 16:24:48:774
5.4754;-8.9635;-5.6046;8.4404;2.6944;-4.2035;-2.6855;-8.8664;0.8359;-1.0403;-0.4605;0.3497;1616.0;-28.26;13.22;36.17;39.68;-15.95;-116.47;5.0;986.59;44.55;35.95525;-83.92885;810.97;NaN;;4.5;12.226105;56.0;14 / 18;6024;2022-10-24 16:24:49:274
17.9079;-1.4246;-0.0562;7.9389;-3.9089;-4.2267;4.175;7.6498;2.177;-0.7101;-0.1384;1.7016;1542.0;-32.06;12.54;33.81;126.01;26.4;-122.31;5.0;986.63;43.096;35.955254;-83.92883;810.15;NaN;;5.26;12.226105;65.3;14 / 18;6524;2022-10-24 16:24:49:774
7.3415;-4.902;-3.5946;8.8918;3.5239;-2.1653;-2.9325;-6.2243;-0.7824;0.4287;-0.7497;-0.1963;2926.0;-31.86;11.38;31.71;55.68;-10.62;-100.15;5.0;986.63;43.011;35.955254;-83.92883;810.15;NaN;;5.26;12.226105;65.3;14 / 18;7024;2022-10-24 16:24:50:274
13.5015;2.1344;1.2353;7.7881;-2.073;-5.5873;4.2607;4.5343;5.4205;-1.9112;-1.4961;1.4709;2390.0;-32.38;5.34;33.86;118.54;16.16;-119.33;5.0;986.64;45.804;35.955257;-83.92882;809.7;NaN;;5.36;12.226105;68.7;14 / 18;7524;2022-10-24 16:24:50:774
7.5185;-2.6635;-4.4351;7.4032;5.4241;-3.4559;-1.6513;-8.4425;-0.3985;0.6236;-0.7373;-0.2674;3125.0;-31.13;-4.2;35.85;43.4;-33.58;-115.02;5.0;986.64;43.82;35.955257;-83.92882;809.7;NaN;;5.36;12.226105;68.7;14 / 18;8025;2022-10-24 16:24:51:275
14.8672;1.6699;-1.2712;7.2766;-2.737;-5.9775;3.8302;6.4667;5.3498;-0.4694;0.9667;-0.462;2516.0;-29.04;-4.8;37.84;137.77;12.05;-126.68;5.0;986.67;47.472;35.955265;-83.9288;810.63;NaN;;5.18;12.226105;72.0;14 / 18;8525;2022-10-24 16:24:51:775
3.7959;-3.4487;-3.9646;7.5749;5.4487;-3.0171;0.8128;-8.6688;-0.2698;0.8367;-0.2052;-1.3534;3979.0;-29.79;-1.44;36.28;45.37;-33.75;-111.72;5.0;986.65;45.303;35.955265;-83.9288;810.63;NaN;;5.18;12.226105;72.0;14 / 18;9024;2022-10-24 16:24:52:274
11.8747;2.5259;1.7931;7.8802;-1.7715;-5.5619;3.5303;4.3317;5.658;-0.6519;0.1978;0.6385;3398.0;-30.84;-7.74;36.32;144.53;10.41;-125.21;5.0;986.68;45.72;35.955265;-83.92879;810.58;NaN;;5.18;12.226105;77.2;13 / 18;9524;2022-10-24 16:24:52:774
8.1497;-3.6449;-3.2716;8.011;4.7812;-3.0223;-2.8641;-7.7461;0.0079;0.8889;0.0209;-1.707;4940.0;-33.51;-8.66;32.27;64.5;-24.86;-107.85;5.0;986.67;49.158;35.955265;-83.92879;810.58;NaN;;5.18;12.226105;77.2;13 / 18;10024;2022-10-24 16:24:53:274
14.3216;1.1133;1.6472;9.0236;-0.3144;-3.827;1.3805;2.3451;6.3439;0.6785;-0.6807;0.3896;4832.0;-33.73;-13.74;29.83;125.08;-1.08;-106.89;5.0;986.7;46.306;35.955265;-83.928764;811.77;NaN;;5.0;12.226105;82.6;13 / 18;10525;2022-10-24 16:24:53:775
5.7326;-2.9949;-2.959;8.0759;4.6844;-3.0011;-2.1439;-6.8699;-0.0943;1.1112;0.0857;-2.0215;5597.0;-34.74;-11.27;28.31;72.78;-22.11;-105.93;5.0;986.64;48.169;35.955265;-83.928764;811.77;NaN;;5.0;12.226105;82.6;13 / 18;11026;2022-10-24 16:24:54:276
9.5046;2.5475;-2.9004;8.2294;-2.5365;-4.6918;1.1145;4.3312;2.6079;0.3597;-0.5489;1.1692;4321.0;-28.91;-6.77;34.07;139.29;14.99;-119.69;5.0;986.64;44.081;35.955265;-83.92875;813.55;NaN;;4.97;12.226105;86.1;14 / 18;11524;2022-10-24 16:24:54:774
6.166;-2.522;-3.9191;7.3545;5.6431;-3.1996;0.8148;-7.7835;-1.9486;-0.9075;-0.7513;-0.3024;5968.0;-28.29;-2.48;33.58;43.69;-35.13;-113.51;5.0;986.67;52.848;35.955265;-83.92875;813.55;NaN;;4.97;12.226105;86.1;14 / 18;12024;2022-10-24 16:24:55:274
14.6112;1.2018;3.1053;7.6341;-0.8925;-6.0906;3.9135;4.5701;6.0437;-1.2212;-1.0936;1.8558;6951.0;-26.19;-15.73;32.91;156.71;9.66;-128.36;5.0;986.69;40.453;35.95527;-83.928734;815.86;NaN;;4.75;12.226105;82.2;14 / 18;12524;2022-10-24 16:24:55:774
3.5204;-4.5093;-2.8585;7.0107;5.2449;-4.4171;1.0274;-9.6428;0.4193;0.9067;-0.3763;-1.2964;7824.0;-29.53;-11.38;30.98;86.41;-18.58;-105.16;5.0;986.68;41.946;35.95527;-83.928734;815.86;NaN;;4.75;12.226105;82.2;14 / 18;13024;2022-10-24 16:24:56:274
10.1749;4.113;-1.0044;7.9514;-1.399;-5.5667;1.8935;5.449;3.0118;-1.4483;-0.1129;2.3728;6325.0;-24.19;-8.91;36.02;120.04;2.52;-120.96;5.0;986.67;41.714;35.955273;-83.92872;816.88;NaN;;4.93;12.226105;77.1;15 / 18;13525;2022-10-24 16:24:56:775
4.5607;-2.7508;-3.6293;7.9682;3.933;-4.1485;0.8946;-5.7268;2.1145;1.8289;-0.2078;-2.1355;7383.0;-28.16;-6.06;33.77;58.01;-23.64;-117.5;5.0;986.7;46.459;35.955273;-83.92872;816.88;NaN;;4.93;12.226105;77.1;15 / 18;14025;2022-10-24 16:24:57:275
8.3243;4.3502;-2.5208;8.2886;-2.2779;-4.7203;0.0346;6.271;1.6199;-0.4348;0.014;2.0389;5558.0;-25.82;-5.55;34.78;113.61;4.43;-115.36;5.0;986.71;41.716;35.955273;-83.92871;817.61;NaN;;4.9;12.226105;77.3;15 / 18;14524;2022-10-24 16:24:57:774
7.1991;-2.2528;-1.6723;8.67;4.0735;-2.0994;-0.3998;-5.9413;-0.4258;-1.4668;1.3926;-1.1171;7130.0;-27.64;0.47;32.23;59.51;-24.54;-103.61;5.0;986.69;46.212;35.955273;-83.92871;817.61;NaN;;4.9;12.226105;77.3;15 / 18;15024;2022-10-24 16:24:58:274
13.675;2.5965;0.3281;7.7372;-3.4259;-4.9567;3.229;5.3045;4.7257;0.0127;-0.1317;0.2409;6580.0;-28.59;-6.99;28.31;158.72;20.45;-122.65;5.0;986.69;41.392;35.95528;-83.928696;817.68;NaN;;4.79;12.226105;72.2;15 / 18;15524;2022-10-24 16:24:58:774
8.2693;-1.4031;-2.272;6.826;6.4462;-2.8323;1.7266;-7.9507;0.5581;-1.0447;0.4167;-2.0382;6428.0;-25.82;-1.09;31.56;48.36;-29.34;-113.24;5.0;986.72;41.552;35.95528;-83.928696;817.68;NaN;;4.79;12.226105;72.2;15 / 18;16024;2022-10-24 16:24:59:274
13.4046;5.2059;-2.0267;7.7119;-2.9442;-5.2942;3.7998;5.3065;2.5902;0.6703;-0.8952;1.3973;6163.0;-24.94;-8.76;29.51;114.13;-2.53;-115.06;5.0;986.7;40.172;35.955288;-83.92869;819.63;NaN;;5.33;12.226105;51.7;15 / 18;16524;2022-10-24 16:24:59:774
6.1516;-2.2361;-2.5415;7.688;5.7564;-1.9821;-0.182;-8.1535;-1.0014;0.4392;0.7726;-3.0245;6875.0;-24.47;6.11;29.25;53.55;-20.53;-104.47;5.0;986.7;48.116;35.955288;-83.92869;819.63;NaN;;5.33;12.226105;51.7;15 / 18;17024;2022-10-24 16:25:00:274
8.0034;4.5045;1.8996;9.018;2.3233;-3.0738;-1.3272;1.0885;1.3206;-0.4487;-0.861;0.8734;7258.0;-28.28;-9.51;22.89;97.51;-13.7;-108.82;5.0;986.69;45.511;35.955296;-83.92867;819.62;NaN;;4.5;12.226105;50.2;15 / 18;17525;2022-10-24 16:25:00:775
5.5448;-1.4533;-3.4164;9.0625;3.3603;-1.6582;-0.7802;-3.2966;-0.251;0.8748;-0.0562;-0.9691;7186.0;-28.54;1.48;23.31;55.12;-20.04;-100.37;5.0;986.71;46.844;35.955296;-83.92867;819.62;NaN;;4.5;12.226105;50.2;15 / 18;18024;2022-10-24 16:25:01:274
9.8937;2.7449;1.0343;8.2933;-1.9614;-4.8522;1.1407;3.689;5.0768;-1.5518;-0.8377;1.8357;6787.0;-28.69;2.53;21.04;95.11;6.06;-113.23;5.0;986.73;40.462;35.9553;-83.928665;819.4;NaN;;4.18;12.226105;52.0;15 / 18;18524;2022-10-24 16:25:01:774
6.4893;-2.6503;-3.2034;8.7955;3.596;-2.4244;1.884;-6.7126;-0.0793;1.495;-0.1152;-2.3263;7399.0;-23.16;8.78;26.83;64.65;-2.14;-102.81;5.0;986.7;42.541;35.9553;-83.928665;819.4;NaN;;4.18;12.226105;52.0;15 / 18;19024;2022-10-24 16:25:02:274
11.5863;1.7345;0.0072;7.9974;-2.5996;-5.0452;3.1591;3.5161;4.4302;-2.4222;-0.7358;2.9467;6775.0;-27.39;6.73;21.6;70.55;5.5;-111.21;5.0;986.74;43.819;35.95531;-83.92866;816.99;NaN;;4.28;12.226105;46.5;15 / 18;19525;2022-10-24 16:25:02:775
7.0795;-2.8621;-2.7437;8.9852;3.4831;-1.818;2.4578;-6.0919;-1.2826;1.1078;0.233;-2.6315;7685.0;-22.78;10.76;27.96;48.48;-20.8;-101.44;5.0;986.72;41.535;35.95531;-83.92866;816.99;NaN;;4.28;12.226105;46.5;15 / 18;20024;2022-10-24 16:25:03:274
10.8452;2.1942;1.2425;8.3144;-2.0149;-4.7938;2.2133;3.6671;4.4438;-0.9863;-1.1129;1.5787;7270.0;-30.36;4.03;24.68;78.99;2.47;-111.41;5.0;986.74;41.281;35.95532;-83.92864;816.55;NaN;;4.64;12.226105;55.9;15 / 18;20525;2022-10-24 16:25:03:775
5.3498;-4.981;-2.2253;9.5087;1.3935;-1.9529;1.7075;-5.4464;-0.4411;1.0121;0.4977;-1.9301;8222.0;-21.69;10.86;33.83;62.67;-8.17;-101.61;5.0;986.75;40.966;35.95532;-83.92864;816.55;NaN;;4.64;12.226105;55.9;15 / 18;21024;2022-10-24 16:25:04:274
10.4228;2.7401;-0.6236;6.4611;-4.4648;-5.8728;4.4994;4.5371;4.7752;0.178;-0.6413;0.9942;7402.0;-25.56;11.4;31.89;144.76;27.08;-132.27;5.0;986.74;42.653;35.95533;-83.928635;816.84;NaN;;5.0;12.226105;57.9;15 / 18;21525;2022-10-24 16:25:04:775
5.2657;-5.528;-2.9925;9.2448;2.7207;-1.8172;-2.3875;-8.3129;-1.2169;3.258;-0.0015;-2.9873;7729.0;-21.99;18.49;32.7;62.09;2.76;-93.04;5.0;986.77;40.909;35.95533;-83.928635;816.84;NaN;;5.0;12.226105;57.9;15 / 18;22024;2022-10-24 16:25:05:274
9.4795;2.6288;3.2249;9.4629;-0.4883;-2.5268;-2.8086;2.2805;1.457;-1.2183;-0.9806;1.164;7721.0;-37.35;7.07;25.24;51.81;-6.4;-104.68;5.0;986.74;40.604;35.955338;-83.92862;816.34;NaN;;4.97;12.226105;51.2;15 / 18;22526;2022-10-24 16:25:05:776
5.3856;-2.1595;-4.1046;9.364;2.259;-1.8393;-2.8712;-4.4317;-1.876;2.4906;0.1445;-2.3703;7472.0;-32.83;7.74;32.46;69.84;-2.89;-98.34;5.0;986.76;43.631;35.955338;-83.92862;816.34;NaN;;4.97;12.226105;51.2;15 / 18;23024;2022-10-24 16:25:06:274
14.6889;-0.3508;-0.3652;8.3292;-2.2402;-4.6666;-0.451;2.3278;4.0633;-0.9524;-0.8471;1.3653;6732.0;-32.91;5.34;32.27;114.14;13.2;-119.26;5.0;986.79;43.62;35.95535;-83.92861;814.84;NaN;;4.64;12.226105;42.6;15 / 18;23525;2022-10-24 16:25:06:775
12.5091;-3.4654;-3.7636;9.5557;2.1224;-0.5959;-2.144;-3.8182;-2.8912;-0.0189;0.6045;-0.8401;7017.0;-31.37;2.7;31.88;71.47;-12.5;-93.57;5.0;986.75;43.096;35.95535;-83.92861;814.84;NaN;;4.64;12.226105;42.6;15 / 18;24025;2022-10-24 16:25:07:275
17.2795;0.6523;0.0993;8.3578;-2.243;-4.6137;4.5687;4.813;6.3985;-0.3043;-0.4615;0.743;6040.0;-32.46;1.93;28.48;149.23;14.05;-124.5;5.0;986.74;43.55;35.955357;-83.92859;814.71;NaN;;4.46;12.226105;52.7;15 / 18;24524;2022-10-24 16:25:07:774
6.1648;-2.8848;-3.1926;8.941;3.844;-1.2053;-1.7515;-6.2604;-1.6066;0.376;-0.5393;-0.2782;6117.0;-28.41;5.06;30.73;66.29;-12.81;-97.4;5.0;986.79;45.037;35.955357;-83.92859;814.71;NaN;;4.46;12.226105;52.7;15 / 18;25024;2022-10-24 16:25:08:274
14.2687;-0.3377;3.6425;7.9888;-1.9741;-5.334;3.7411;3.0429;8.9821;-1.8911;-1.2259;1.4079;6257.0;-29.57;1.91;30.28;107.97;8.54;-117.9;5.0;986.79;41.99;35.955368;-83.92858;812.76;NaN;;4.72;12.226105;51.3;15 / 18;25524;2022-10-24 16:25:08:774
8.1194;-4.7318;-4.107;9.0556;3.1174;-2.1091;-1.5487;-5.9789;-1.0071;0.4214;-0.5236;-0.17;6199.0;-28.74;3.11;30.53;59.23;-18.54;-103.11;5.0;986.79;39.402;35.955368;-83.92858;812.76;NaN;;4.72;12.226105;51.3;15 / 18;26025;2022-10-24 16:25:09:275
16.1064;-1.2784;0.9505;7.5039;-3.3423;-5.3564;5.2449;5.7469;5.0881;-0.0368;-0.9251;1.6285;5775.0;-26.06;6.64;31.26;120.32;18.67;-125.55;5.0;986.8;40.482;35.955376;-83.92857;813.11;NaN;;4.64;12.226105;49.4;15 / 18;26525;2022-10-24 16:25:09:775
3.9455;-4.2075;-3.7134;8.3079;4.311;-2.9265;-1.4407;-8.0928;0.0062;0.6954;-0.2382;-0.5953;5740.0;-26.44;8.96;31.43;41.37;-26.08;-109.4;5.0;986.78;42.073;35.955376;-83.92857;813.11;NaN;;4.64;12.226105;49.4;15 / 18;27024;2022-10-24 16:25:10:274
14.7236;0.0227;2.8298;6.3475;-4.2619;-6.1413;4.8419;4.9812;8.3557;0.4392;0.4691;0.0414;6025.0;-29.17;9.62;34.31;157.53;25.76;-134.05;5.0;986.8;40.265;35.955383;-83.92856;814.52;NaN;;5.22;12.226105;53.8;15 / 18;27524;2022-10-24 16:25:10:774
3.274;-4.5607;-3.1663;8.4694;3.8415;-3.1118;-4.9413;-8.5111;0.1011;1.4139;-0.211;-1.8248;5513.0;-30.22;8.76;29.78;42.05;-24.83;-104.91;5.0;986.79;39.13;35.955383;-83.92856;814.52;NaN;;5.22;12.226105;53.8;15 / 18;28025;2022-10-24 16:25:11:275
12.3057;1.0714;2.8908;7.8646;-3.5588;-4.6533;4.092;5.9228;5.6883;-0.6823;-0.1066;0.7431;5437.0;-32.32;9.02;25.93;99.28;16.06;-110.39;5.0;986.79;40.166;35.95539;-83.92854;816.61;NaN;;5.44;12.226105;47.6;15 / 18;28525;2022-10-24 16:25:11:775
5.2956;-4.1919;-2.4383;8.9326;3.6962;-1.6483;-3.9513;-7.6708;-0.916;0.6502;0.0414;-1.4734;4921.0;-30.13;15.41;25.39;39.87;-18.92;-97.62;5.0;986.78;40.246;35.95539;-83.92854;816.61;NaN;;5.44;12.226105;47.6;15 / 18;29024;2022-10-24 16:25:12:274
16.2631;1.8039;1.4354;8.619;-1.5189;-4.4244;0.9908;4.7186;4.8841;-1.2674;-1.0033;1.126;4612.0;-34.71;12.24;25.46;49.93;8.91;-117.17;5.0;986.83;40.146;35.955402;-83.928535;816.61;NaN;;4.61;12.226105;54.2;15 / 18;29525;2022-10-24 16:25:12:775
5.3701;-2.3174;-3.2405;8.7201;3.7589;-2.4498;-3.4633;-5.6762;-0.9639;-0.243;-0.892;1.113;4425.0;-34.95;9.75;31.26;38.78;-22.54;-105.69;5.0;986.79;39.276;35.955402;-83.928535;816.61;NaN;;4.61;12.226105;54.2;15 / 18;30024;2022-10-24 16:25:13:274
13.2574;2.4227;1.1372;8.0372;-2.144;-5.194;4.6336;4.5332;6.2257;-0.968;-0.6263;1.1551;4757.0;-35.66;6.34;34.67;125.31;14.02;-124.22;5.0;986.82;42.714;35.955414;-83.92852;815.82;NaN;;4.57;12.226105;64.6;15 / 18;30524;2022-10-24 16:25:13:774
5.0468;-2.1308;-3.1819;8.1626;5.2243;-1.4996;-1.3637;-7.8018;-1.8283;-0.0248;-0.4568;-0.0538;5106.0;-31.31;1.43;34.24;66.95;-19.58;-97.26;5.0;986.82;42.327;35.955414;-83.92852;815.82;NaN;;4.57;12.226105;64.6;15 / 18;31024;2022-10-24 16:25:14:274
11.9871;4.4447;3.7277;9.2296;2.7368;-1.8696;0.3365;4.4289;4.5532;-0.8736;0.0813;0.4631;5192.0;-32.76;-5.16;24.32;74.95;-13.67;-104.13;5.0;986.81;42.409;35.95542;-83.92851;815.69;NaN;;4.39;12.226105;54.6;15 / 18;31524;2022-10-24 16:25:14:774
6.2234;2.4132;4.4901;5.4455;3.264;7.4741;1.6138;-4.2181;-4.1072;-0.4302;3.13;1.1491;6582.0;-36.79;0.3;4.69;79.81;-19.44;-36.08;5.0;986.8;42.951;35.95542;-83.92851;815.69;NaN;;4.39;12.226105;54.6;15 / 18;32024;2022-10-24 16:25:15:274
-0.2046;2.3079;9.9392;1.738;1.3677;9.554;-1.1046;-0.0539;-0.5914;0.9312;-0.0983;0.4791;8906.0;-24.47;12.02;-31.03;57.11;1.0;-11.05;5.0;986.79;41.418;35.955433;-83.928505;816.3;NaN;;4.93;12.226105;34.7;15 / 18;32525;2022-10-24 16:25:15:775
1.2556;3.3829;8.6928;2.2606;2.2485;9.2739;-1.9887;0.7962;-2.5271;-0.1794;-0.5385;-0.1216;8479.0;-9.36;12.58;-42.3;356.94;-13.25;-13.7;5.0;986.8;41.971;35.955433;-83.928505;816.3;NaN;;4.93;12.226105;34.7;15 / 18;33024;2022-10-24 16:25:16:274
-3.5934;3.693;7.9603;-3.1482;3.7974;8.4758;0.3846;0.188;-1.1319;0.7995;0.6292;-0.009;7894.0;2.93;6.54;-43.5;28.42;-22.78;20.38;5.0;986.81;42.933;35.955444;-83.9285;816.31;NaN;;4.61;12.226105;39.7;15 / 18;33524;2022-10-24 16:25:16:774
-6.2617;6.1959;3.6018;-6.276;6.7398;3.37;2.2886;-1.3283;-0.4484;1.5196;1.0939;-0.3889;5132.0;20.1;-6.51;-36.3;33.96;-36.66;46.08;5.0;986.77;44.301;35.955444;-83.9285;816.31;NaN;;4.61;12.226105;39.7;15 / 18;34024;2022-10-24 16:25:17:274
-9.8303;3.8366;2.0495;-7.1994;6.4232;1.7554;1.7785;-1.0752;-0.7442;0.3555;-0.0978;-0.6453;4686.0;27.32;-21.49;-22.8;63.66;-43.48;73.39;5.0;986.81;42.294;35.955452;-83.92849;816.57;NaN;;4.54;12.226105;39.7;14 / 18;34525;2022-10-24 16:25:17:775
-8.4715;3.717;0.0144;-8.4652;4.7634;1.3491;-0.5865;-1.9662;-0.5815;-0.2525;-0.1689;0.5514;5673.0;32.7;-24.32;-14.79;116.96;-26.9;84.04;5.0;986.84;45.7;35.955452;-83.92849;816.57;NaN;;4.54;12.226105;39.7;14 / 18;35024;2022-10-24 16:25:18:274
-7.4874;4.0089;1.1898;-7.8354;5.2646;2.6574;-0.6703;-1.7422;-1.2281;-0.2466;-0.0753;0.437;6968.0;29.33;-24.54;-15.54;121.59;-32.47;71.27;5.0;986.82;44.788;35.955452;-83.92849;816.57;NaN;;4.54;12.226105;39.7;13 / 18;35524;2022-10-24 16:25:18:774
-4.7764;4.3872;-0.4023;-7.6025;5.2866;-3.2286;1.6562;-1.2926;2.2257;2.1538;2.6029;0.2465;6492.0;28.99;-24.45;-11.79;110.47;-32.62;113.01;5.0;986.81;41.575;35.955452;-83.92849;816.57;NaN;;4.54;12.226105;39.7;13 / 18;36024;2022-10-24 16:25:19:274
-9.6936;8.1808;-1.7812;-8.6437;4.3907;-1.476;2.5323;0.9929;-1.3486;-1.015;-0.2446;-0.7256;7080.0;31.43;-26.63;3.99;175.01;-27.33;98.9;5.0;986.81;42.097;35.95546;-83.928474;812.5;NaN;;4.5;12.226105;61.2;13 / 18;36524;2022-10-24 16:25:19:774
1.0977;6.3084;4.4758;-1.8701;6.0612;7.479;-0.2574;0.607;-3.2668;-0.5446;-1.2118;1.6397;8901.0;26.01;-19.71;-18.32;344.68;-42.11;52.16;5.0;986.85;41.889;35.95546;-83.928474;812.5;NaN;;4.5;12.226105;61.2;13 / 18;37024;2022-10-24 16:25:20:274
-1.8075;4.7617;6.1768;-0.8883;3.653;9.0574;-1.7414;1.9615;-2.4977;-1.4972;1.0915;0.8812;9301.0;-10.84;-8.19;-36.53;55.7;-25.12;1.83;5.0;986.76;41.95;35.955467;-83.92847;810.45;NaN;;3.6;12.226105;29.8;13 / 18;37524;2022-10-24 16:25:20:774
6.8842;0.4693;0.6284;9.1614;3.1959;1.4235;-0.2456;1.3645;9.7951;1.0581;-2.2223;2.1441;7004.0;-23.12;0.86;-23.85;295.33;-19.02;-81.17;5.0;986.8;42.198;35.955467;-83.92847;810.45;NaN;;3.6;12.226105;29.8;13 / 18;38024;2022-10-24 16:25:21:274
8.2681;1.3825;3.3398;9.5368;0.2563;-2.2704;2.0441;0.3873;0.5315;-2.4061;-0.2919;0.3111;7176.0;-37.28;13.11;8.42;358.07;4.61;-102.71;5.0;986.85;42.069;35.955475;-83.92847;809.54;NaN;;4.03;12.226105;35.6;12 / 18;38524;2022-10-24 16:25:21:774
9.69;1.9825;6.3287;8.1129;2.4372;4.9407;3.2693;-0.2973;0.98;1.1918;4.1028;-0.5501;8339.0;-38.46;6.38;14.18;69.17;-14.39;-58.66;5.0;986.85;41.613;35.955475;-83.92847;809.54;NaN;;4.03;12.226105;35.6;12 / 18;39025;2022-10-24 16:25:22:275
2.8789;5.4622;2.4873;4.1632;6.05;6.4988;-1.7277;-0.165;0.2788;-1.2538;-2.4529;-1.0059;10036.0;-31.26;-8.92;-26.74;33.77;-38.09;-32.64;5.0;986.83;41.537;35.955482;-83.92845;808.65;NaN;;4.46;12.226105;51.8;12 / 18;39525;2022-10-24 16:25:22:775
9.2471;2.4335;2.0818;8.7013;2.449;3.8027;-1.5603;0.6045;-0.6674;0.1211;-1.7413;-0.1348;7423.0;-39.92;-7.93;-13.31;63.53;-16.51;-60.82;5.0;986.84;41.273;35.955482;-83.92845;808.65;NaN;;4.46;12.226105;51.8;12 / 18;40025;2022-10-24 16:25:23:275
3.9323;2.4299;6.871;6.0886;1.8314;7.4663;0.1785;-2.3432;4.2598;3.4196;2.4338;0.9584;9304.0;-44.36;-6.79;-1.93;95.43;-7.24;-52.98;5.0;986.88;42.251;35.955486;-83.92844;807.73;NaN;;4.21;12.226105;61.8;12 / 18;40524;2022-10-24 16:25:23:774
0.3927;5.3952;4.2015;1.1297;7.4393;6.2889;-0.388;-1.8033;-0.9465;0.5651;0.4901;0.1562;6956.0;-32.16;-18.71;-22.2;74.46;-46.96;-11.6;5.0;986.82;41.403;35.955486;-83.92844;807.73;NaN;;4.21;12.226105;61.8;12 / 18;41024;2022-10-24 16:25:24:274
1.2054;6.2964;6.4666;1.2997;6.2049;7.482;-1.0258;0.7991;0.9648;-0.5251;0.0357;-0.1891;7358.0;-25.2;-23.44;-28.07;83.24;-39.25;-9.85;5.0;986.84;41.645;35.955498;-83.92843;807.88;NaN;;4.07;12.226105;46.5;12 / 18;41524;2022-10-24 16:25:24:774
0.5327;3.6631;4.8182;1.8427;5.9071;7.608;-0.3501;-1.6442;-0.0882;0.7358;-1.0804;0.5306;8197.0;-27.92;-16.26;-34.57;58.37;-37.04;-13.61;5.0;986.82;42.872;35.955498;-83.92843;807.88;NaN;;4.07;12.226105;46.5;12 / 18;42024;2022-10-24 16:25:25:274
1.7692;3.4331;4.8709;5.8233;4.2269;6.6628;-4.1607;-0.7407;-2.7991;-1.1268;-0.4866;-0.6224;7044.0;-38.74;-17.98;-29.19;57.75;-30.56;-37.68;5.0;986.84;43.29;35.955505;-83.92841;807.8;NaN;;4.68;12.226105;44.1;12 / 18;42524;2022-10-24 16:25:25:774
2.2014;0.9278;-0.5387;6.0214;7.0103;3.2816;1.4099;-3.3642;0.4111;1.7418;-0.1591;-0.8875;6217.0;-52.05;-19.78;-10.5;70.2;-30.07;-56.8;5.0;986.86;42.569;35.955505;-83.92841;807.8;NaN;;4.68;12.226105;44.1;12 / 18;43024;2022-10-24 16:25:26:274
11.0668;-3.5109;2.339;9.2021;-1.5625;-3.0085;2.7717;-1.4261;3.5407;-5.1933;0.0044;3.2816;5636.0;-47.1;-18.09;21.3;151.61;-0.18;-103.28;5.0;986.9;41.649;35.955513;-83.928406;808.52;NaN;;4.46;12.226105;51.4;12 / 18;43525;2022-10-24 16:25:26:775
10.9651;-5.7577;-1.0283;9.6489;-0.9763;-1.4547;5.0662;-3.3367;2.6077;3.8195;0.6312;-3.4917;6957.0;-42.51;-5.01;35.19;109.03;5.71;-98.57;5.0;986.86;41.232;35.955513;-83.928406;808.52;NaN;;4.46;12.226105;51.4;12 / 18;44024;2022-10-24 16:25:27:274
10.2084;-2.8681;-3.1831;8.9705;-2.3129;-3.2173;1.5612;-1.0136;-1.4542;-1.6478;0.4264;3.2964;4818.0;-37.09;-3.47;31.26;99.82;-0.86;-113.96;5.0;986.86;40.622;35.955517;-83.92839;808.24;NaN;;4.68;12.226105;61.2;12 / 18;44524;2022-10-24 16:25:27:774
12.2243;-6.6664;2.1081;9.57;-1.5758;-1.4499;3.3659;-1.5425;8.1116;5.2517;0.7079;-2.1905;8050.0;-33.32;-0.3;29.14;104.06;9.25;-98.62;5.0;986.85;40.551;35.955517;-83.92839;808.24;NaN;;4.68;12.226105;61.2;12 / 18;45024;2022-10-24 16:25:28:274
10.1246;-2.2062;-1.6771;9.0285;-1.8437;-3.3551;-0.0852;-1.5519;-0.629;-2.904;0.7643;3.1524;5178.0;-30.38;0.23;21.92;123.48;10.84;-110.39;5.0;986.85;40.646;35.95552;-83.928375;807.78;NaN;;4.39;12.226105;63.3;12 / 18;45525;2022-10-24 16:25:28:775
11.84;-5.0803;-1.7225;9.4651;-1.651;-1.9639;4.6604;-2.8971;1.4561;2.6235;-0.1501;-2.211;5290.0;-20.53;10.88;27.77;99.59;24.95;-113.79;5.0;986.85;41.06;35.95552;-83.928375;807.78;NaN;;4.39;12.226105;63.3;12 / 18;46025;2022-10-24 16:25:29:275
12.4217;-4.0531;-5.085;8.9152;-0.5246;-4.0514;-1.9395;-4.2786;-0.8408;-1.788;0.7423;3.8712;6177.0;-28.57;9.09;23.48;34.82;-14.27;-109.4;5.0;986.87;40.672;35.95553;-83.92837;808.06;NaN;;4.21;12.226105;47.9;12 / 18;46525;2022-10-24 16:25:29:775
14.7153;-4.9893;0.9003;8.357;-3.6963;-3.5593;5.4493;2.5458;4.6035;-0.3296;1.8097;0.3155;6660.0;-21.28;11.64;31.69;112.11;25.24;-129.11;5.0;986.88;40.814;35.95553;-83.92837;808.06;NaN;;4.21;12.226105;47.9;12 / 18;47024;2022-10-24 16:25:30:274
6.4173;-2.8334;-3.772;9.2286;0.8548;-3.2051;-2.006;-6.6495;0.3;-0.2181;-0.1784;2.1526;7714.0;-28.54;7.2;25.5;56.12;-5.0;-109.15;5.0;986.85;41.203;35.955536;-83.92835;809.32;NaN;;3.82;12.226105;53.8;12 / 18;47525;2022-10-24 16:25:30:775
12.97;-4.2568;0.3927;7.6683;-4.6937;-3.9162;8.2286;1.2522;4.0701;1.5458;0.4738;-1.9013;5378.0;-21.02;13.52;28.39;100.15;28.6;-117.05;5.0;986.85;40.752;35.955536;-83.92835;809.32;NaN;;3.82;12.226105;53.8;12 / 18;48024;2022-10-24 16:25:31:274
7.4527;-5.406;-3.7481;9.4356;1.3668;-2.2962;-3.053;-6.3425;0.0934;0.4979;-0.4048;0.8876;7905.0;-25.11;11.04;25.69;51.97;-8.01;-103.68;5.0;986.83;42.009;35.95554;-83.92834;808.95;NaN;;4.28;12.226105;56.1;12 / 18;48524;2022-10-24 16:25:31:774
14.5526;-1.9594;-1.0403;6.9231;-5.2803;-4.5121;3.6452;3.263;4.5629;-0.263;0.657;0.0909;5344.0;-23.89;13.05;27.58;105.92;26.44;-118.69;5.0;986.87;39.86;35.95554;-83.92834;808.95;NaN;;4.28;12.226105;56.1;12 / 18;49024;2022-10-24 16:25:32:274
6.3251;-5.9949;-2.9698;9.2874;0.9879;-2.9897;-2.8948;-7.2386;0.3008;1.7166;-0.7214;-1.5528;6627.0;-24.67;9.11;24.75;56.79;-7.71;-101.24;5.0;986.82;41.289;35.955547;-83.92833;808.18;NaN;;4.1;12.226105;50.3;12 / 18;49524;2022-10-24 16:25:32:774
13.6511;-2.825;0.6464;7.3886;-4.514;-4.6046;2.3221;1.6385;5.7828;-0.7831;-0.4588;1.184;5363.0;-20.31;9.24;22.09;122.62;27.41;-121.93;5.0;986.87;39.68;35.955547;-83.92833;808.18;NaN;;4.1;12.226105;50.3;12 / 18;50024;2022-10-24 16:25:33:274
8.8104;-5.8104;-2.7664;9.0987;2.4587;-2.709;-1.3612;-7.9128;0.5729;2.4731;-0.5523;-2.9143;6431.0;-18.84;11.18;20.96;54.98;-3.34;-99.65;5.0;986.82;41.179;35.955555;-83.928314;808.2;NaN;;4.39;12.226105;44.5;12 / 18;50525;2022-10-24 16:25:33:775
13.966;-2.1787;0.6727;8.4873;-3.7579;-3.1646;1.2762;1.3736;3.4911;-0.9141;-0.934;1.9381;4542.0;-25.26;10.97;14.68;98.81;22.53;-110.45;5.0;986.8;41.457;35.955555;-83.928314;808.2;NaN;;4.39;12.226105;44.5;12 / 18;51025;2022-10-24 16:25:34:275
7.4587;-5.7841;-1.992;9.5456;1.0189;-2.0033;-0.1536;-5.3238;0.9875;0.3096;-0.7137;-1.3293;4830.0;-19.67;17.76;20.06;37.22;-5.96;-101.85;5.0;986.84;41.448;35.955563;-83.92831;808.52;NaN;;4.68;12.226105;47.7;12 / 18;51525;2022-10-24 16:25:34:775
8.8487;-4.5679;0.2656;7.2576;-4.8751;-4.4419;2.4753;1.9376;2.4628;-2.5727;0.2431;1.9158;4908.0;-28.26;10.43;20.48;96.25;19.18;-106.41;5.0;986.82;41.39;35.955563;-83.92831;808.52;NaN;;4.68;12.226105;47.7;12 / 18;52025;2022-10-24 16:25:35:275
6.5671;-6.5922;-1.7967;9.5918;0.2227;-2.0295;0.4612;-6.5929;1.5576;1.5721;-1.1538;-2.4025;4097.0;-21.43;17.53;24.02;69.34;21.84;-101.84;5.0;986.82;41.041;35.95557;-83.92829;808.33;NaN;;4.72;12.226105;47.1;12 / 18;52524;2022-10-24 16:25:35:774
13.0573;-2.849;-0.8067;7.0856;-5.5348;-3.9154;2.5165;2.0883;3.7068;-2.7302;0.7245;2.3853;3532.0;-25.48;11.03;21.19;96.58;22.76;-106.96;5.0;986.81;41.679;35.95557;-83.92829;808.33;NaN;;4.72;12.226105;47.1;12 / 18;53024;2022-10-24 16:25:36:274
7.1931;-5.8259;-2.6396;9.417;-1.7637;-2.0927;2.3797;-5.1326;1.2178;2.0943;-0.24;-3.2042;4380.0;-17.03;13.84;25.76;65.75;10.36;-102.53;5.0;986.81;41.463;35.955585;-83.92828;808.11;NaN;;4.64;12.226105;43.2;13 / 18;53526;2022-10-24 16:25:36:776
9.5632;-3.4977;-1.2018;8.0513;-3.9504;-3.9676;1.4641;0.0931;1.896;-2.2718;-0.1076;2.2627;3572.0;-23.68;11.1;22.91;105.07;23.75;-116.23;5.0;986.84;41.79;35.955585;-83.92828;808.11;NaN;;4.64;12.226105;43.2;13 / 18;54025;2022-10-24 16:25:37:275
9.0604;-5.9937;-1.5945;9.5335;-0.3762;-2.2674;1.1945;-5.5459;0.6103;2.6466;0.0489;-3.2199;4629.0;-16.67;12.49;28.52;85.19;21.48;-108.79;5.0;986.79;43.55;35.955593;-83.92826;807.48;NaN;;5.0;12.226105;42.1;13 / 18;54525;2022-10-24 16:25:37:775
8.9767;-2.7903;-2.3438;8.8434;-2.7423;-3.2318;0.6138;-1.8533;-0.8107;-1.9884;0.6024;2.5748;3862.0;-23.4;11.78;20.98;46.24;0.15;-108.83;5.0;986.81;40.902;35.955593;-83.92826;807.48;NaN;;5.0;12.226105;42.1;13 / 18;55024;2022-10-24 16:25:38:274
12.6254;-4.0352;-0.5195;9.4784;-1.7526;-1.8051;4.0706;-2.7235;2.0359;2.2107;-0.0111;-1.8273;4826.0;-13.61;14.18;26.31;79.24;23.95;-111.79;5.0;986.8;41.531;35.9556;-83.92825;807.57;NaN;;5.04;12.226105;38.1;13 / 18;55524;2022-10-24 16:25:38:774
11.0154;-4.9319;-3.2883;9.3171;-1.0776;-2.8637;-2.2422;-3.9717;-0.0844;-1.6879;0.2004;3.0962;4925.0;-26.25;13.58;23.18;53.95;6.31;-107.09;5.0;986.8;42.664;35.9556;-83.92825;807.57;NaN;;5.04;12.226105;38.1;13 / 18;56024;2022-10-24 16:25:39:274
13.4237;-2.9674;1.1204;8.6183;-3.6463;-2.9324;4.8857;1.3852;4.1576;0.8031;1.0633;-0.8857;4938.0;-17.23;15.66;30.15;93.07;28.85;-123.64;5.0;986.8;41.674;35.955612;-83.92824;808.16;NaN;;4.79;12.226105;43.0;13 / 18;56525;2022-10-24 16:25:39:775
6.9631;-3.5803;-3.5456;9.2266;1.6199;-2.901;-2.7968;-6.6162;0.8232;-0.1508;-0.0649;2.3715;5319.0;-27.77;8.64;23.12;43.19;-9.51;-107.45;5.0;986.77;41.914;35.955612;-83.92824;808.16;NaN;;4.79;12.226105;43.0;13 / 18;57024;2022-10-24 16:25:40:274
12.0963;-0.4561;0.1507;7.5821;-4.9183;-3.8069;7.2279;2.9975;4.2763;2.0107;-0.2455;-1.6545;4844.0;-21.69;14.93;23.72;101.16;30.1;-116.66;5.0;986.8;44.828;35.95562;-83.92822;808.73;NaN;;5.08;12.226105;45.5;13 / 18;57524;2022-10-24 16:25:40:774
11.9273;-6.1959;-4.1871;9.1138;-1.1725;-3.4256;-3.81;-7.4731;1.1724;0.5257;-0.0529;0.0599;5862.0;-29.14;13.8;17.76;23.5;-12.06;-106.63;5.0;986.78;43.491;35.95562;-83.92822;808.73;NaN;;5.08;12.226105;45.5;13 / 18;58024;2022-10-24 16:25:41:274
15.0314;-4.349;0.5865;6.5296;-5.6369;-4.6647;5.3089;4.2037;6.9926;1.1405;0.4167;-0.4368;5693.0;-24.39;18.54;22.74;110.91;31.8;-127.99;5.0;986.82;43.415;35.955627;-83.928215;807.95;NaN;;4.97;12.226105;47.0;13 / 18;58525;2022-10-24 16:25:41:775
6.1181;-6.0081;-1.2473;9.3426;1.6968;-2.4509;-3.0725;-7.9419;1.08;1.2643;-0.4736;-1.8301;5671.0;-26.27;17.12;25.39;43.37;-7.44;-100.9;5.0;986.78;43.902;35.955627;-83.928215;807.95;NaN;;4.97;12.226105;47.0;13 / 18;59024;2022-10-24 16:25:42:274
13.8272;0.2752;-1.0798;6.1353;-6.6402;-3.7996;6.2163;3.8898;3.746;-0.4277;-0.2711;1.063;4370.0;-26.57;20.93;25.01;141.98;42.62;-121.77;5.0;986.77;42.748;35.95564;-83.9282;808.05;NaN;;5.15;12.226105;50.2;14 / 18;59525;2022-10-24 16:25:42:775
6.7059;-5.8199;-0.4836;9.4496;1.9411;-1.763;-2.3175;-8.2989;0.6899;0.5214;-0.0884;-0.5248;5729.0;-27.39;26.44;25.33;31.8;-11.42;-100.57;5.0;986.77;43.857;35.95564;-83.9282;808.05;NaN;;5.15;12.226105;50.2;14 / 18;60024;2022-10-24 16:25:43:274
13.3639;-1.1252;-0.7158;5.9388;-5.6607;-5.3719;7.2282;3.882;4.8758;-1.8225;-0.5466;2.7233;5137.0;-39.51;21.38;21.51;159.53;30.77;-116.33;5.0;986.79;43.419;35.955647;-83.928185;809.88;NaN;;4.72;12.226105;44.1;14 / 18;60524;2022-10-24 16:25:43:774
7.8682;-5.6632;-2.8681;9.4538;0.8776;-2.4548;0.7979;-6.5938;0.0251;0.7865;-0.3254;-2.3178;5983.0;-23.36;26.31;35.79;45.36;-5.13;-104.56;5.0;986.78;44.387;35.955647;-83.928185;809.88;NaN;;4.72;12.226105;44.1;14 / 18;61024;2022-10-24 16:25:44:274
10.0385;-2.7592;0.7516;7.3488;-4.6755;-4.5062;2.5183;1.6808;4.4913;-3.0172;0.6692;2.5664;5614.0;-37.22;16.28;24.56;84.59;19.04;-112.03;5.0;986.79;44.225;35.95565;-83.92818;810.51;NaN;;4.0;12.226105;42.5;14 / 18;61524;2022-10-24 16:25:44:774
7.162;-5.9291;-2.7772;9.4195;-1.2831;-2.4076;3.8497;-4.8819;1.0626;1.8948;-0.051;-3.6867;5938.0;-23.29;25.67;30.54;48.08;7.52;-104.34;5.0;986.77;43.003;35.95565;-83.92818;810.51;NaN;;4.0;12.226105;42.5;14 / 18;62024;2022-10-24 16:25:45:274
10.4456;-3.9;0.262;8.1079;-3.9773;-3.8227;2.3607;-0.1043;1.0367;-2.4048;0.8356;3.4215;5486.0;-40.57;19.84;20.7;16.55;10.11;-112.82;5.0;986.79;43.706;35.955666;-83.92817;810.61;NaN;;4.21;12.226105;42.0;14 / 18;62524;2022-10-24 16:25:45:774
12.3978;-7.7414;-0.7696;8.7304;-3.4439;-2.8441;5.921;-1.0524;3.7536;2.7858;0.0103;-4.1891;5772.0;-22.71;32.03;35.98;55.88;20.56;-108.04;5.0;986.8;43.271;35.955666;-83.92817;810.61;NaN;;4.21;12.226105;42.0;14 / 18;63024;2022-10-24 16:25:46:274
11.0536;-2.6228;-3.5264;8.3598;-3.2117;-3.9961;0.2865;-1.5592;-0.0124;-3.9075;1.598;3.5976;5104.0;-46.27;14.04;27.39;132.74;19.12;-115.55;5.0;986.78;44.021;35.955673;-83.92816;809.84;NaN;;4.54;12.226105;47.0;14 / 18;63524;2022-10-24 16:25:46:774
8.8104;-7.1955;-3.1113;9.206;-0.6232;-3.3214;3.4535;-7.8282;0.925;5.9793;-1.529;-3.5005;6573.0;-38.78;21.43;36.36;87.52;22.63;-106.87;5.0;986.75;45.94;35.955673;-83.92816;809.84;NaN;;4.54;12.226105;47.0;14 / 18;64024;2022-10-24 16:25:47:274
10.716;-1.7656;-0.8234;8.8182;-2.5999;-3.4134;3.0765;-1.4112;0.2918;-2.256;0.443;3.005;5360.0;-43.26;7.8;28.71;45.21;-4.88;-110.23;5.0;986.76;48.593;35.955673;-83.92815;811.15;NaN;;4.32;12.226105;64.9;14 / 18;64526;2022-10-24 16:25:47:776
9.3;-8.2107;-0.3688;9.055;-3.234;-1.9281;2.6677;-5.3557;3.6631;2.367;-0.1985;-3.5996;5143.0;-32.78;18.69;33.84;123.94;37.95;-113.73;5.0;986.8;47.996;35.955673;-83.92815;811.15;NaN;;4.32;12.226105;64.9;14 / 18;65024;2022-10-24 16:25:48:274
10.995;-7.4324;-1.1635;9.7188;-0.7109;-1.0996;-4.332;-6.3695;-0.5368;-1.632;-0.6605;2.631;5713.0;-39.71;11.12;20.79;64.19;4.16;-96.45;5.0;986.78;45.201;35.95568;-83.92814;811.39;NaN;;4.72;12.226105;53.7;14 / 18;65526;2022-10-24 16:25:48:776
13.1964;-3.821;-0.0467;7.2612;-6.0699;-2.5692;6.9982;1.9501;4.077;2.9042;-1.0605;-3.4049;3876.0;-25.57;24.68;25.76;93.27;38.24;-109.49;5.0;986.81;44.368;35.95568;-83.92814;811.39;NaN;;4.72;12.226105;53.7;14 / 18;66024;2022-10-24 16:25:49:274
11.9871;-6.0296;-1.4665;9.4761;-1.851;-1.7166;-1.7452;-4.5149;0.3447;-2.5806;1.3143;1.9064;6112.0;-32.44;19.52;21.0;27.8;-6.36;-104.08;5.0;986.8;44.294;35.955685;-83.92813;811.19;NaN;;4.03;12.226105;58.9;16 / 18;66524;2022-10-24 16:25:49:774
13.608;-2.4479;-3.5803;5.493;-7.3223;-3.5188;9.788;3.2443;3.9934;2.9043;-0.24;-2.6357;4085.0;-28.78;20.38;29.19;144.6;41.96;-123.04;5.0;986.8;45.183;35.955685;-83.92813;811.19;NaN;;4.03;12.226105;58.9;16 / 18;67024;2022-10-24 16:25:50:274
5.5316;-5.5364;-0.6727;9.3503;0.0686;-2.956;-3.468;-7.1969;1.2485;0.378;-0.4957;-0.2525;6602.0;-32.83;20.01;28.18;35.28;-9.44;-105.01;5.0;986.81;44.58;35.95569;-83.92812;812.2;NaN;;3.71;12.226105;50.8;16 / 18;67524;2022-10-24 16:25:50:774
13.5697;-0.9649;-2.6312;5.9249;-7.2246;-2.9783;8.5129;6.6852;2.3603;0.3322;0.3971;-1.2176;4261.0;-25.07;25.13;33.53;119.42;47.45;-116.69;5.0;986.79;44.993;35.95569;-83.92812;812.2;NaN;;3.71;12.226105;50.8;16 / 18;68024;2022-10-24 16:25:51:274
8.1111;-7.4934;-2.5343;8.7897;-0.4647;-4.3239;-3.3034;-7.4298;2.5855;-0.6409;-0.7316;0.7124;5185.0;-26.83;24.36;32.94;27.67;-8.03;-119.58;5.0;986.78;43.504;35.955696;-83.9281;813.01;NaN;;4.03;12.226105;60.4;16 / 18;68524;2022-10-24 16:25:51:774
14.8481;-2.0028;-0.262;5.6969;-6.4306;-4.729;6.0218;4.4026;3.8825;0.2305;0.3536;0.3013;5757.0;-25.59;19.22;40.73;136.86;40.98;-129.7;5.0;986.8;43.823;35.955696;-83.9281;813.01;NaN;;4.03;12.226105;60.4;16 / 18;69024;2022-10-24 16:25:52:274
5.0922;-5.8068;-1.3669;9.5426;1.6717;-1.5214;-3.3262;-7.7087;1.0165;0.9874;-1.5278;0.1787;5929.0;-37.12;18.56;34.95;47.98;-9.81;-99.06;5.0;986.8;45.16;35.955696;-83.92809;814.45;NaN;;4.64;12.226105;66.9;16 / 18;69524;2022-10-24 16:25:52:774
14.4066;-3.02;2.7126;6.0426;-5.5944;-5.3254;7.0675;4.7684;4.7925;-1.7335;-0.516;1.7391;4957.0;-36.96;21.98;41.91;147.03;40.38;-126.14;5.0;986.81;45.088;35.955696;-83.92809;814.45;NaN;;4.64;12.226105;66.9;16 / 18;70025;2022-10-24 16:25:53:275
4.4004;-6.6999;-2.3342;8.7568;3.1799;-3.0621;-0.5697;-10.1495;-0.0462;0.6935;-0.474;-1.2309;5787.0;-37.33;17.31;47.23;69.56;2.73;-100.03;5.0;986.81;44.555;35.955704;-83.928085;815.72;NaN;;3.92;12.226105;51.4;16 / 18;70524;2022-10-24 16:25:53:774
13.7157;0.6464;-2.4885;5.7358;-6.5165;-4.5615;6.5924;6.3363;3.8749;0.4638;-1.1993;2.1996;4810.0;-38.42;4.93;42.6;148.06;31.37;-123.08;5.0;986.78;46.407;35.955704;-83.928085;815.72;NaN;;3.92;12.226105;51.4;16 / 18;71024;2022-10-24 16:25:54:274
6.8818;-5.3279;-2.4694;9.1962;2.4761;-2.3387;1.9612;-9.3617;0.3871;0.9794;-0.4377;-2.6164;5370.0;-30.07;13.16;41.83;55.92;-14.62;-104.27;5.0;986.78;43.576;35.95571;-83.92808;814.8;NaN;;4.18;12.226105;43.1;16 / 18;71525;2022-10-24 16:25:54:775
13.6702;-1.8649;3.9467;6.8229;-5.9212;-3.8155;4.5521;3.0664;4.3438;-1.2193;0.4846;2.1348;4923.0;-32.89;15.94;37.11;133.83;37.14;-119.22;5.0;986.81;44.453;35.95571;-83.92808;814.8;NaN;;4.18;12.226105;43.1;16 / 18;72024;2022-10-24 16:25:55:274
9.8459;-7.5811;-0.9087;9.6639;1.5495;-0.6157;0.2965;-8.7729;-0.1901;0.0817;0.7054;-3.0226;4544.0;-26.55;29.12;40.22;58.41;12.01;-99.8;5.0;986.79;45.136;35.95572;-83.92806;815.27;NaN;;4.72;12.226105;47.6;15 / 18;72524;2022-10-24 16:25:55:774
11.1314;-0.4681;1.1061;8.5577;-3.0339;-3.7056;1.5004;2.1542;1.8423;-1.7301;-0.5259;1.9377;4534.0;-52.57;7.88;28.58;84.71;6.62;-107.05;5.0;986.81;45.566;35.95572;-83.92806;815.27;NaN;;4.72;12.226105;47.6;15 / 18;73024;2022-10-24 16:25:56:274
6.7525;-4.2197;-2.8585;9.4669;-0.6509;-2.4746;-1.9908;-2.8903;-0.0736;1.1577;-0.1249;-1.6255;5406.0;-42.82;10.71;38.16;89.21;11.72;-104.87;5.0;986.8;44.696;35.955727;-83.928055;817.15;NaN;;4.82;12.226105;54.5;15 / 18;73525;2022-10-24 16:25:56:775
8.7027;-1.5359;-0.7493;8.2271;-4.1394;-3.3692;1.1357;0.7544;1.8005;-1.0412;-0.0663;1.085;4912.0;-35.48;2.08;34.86;132.39;24.97;-112.27;5.0;986.81;44.303;35.955727;-83.928055;817.15;NaN;;4.82;12.226105;54.5;15 / 18;74024;2022-10-24 16:25:57:274
11.3288;-1.8769;-0.7313;9.534;0.6642;-2.1982;2.5577;-3.6744;1.3562;1.1001;0.1455;-2.5978;5289.0;-28.52;2.49;32.61;111.09;16.8;-107.04;5.0;986.82;43.824;35.955734;-83.92805;816.87;NaN;;3.96;12.226105;45.9;15 / 18;74524;2022-10-24 16:25:57:774
-1.3825;1.8015;-2.4371;2.558;9.4437;-0.6656;7.8008;-1.2848;1.9328;0.5346;0.8482;-3.4936;5871.0;-25.13;-9.94;26.87;36.15;-74.36;-104.58;5.0;986.79;45.205;35.955734;-83.92805;816.87;NaN;;3.96;12.226105;45.9;15 / 18;75024;2022-10-24 16:25:58:274
-1.2078;7.8586;-1.4222;-1.3687;9.6005;-1.4586;-1.9849;-1.1899;2.9813;-0.3732;0.4397;0.3956;3738.0;-5.25;-34.59;23.33;287.01;-78.23;136.82;5.0;986.75;44.571;35.955746;-83.92804;818.02;NaN;;4.68;12.226105;41.4;15 / 18;75524;2022-10-24 16:25:58:774
3.3434;6.6185;7.2745;3.5001;5.2907;7.4786;2.088;1.0207;4.7167;-1.6507;1.4954;1.7468;5575.0;-21.0;-29.68;9.0;132.62;-38.9;-34.05;5.0;986.81;44.662;35.955746;-83.92804;818.02;NaN;;4.68;12.226105;41.4;15 / 18;76024;2022-10-24 16:25:59:274
2.4383;3.585;3.3194;4.2664;4.8632;7.37;-1.7991;-0.7823;4.307;0.9254;-0.9452;0.0422;8826.0;-31.82;-11.94;-27.88;71.76;-27.04;-21.34;5.0;986.75;44.419;35.955753;-83.928024;817.18;NaN;;4.64;12.226105;56.0;15 / 18;76526;2022-10-24 16:25:59:776
14.9261;-2.6384;-1.9463;8.9429;-2.5379;-3.123;6.8381;-0.3483;1.1783;-2.9026;1.1454;3.7123;6145.0;-36.64;-2.23;3.32;254.07;1.14;-109.47;5.0;986.79;44.674;35.955753;-83.928024;817.18;NaN;;4.64;12.226105;56.0;15 / 18;77025;2022-10-24 16:26:00:275
11.8998;-3.8797;-0.772;9.1487;-2.7249;-2.2464;6.6736;1.6838;2.2772;2.2373;0.4579;-2.0786;6591.0;-22.01;9.51;34.11;87.08;16.13;-103.8;5.0;986.79;45.427;35.955753;-83.92802;814.28;NaN;;4.1;12.226105;64.4;15 / 18;77525;2022-10-24 16:26:00:775
12.903;-1.4653;-4.7689;9.1108;-1.4709;-3.3166;0.6002;-0.8355;-0.2128;-2.5055;0.6735;1.4531;7136.0;-33.62;12.38;28.99;70.33;8.63;-110.0;5.0;986.78;44.297;35.955753;-83.92802;814.28;NaN;;4.1;12.226105;64.4;15 / 18;78024;2022-10-24 16:26:01:274
13.3328;-3.7289;-1.3789;9.4513;-1.8486;-1.8511;4.5209;-2.0732;2.7995;1.3253;0.8882;-1.0463;6840.0;-30.47;13.01;35.57;94.82;20.19;-111.03;5.0;986.83;44.839;35.95576;-83.92801;814.16;NaN;;4.43;12.226105;42.8;15 / 18;78524;2022-10-24 16:26:01:774
12.1968;-2.5463;-3.5121;9.3192;-0.8827;-2.9229;0.5809;-4.2948;-1.3313;-1.1138;-0.1124;1.6656;7313.0;-37.99;7.01;28.43;48.92;-7.97;-107.77;5.0;986.79;45.004;35.95576;-83.92801;814.16;NaN;;4.43;12.226105;42.8;15 / 18;79024;2022-10-24 16:26:02:274
14.2173;-4.6875;1.7273;8.9842;-2.9421;-2.6075;5.0562;0.3771;4.8131;-0.4542;1.2204;0.1526;6640.0;-34.14;8.23;29.63;123.56;20.88;-115.82;5.0;986.83;43.724;35.95577;-83.92799;816.5;NaN;;4.75;12.226105;62.0;16 / 18;79525;2022-10-24 16:26:02:775
10.7734;-2.8729;-2.3174;9.3685;-0.8661;-2.766;-1.2008;-4.6611;-0.9575;-1.658;0.4362;2.5424;7311.0;-35.46;4.13;24.86;88.39;5.07;-106.45;5.0;986.77;43.973;35.95577;-83.92799;816.5;NaN;;4.75;12.226105;62.0;16 / 18;80025;2022-10-24 16:26:03:275
12.3583;-0.5841;-0.2982;8.3075;-4.3676;-2.8427;5.476;1.5197;2.3165;-0.415;0.4666;0.6241;6016.0;-32.79;7.39;25.29;144.27;28.53;-113.98;5.0;986.85;43.9;35.95577;-83.927986;816.98;NaN;;4.68;12.226105;71.4;16 / 18;80526;2022-10-24 16:26:03:776
10.2299;-3.3745;-2.7951;9.4765;-0.5829;-2.4547;-3.1473;-4.9894;0.5006;-0.3654;-0.3629;1.2774;7988.0;-33.51;5.53;23.33;74.97;3.41;-104.52;5.0;986.78;42.838;35.95577;-83.927986;816.98;NaN;;4.68;12.226105;71.4;16 / 18;81025;2022-10-24 16:26:04:275
16.4641;-3.2106;-0.3305;7.3787;-5.3399;-3.6348;6.204;1.6604;2.4719;-0.4818;0.7126;-0.7721;6271.0;-31.72;8.16;26.78;146.82;32.99;-116.23;5.0;986.8;43.612;35.955772;-83.92797;816.98;NaN;;4.9;12.226105;73.1;16 / 18;81525;2022-10-24 16:26:04:775
6.2043;-6.7202;-3.3769;9.2022;-1.5209;-3.0294;-2.0482;-5.2472;0.57;-0.5384;-0.0513;0.3773;8258.0;-30.34;3.26;21.88;67.52;-4.14;-105.32;5.0;986.83;43.629;35.955772;-83.92797;816.98;NaN;;4.9;12.226105;73.1;16 / 18;82024;2022-10-24 16:26:05:274
14.5837;-5.2741;-0.8465;7.1223;-5.2533;-4.2244;7.4514;1.9287;2.7126;-0.6215;0.8629;-0.2306;6471.0;-24.64;6.92;22.03;146.93;29.67;-119.98;5.0;986.82;44.562;35.955772;-83.927956;817.89;NaN;;4.79;12.226105;81.7;15 / 18;82525;2022-10-24 16:26:05:775
9.7223;-5.5603;-3.2501;8.8931;-2.7988;-3.0414;-0.9205;-6.1866;-2.4568;0.3037;-0.6407;0.2652;7968.0;-20.25;11.83;20.79;61.88;8.12;-103.38;5.0;986.77;44.467;35.955772;-83.927956;817.89;NaN;;4.79;12.226105;81.7;15 / 18;83024;2022-10-24 16:26:06:274
17.2005;-3.1543;-0.0299;6.6328;-5.2252;-4.9873;4.8013;2.9863;5.4085;-0.1219;0.8964;-0.4438;6445.0;-14.49;10.82;22.26;111.96;32.2;-126.94;5.0;986.79;45.77;35.955776;-83.92793;820.09;NaN;;4.75;12.226105;61.6;16 / 18;83524;2022-10-24 16:26:06:774
7.599;-6.5444;-4.2305;9.2878;-0.4216;-3.1193;-2.7354;-6.1359;-0.5677;-1.1676;0.6506;2.4077;7709.0;-15.47;11.31;26.31;63.23;2.46;-108.56;5.0;986.79;45.627;35.955776;-83.92793;820.09;NaN;;4.75;12.226105;61.6;16 / 18;84025;2022-10-24 16:26:07:275
13.4321;-1.4916;0.2333;8.0133;-4.0843;-3.9084;5.6926;1.7051;4.2105;-0.7784;0.8449;0.2041;6273.0;-7.16;12.75;31.26;93.11;30.21;-127.74;5.0;986.8;45.476;35.955784;-83.927925;821.31;NaN;;4.75;12.226105;56.7;16 / 18;84524;2022-10-24 16:26:07:774
11.3097;-4.5236;-4.1824;9.2914;-0.1626;-3.1328;-3.2905;-5.5203;-0.144;-0.3166;-0.1809;1.9729;7563.0;-15.54;9.56;34.89;69.65;-2.92;-103.74;5.0;986.77;44.836;35.955784;-83.927925;821.31;NaN;;4.75;12.226105;56.7;16 / 18;85025;2022-10-24 16:26:08:275
14.8831;-2.6133;-1.2209;7.6894;-4.7933;-3.7507;7.9526;1.3005;2.2771;-0.5791;0.3958;0.5242;5221.0;-17.74;20.85;35.57;96.74;34.83;-122.37;5.0;986.79;45.085;35.955784;-83.92791;822.02;NaN;;4.75;12.226105;63.2;16 / 18;85524;2022-10-24 16:26:08:774
8.1736;-6.2641;-2.8537;9.4275;0.2958;-2.6841;-2.9711;-5.1587;0.7644;0.342;-0.5201;0.6657;7766.0;-28.61;11.78;32.57;61.15;-1.73;-105.89;5.0;986.79;44.732;35.955784;-83.92791;822.02;NaN;;4.75;12.226105;63.2;16 / 18;86024;2022-10-24 16:26:09:274
14.3611;-2.6767;-1.4665;7.4915;-4.8861;-4.0217;5.8933;2.5189;2.6471;-0.8139;-0.0789;1.1723;5544.0;-25.86;12.08;33.49;121.13;31.05;-119.22;5.0;986.82;44.79;35.95579;-83.927895;822.46;NaN;;4.9;12.226105;61.4;16 / 18;86524;2022-10-24 16:26:09:774
5.3821;-6.1648;-3.0559;9.4084;0.3563;-2.7433;-2.2655;-5.059;0.7155;0.0429;-0.4855;0.0683;7744.0;-25.11;13.03;38.19;64.2;-2.08;-106.26;5.0;986.78;43.851;35.95579;-83.927895;822.46;NaN;;4.9;12.226105;61.4;16 / 18;87024;2022-10-24 16:26:10:274
14.2555;-2.3426;-1.9825;6.8564;-5.9414;-3.7228;3.9439;5.2375;1.8876;0.0851;0.4886;-0.2503;5394.0;-24.07;20.74;42.75;107.89;37.29;-118.5;5.0;986.77;46.985;35.9558;-83.92789;819.66;NaN;;4.54;12.226105;54.8;16 / 18;87525;2022-10-24 16:26:10:775
8.8678;-6.9356;-2.3509;9.3459;-0.4248;-2.94;-3.3559;-5.4658;0.6401;0.5469;-0.4006;-0.7984;7519.0;-33.19;16.03;42.49;63.19;-1.18;-103.2;5.0;986.79;45.079;35.9558;-83.92789;819.66;NaN;;4.54;12.226105;54.8;16 / 18;88025;2022-10-24 16:26:11:275
12.1155;-1.5658;-2.1655;6.8136;-6.0302;-3.6582;3.1538;4.3416;1.1139;-1.0528;0.5609;0.7625;5431.0;-34.82;10.93;43.48;119.18;29.71;-112.61;5.0;986.82;43.855;35.955807;-83.92787;819.47;NaN;;5.11;12.226105;57.1;16 / 18;88525;2022-10-24 16:26:11:775
8.8092;-5.3976;-2.7042;9.4477;0.4492;-2.5902;-2.3179;-5.2836;0.7282;1.0415;-0.3482;-1.5934;7610.0;-27.38;9.09;44.27;79.57;3.49;-102.9;5.0;986.77;44.994;35.955807;-83.92787;819.47;NaN;;5.11;12.226105;57.1;16 / 18;89024;2022-10-24 16:26:12:274
11.0225;0.5399;-2.0064;7.7057;-3.452;-4.9876;1.4907;2.8339;2.0524;-1.1535;-0.0318;1.9158;6792.0;-15.34;4.22;47.78;107.07;20.61;-122.91;5.0;986.77;46.775;35.955814;-83.927864;817.45;NaN;;4.93;12.226105;59.4;16 / 18;89525;2022-10-24 16:26:12:775
7.107;-4.0448;-2.7162;9.2182;1.2873;-3.0885;-1.5689;-5.0731;0.224;0.1694;-0.176;-0.5064;8350.0;-15.6;1.58;47.34;81.45;-7.54;-108.52;5.0;986.81;44.463;35.955814;-83.927864;817.45;NaN;;4.93;12.226105;59.4;16 / 18;90024;2022-10-24 16:26:13:274
12.7247;-0.9733;-1.7596;7.1451;-4.7713;-4.7279;2.8318;4.3;3.015;-0.8934;-0.0709;1.7322;7204.0;-22.44;12.11;43.95;98.76;22.66;-118.1;5.0;986.79;42.855;35.955826;-83.92786;817.2;NaN;;4.82;12.226105;65.1;16 / 18;90524;2022-10-24 16:26:13:774
6.3706;-4.4626;-2.2851;9.3984;0.9133;-2.6468;-1.4801;-5.0403;0.1685;0.3415;-0.1739;-1.2671;8489.0;-23.31;18.02;41.66;58.39;-5.34;-105.73;5.0;986.82;43.93;35.955826;-83.92786;817.2;NaN;;4.82;12.226105;65.1;16 / 18;91024;2022-10-24 16:26:14:274
10.2526;-0.583;-1.7895;7.4541;-4.859;-4.1227;2.254;4.1933;2.2752;-0.6562;-0.2714;1.7154;7439.0;-42.43;13.95;28.13;124.82;22.46;-113.76;5.0;986.79;43.597;35.955833;-83.92784;817.69;NaN;;4.9;12.226105;54.5;16 / 18;91524;2022-10-24 16:26:14:774
5.9231;-3.9275;-2.0483;9.753;0.4295;-0.9301;-2.1102;-4.8203;-1.1182;0.6556;-0.044;-1.2539;9329.0;-42.37;15.08;20.55;45.02;-2.51;-95.45;5.0;986.79;45.756;35.955833;-83.92784;817.69;NaN;;4.9;12.226105;54.5;16 / 18;92024;2022-10-24 16:26:15:274
8.0847;-0.1053;-1.2736;8.7747;-2.7725;-3.3895;-0.9771;2.4447;2.2776;-0.3115;-0.5158;0.6221;9390.0;-41.49;0.49;12.09;180.47;11.69;-106.41;5.0;986.79;46.443;35.95584;-83.92783;817.45;NaN;;4.54;12.226105;54.1;15 / 18;92525;2022-10-24 16:26:15:775
7.1776;-2.9841;-3.2441;9.5053;-0.4041;-2.3783;-1.0148;-2.051;1.8634;1.2822;-0.1232;-1.3062;9185.0;-35.85;11.64;18.08;40.07;2.36;-104.05;5.0;986.77;46.432;35.95584;-83.92783;817.45;NaN;;4.54;12.226105;54.1;15 / 18;93024;2022-10-24 16:26:16:274
8.129;-1.2221;-1.0463;8.3932;-2.6974;-4.2952;-1.3469;0.9669;3.4838;-0.1203;-0.4513;1.2663;8541.0;-39.62;10.59;21.45;165.69;15.97;-117.1;5.0;986.79;49.367;35.95585;-83.927826;816.76;NaN;;4.39;12.226105;63.2;15 / 18;93524;2022-10-24 16:26:16:774
7.6983;-4.0663;-3.2477;9.3159;0.0879;-3.0621;-1.7708;-3.6279;0.2238;1.7935;0.025;-2.2188;8124.0;-37.93;15.96;25.16;53.89;9.33;-108.19;5.0;986.78;49.456;35.95585;-83.927826;816.76;NaN;;4.39;12.226105;63.2;15 / 18;94024;2022-10-24 16:26:17:274
9.4567;-1.4234;-1.7357;8.4829;-2.5736;-4.1938;-0.87;1.0004;1.5055;-0.8811;-0.1143;1.5784;8531.0;-39.51;3.3;24.9;113.05;7.55;-112.97;5.0;986.81;47.07;35.955856;-83.92781;815.48;NaN;;4.61;12.226105;61.5;14 / 18;94524;2022-10-24 16:26:17:774
8.0166;-4.18;-2.8896;9.2918;0.2235;-3.1276;-0.8094;-3.5927;1.5107;1.3742;0.5556;-2.5995;7770.0;-31.89;5.21;31.73;103.2;12.61;-111.72;5.0;986.79;47.305;35.955856;-83.92781;815.48;NaN;;4.61;12.226105;61.5;14 / 18;95025;2022-10-24 16:26:18:275
9.3203;-0.7899;-2.5149;8.4291;-2.1354;-4.5344;-0.1606;-0.2182;0.3515;0.6694;-1.019;2.0214;8212.0;-18.56;-1.54;36.3;112.3;12.58;-118.28;5.0;986.78;47.59;35.955864;-83.9278;815.2;NaN;;4.68;12.226105;59.4;14 / 18;95524;2022-10-24 16:26:18:774
8.6498;-3.8761;-2.0219;9.4021;-0.003;-2.7876;0.3644;-3.4941;0.2089;0.9872;0.0286;-2.2201;6880.0;-6.51;2.48;35.87;86.49;0.02;-106.51;5.0;986.79;46.304;35.955864;-83.9278;815.2;NaN;;4.68;12.226105;59.4;14 / 18;96024;2022-10-24 16:26:19:274
10.1378;-0.9266;-2.3031;7.8821;-3.7348;-4.4826;0.802;1.8997;2.2339;-1.3299;-0.0305;1.9515;8546.0;-10.39;14.16;34.29;71.69;11.89;-112.86;5.0;986.79;47.582;35.955868;-83.92779;814.71;NaN;;4.68;12.226105;58.3;13 / 18;96524;2022-10-24 16:26:19:774
7.5413;-3.7552;-4.04;9.6223;-0.343;-1.8612;1.9012;-2.7575;0.5669;1.7134;0.3598;-2.0805;9873.0;-7.29;12.21;39.11;80.17;16.15;-110.51;5.0;986.79;47.863;35.955868;-83.92779;814.71;NaN;;4.68;12.226105;58.3;13 / 18;97024;2022-10-24 16:26:20:274
9.0832;-1.8123;-1.9104;8.0042;-3.6436;-4.3391;0.5568;1.8611;2.4234;-0.5049;-0.5577;1.6852;9884.0;-33.86;10.24;35.12;83.98;9.99;-110.62;5.0;986.81;50.452;35.955875;-83.92777;814.64;NaN;;4.28;12.226105;58.3;13 / 18;97525;2022-10-24 16:26:20:775
8.3865;-3.9993;-2.0542;9.4067;-1.2163;-2.4909;4.1685;-3.7656;1.76;1.1828;0.9476;-2.6884;8176.0;-28.71;14.03;40.41;73.69;7.12;-104.83;5.0;986.79;50.843;35.955875;-83.92777;814.64;NaN;;4.28;12.226105;58.3;13 / 18;98025;2022-10-24 16:26:21:275
14.1706;-4.1608;-4.7246;7.9778;-4.1853;-3.8739;6.0994;-0.3738;-0.5725;0.2953;-0.7464;2.7255;7871.0;-37.87;0.0;30.73;113.57;8.81;-109.86;5.0;986.8;50.986;35.955883;-83.927765;814.37;NaN;;4.68;12.226105;58.6;13 / 18;98525;2022-10-24 16:26:21:775
14.4664;-6.1636;-1.6579;7.8761;-4.5527;-3.662;4.6112;1.8764;2.203;0.4839;0.1335;-2.0796;5019.0;-23.04;15.47;36.68;98.67;27.66;-114.94;5.0;986.8;49.746;35.955883;-83.927765;814.37;NaN;;4.68;12.226105;58.6;13 / 18;99024;2022-10-24 16:26:22:274
12.5007;-3.1902;-4.2209;9.2342;-0.5057;-3.2626;-1.4385;-5.0593;-0.1917;-1.217;-0.2831;2.7044;7686.0;-27.22;8.66;31.44;70.56;2.96;-109.46;5.0;986.8;50.513;35.95589;-83.92775;814.57;NaN;;4.68;12.226105;56.6;13 / 18;99525;2022-10-24 16:26:22:775
13.9852;-5.7924;0.7792;9.166;-2.4852;-2.445;6.6439;-1.346;4.1546;0.0583;1.4309;-1.1747;6098.0;-12.52;12.98;40.22;97.83;26.87;-124.63;5.0;986.81;50.546;35.95589;-83.92775;814.57;NaN;;4.68;12.226105;56.6;13 / 18;100024;2022-10-24 16:26:23:274
11.8962;-1.8003;-2.9638;9.4959;-0.0999;-2.4472;-1.8614;-5.14;-0.274;-0.7337;-0.4692;1.8309;8677.0;-33.96;13.29;36.58;56.33;-11.03;-99.9;5.0;986.8;50.262;35.955894;-83.92774;813.7;NaN;;4.28;12.226105;55.2;14 / 18;100525;2022-10-24 16:26:23:775
11.5409;-3.8438;0.8728;9.11;-2.2653;-2.8368;4.9592;-0.8267;4.0652;-0.299;0.8237;-1.1404;6584.0;-35.25;24.26;45.62;91.98;24.94;-120.27;5.0;986.81;49.809;35.955894;-83.92774;813.7;NaN;;4.28;12.226105;55.2;14 / 18;101024;2022-10-24 16:26:24:274
9.2423;-2.4012;-3.8868;9.2833;-0.7041;-3.0813;-1.6321;-4.6849;-0.0287;0.287;-0.7032;1.714;8194.0;-60.15;8.98;39.94;78.2;4.12;-108.36;5.0;986.79;50.683;35.9559;-83.92773;813.28;NaN;;4.5;12.226105;60.2;14 / 18;101524;2022-10-24 16:26:24:774
13.8799;-3.6823;-1.3525;9.1006;-2.3121;-2.8291;6.1548;-1.3755;2.2266;1.8355;0.2515;-3.4282;4959.0;-57.92;20.89;46.59;81.65;13.64;-107.27;5.0;986.82;50.044;35.9559;-83.92773;813.28;NaN;;4.5;12.226105;60.2;14 / 18;102024;2022-10-24 16:26:25:274
9.7666;-2.4766;-1.7154;8.5323;-2.9419;-3.836;2.5232;-0.8227;0.1794;-0.8895;-0.2007;2.601;7436.0;-49.88;-8.79;42.15;114.29;0.93;-110.2;5.0;986.78;48.237;35.95591;-83.92772;810.29;NaN;;4.72;12.226105;57.0;14 / 18;102525;2022-10-24 16:26:25:775
12.2566;-4.0914;-0.4825;8.4847;-3.6021;-3.3474;5.9214;1.2282;4.1222;2.5466;-0.06;-3.1253;5527.0;-42.0;-10.74;42.26;167.6;32.6;-126.29;5.0;986.8;46.91;35.95591;-83.92772;810.29;NaN;;4.72;12.226105;57.0;14 / 18;103024;2022-10-24 16:26:26:274
10.4922;-3.4104;-2.9638;8.7842;-2.611;-3.4915;0.777;-0.9309;0.4853;0.0523;-0.1134;2.2856;7547.0;-12.02;11.44;36.68;68.8;-1.77;-110.88;5.0;986.81;46.481;35.95592;-83.927704;808.67;NaN;;4.61;12.226105;51.2;14 / 18;103524;2022-10-24 16:26:26:774
12.3954;-4.1285;-0.6069;8.2114;-4.229;-3.2952;7.0612;4.0752;2.0703;1.4937;0.3962;-2.4944;4138.0;11.23;21.39;20.61;49.74;25.55;-111.87;5.0;986.82;47.91;35.95592;-83.927704;808.67;NaN;;4.61;12.226105;51.2;14 / 18;104024;2022-10-24 16:26:27:274
10.5844;-0.2429;-3.3123;9.2143;0.3095;-3.3423;1.3087;-0.4726;0.7639;-0.2109;-0.285;0.6964;7515.0;-21.22;18.66;30.24;45.17;-5.73;-108.16;5.0;986.77;47.378;35.95593;-83.9277;805.62;NaN;;4.75;12.226105;37.2;14 / 18;104524;2022-10-24 16:26:27:774
10.9193;-0.3879;-2.9674;8.9182;-1.8229;-3.6486;4.6159;1.7533;1.7192;0.9628;0.1513;-0.4074;6650.0;-29.66;20.42;39.08;64.6;10.71;-112.25;5.0;986.79;48.604;35.95593;-83.9277;805.62;NaN;;4.75;12.226105;37.2;14 / 18;105025;2022-10-24 16:26:28:275
10.4204;-0.9314;-2.4227;8.6226;-2.8492;-3.7017;2.6098;0.3794;0.4897;-0.245;-0.1557;0.424;6331.0;-32.42;33.77;24.3;23.94;16.89;-113.23;5.0;986.83;47.519;35.95594;-83.92769;804.77;NaN;;4.72;12.226105;42.9;14 / 18;105524;2022-10-24 16:26:28:774
11.1769;-2.8478;-1.3059;8.782;-2.572;-3.5257;3.2677;1.4008;1.0713;0.2922;-0.1875;-0.4704;4983.0;-28.5;26.21;26.7;49.26;20.81;-114.2;5.0;986.83;48.608;35.95594;-83.92769;804.77;NaN;;4.72;12.226105;42.9;14 / 18;106025;2022-10-24 16:26:29:275
9.5477;-2.2875;-2.6827;9.0002;-1.7577;-3.4753;-0.0463;-3.1548;0.5628;-0.345;-0.1558;1.6717;6373.0;-35.31;18.68;29.06;42.95;1.13;-107.8;5.0;986.8;48.366;35.95595;-83.92768;802.72;NaN;;4.68;12.226105;43.6;14 / 18;106524;2022-10-24 16:26:29:774
12.6254;-2.965;-2.126;8.4067;-3.7672;-3.3625;5.3724;2.5113;0.9812;-0.079;0.2641;0.2091;4272.0;-20.85;16.86;39.53;92.98;27.22;-115.42;5.0;986.8;49.39;35.95595;-83.92768;802.72;NaN;;4.68;12.226105;43.6;14 / 18;107024;2022-10-24 16:26:30:274
9.0257;-0.4932;-2.1547;9.1911;0.2243;-3.4123;-0.6935;-4.3658;0.5726;0.1561;-0.4358;0.6434;6876.0;-3.64;14.06;11.55;34.81;-1.31;-110.37;5.0;986.78;48.583;35.95596;-83.92767;801.52;NaN;;4.43;12.226105;43.4;15 / 18;107525;2022-10-24 16:26:30:775
13.0813;2.3749;-3.912;8.7727;-0.8991;-4.2897;3.5537;2.0866;0.0417;0.8027;0.1417;-0.766;5782.0;-20.96;15.83;20.27;33.13;5.26;-116.06;5.0;986.79;48.903;35.95596;-83.92767;801.52;NaN;;4.43;12.226105;43.4;15 / 18;108025;2022-10-24 16:26:31:275
10.7459;-1.1539;-2.6803;8.9488;-1.3336;-3.783;1.403;-0.5801;0.1255;-0.5563;-0.1111;1.7986;6397.0;-29.38;13.89;19.44;20.75;-2.6;-113.46;5.0;986.83;48.035;35.95597;-83.927666;800.93;NaN;;4.86;12.226105;32.0;16 / 18;108525;2022-10-24 16:26:31:775
11.9429;-2.8801;-0.7564;8.1769;-3.6233;-4.0226;5.9122;2.0968;-0.2633;-0.4924;0.865;-0.9436;4649.0;-34.09;15.45;36.23;101.68;22.05;-116.41;5.0;986.83;48.026;35.95597;-83.927666;800.93;NaN;;4.86;12.226105;32.0;16 / 18;109024;2022-10-24 16:26:32:274
9.5859;-4.1166;-3.1555;9.0026;-1.4398;-3.6125;-0.7514;-3.3629;0.3615;-0.15;-0.4487;1.0243;7176.0;-40.87;19.74;36.0;41.23;-2.66;-110.26;5.0;986.81;48.037;35.955982;-83.927666;802.47;NaN;;4.79;12.226105;28.8;16 / 18;109526;2022-10-24 16:26:32:776
13.2299;0.1819;-2.9578;7.7787;-4.187;-4.2581;4.9945;3.7318;0.6075;0.318;0.2418;-1.2105;4070.0;-29.46;25.99;33.23;68.61;25.27;-118.7;5.0;986.83;49.449;35.955982;-83.927666;802.47;NaN;;4.79;12.226105;28.8;16 / 18;110025;2022-10-24 16:26:33:275
9.5584;-4.4076;-2.278;9.0951;-0.2289;-3.6603;0.0838;-3.7334;1.4323;0.0351;-0.1961;0.0848;7025.0;-35.91;21.47;19.24;13.29;-5.41;-109.58;5.0;986.81;49.164;35.955997;-83.92766;803.65;NaN;;4.82;12.226105;37.0;16 / 18;110525;2022-10-24 16:26:33:775
12.6096;2.3844;-3.1424;8.9059;0.993;-3.9837;-0.4292;2.3378;2.5338;0.2188;0.4277;0.0833;7645.0;-34.5;13.78;21.34;16.42;-5.81;-114.1;5.0;986.81;50.803;35.955997;-83.92766;803.65;NaN;;4.82;12.226105;37.0;16 / 18;111025;2022-10-24 16:26:34:275
10.34;1.3968;-3.4259;9.0392;1.1483;-3.6255;1.2428;-1.0488;0.7768;-0.0564;-0.416;0.6492;7497.0;-41.57;8.34;14.29;348.62;-6.72;-111.86;5.0;986.81;52.955;35.956;-83.92765;804.57;NaN;;4.79;12.226105;38.8;16 / 18;111524;2022-10-24 16:26:34:774
13.6164;1.8314;-4.6505;8.9787;-1.6273;-3.5924;4.5258;2.4555;-0.7445;0.2747;0.2281;0.9279;5481.0;-43.72;11.12;27.24;56.79;7.05;-113.64;5.0;986.79;51.538;35.956;-83.92765;804.57;NaN;;4.79;12.226105;38.8;16 / 18;112024;2022-10-24 16:26:35:274
10.4743;-3.6114;-3.4977;8.9347;-0.1245;-4.0406;-0.165;-2.6542;0.9447;-0.5731;-0.1342;0.9482;6006.0;-39.3;17.18;29.85;34.07;-2.23;-112.56;5.0;986.8;50.714;35.95601;-83.92765;800.8;NaN;;3.96;12.226105;38.5;16 / 18;112525;2022-10-24 16:26:35:775
13.4225;0.9003;-3.5204;8.4635;-2.9085;-4.0099;5.7922;1.7626;0.3699;-0.0384;0.0744;0.6855;4493.0;-33.77;20.18;40.59;80.15;18.27;-117.07;5.0;986.82;52.201;35.95601;-83.92765;800.8;NaN;;3.96;12.226105;38.5;16 / 18;113024;2022-10-24 16:26:36:274
10.9555;-4.9869;-3.6329;9.0208;0.5266;-3.8102;-2.4069;-3.5632;1.3097;-0.1482;-0.2653;1.2827;6573.0;-37.71;18.41;26.76;26.29;-3.08;-112.9;5.0;986.82;49.442;35.956017;-83.92764;801.72;NaN;;4.9;12.226105;20.0;16 / 18;113525;2022-10-24 16:26:36:775
13.5518;-2.0399;-3.4953;8.1525;-3.7565;-3.9492;2.7459;3.3967;1.0242;0.1769;0.0625;-0.5878;3403.0;-34.52;20.38;25.84;75.75;22.52;-115.85;5.0;986.77;60.868;35.956017;-83.92764;801.72;NaN;;4.9;12.226105;20.0;16 / 18;114024;2022-10-24 16:26:37:274
7.8694;-1.0965;-3.1723;8.9537;-0.0974;-3.9989;0.4506;-4.6165;1.3151;-0.3684;0.0076;-0.2421;5588.0;-31.13;20.57;21.51;18.65;-1.84;-114.0;5.0;986.8;61.676;35.956024;-83.92764;800.91;NaN;;4.46;12.226105;33.5;16 / 18;114524;2022-10-24 16:26:37:774
14.3791;-0.4573;-3.5827;8.3976;-3.4154;-3.7397;1.1394;3.8327;1.0574;-0.021;0.2113;0.4749;4584.0;-25.8;13.16;23.63;71.15;15.09;-114.34;5.0;986.8;54.808;35.956024;-83.92764;800.91;NaN;;4.46;12.226105;33.5;16 / 18;115024;2022-10-24 16:26:38:274
8.578;-4.1883;-2.2899;9.1332;-0.3496;-3.5543;-0.9932;-3.5604;1.187;-0.2015;-0.1791;-0.304;5654.0;-23.55;14.44;23.85;45.15;-1.12;-109.38;5.0;986.81;49.14;35.95603;-83.927635;800.45;NaN;;4.68;12.226105;32.0;16 / 18;115526;2022-10-24 16:26:38:776
11.8986;-1.1168;-3.2692;8.5036;-3.1709;-3.7154;0.3384;3.2684;1.4852;0.1084;0.0171;0.4183;4398.0;-17.74;7.58;29.68;94.64;18.87;-113.6;5.0;986.79;49.165;35.95603;-83.927635;800.45;NaN;;4.68;12.226105;32.0;16 / 18;116024;2022-10-24 16:26:39:274
7.6158;-3.2716;-2.2062;9.3581;0.5368;-2.8825;-1.7671;-3.5831;0.5812;-0.0647;-0.0865;-0.7607;6637.0;-19.87;10.61;30.3;63.41;-1.44;-105.95;5.0;986.81;51.393;35.956043;-83.92763;798.27;NaN;;4.72;12.226105;25.6;16 / 18;116525;2022-10-24 16:26:39:775
13.346;-2.1404;-2.91;8.6909;-2.1435;-4.0055;-0.131;2.1068;2.6742;0.1572;-0.0598;0.6512;5501.0;-22.28;1.43;28.65;109.44;12.63;-114.74;5.0;986.79;49.538;35.956043;-83.92763;798.27;NaN;;4.72;12.226105;25.6;16 / 18;117024;2022-10-24 16:26:40:274
8.1194;-4.1237;-2.7652;9.169;0.4147;-3.4537;-1.7976;-3.729;0.683;-0.1764;-0.1391;0.3491;5780.0;-13.42;12.36;29.4;60.17;-2.42;-110.64;5.0;986.84;49.04;35.956055;-83.92761;800.02;NaN;;4.68;12.226105;31.6;16 / 18;117525;2022-10-24 16:26:40:775
11.8962;-0.8895;-2.5558;7.7837;-4.5461;-3.8622;2.6503;4.1187;1.6286;0.2721;-0.3815;1.255;4348.0;-7.48;16.67;29.49;68.68;21.25;-114.99;5.0;986.8;48.174;35.956055;-83.92761;800.02;NaN;;4.68;12.226105;31.6;16 / 18;118024;2022-10-24 16:26:41:274
8.3195;-4.5523;-2.2361;9.3272;0.3511;-3.0084;-1.869;-3.9902;0.7743;-0.2293;-0.0904;-0.3851;5584.0;-4.73;23.16;32.25;54.11;7.63;-108.44;5.0;986.83;47.798;35.956062;-83.92761;798.12;NaN;;4.46;12.226105;31.1;16 / 18;118524;2022-10-24 16:26:41:774
9.623;-0.3066;-2.2995;7.5758;-4.8644;-3.8877;1.5347;3.0944;2.4024;-0.2075;-0.3406;1.567;4466.0;-23.04;30.49;23.03;34.59;20.08;-112.78;5.0;986.8;47.362;35.956062;-83.92761;798.12;NaN;;4.46;12.226105;31.1;16 / 18;119024;2022-10-24 16:26:42:274
7.43;-4.4231;-2.1129;9.3704;-0.572;-2.8351;-0.5486;-2.9601;0.794;0.2062;-0.0828;-1.6349;4993.0;-15.94;31.01;20.19;26.02;3.34;-106.83;5.0;986.81;47.906;35.956074;-83.927605;796.99;NaN;;4.64;12.226105;34.0;16 / 18;119524;2022-10-24 16:26:42:774
11.3348;0.0;-1.3549;8.463;-3.4298;-3.5756;0.1886;2.7554;2.4587;0.2807;-0.29;0.8243;5948.0;-22.03;14.08;20.91;73.62;20.47;-112.9;5.0;986.79;48.75;35.956074;-83.927605;796.99;NaN;;4.64;12.226105;34.0;16 / 18;120024;2022-10-24 16:26:43:274
7.3008;-3.6763;-2.1571;9.3688;0.2748;-2.8846;-2.1089;-3.7873;0.7441;0.2427;-0.1466;-1.2649;5626.0;-21.07;18.0;18.99;37.23;3.07;-105.66;5.0;986.84;48.253;35.95608;-83.92759;795.23;NaN;;4.72;12.226105;38.8;16 / 18;120524;2022-10-24 16:26:43:774
9.4077;0.9637;-0.8342;8.7116;-2.8996;-3.4455;-0.897;2.2395;2.3971;-0.1485;-0.0449;0.7595;5918.0;-21.75;1.71;24.69;103.14;11.25;-109.94;5.0;986.82;48.346;35.95608;-83.92759;795.23;NaN;;4.72;12.226105;38.8;16 / 18;121024;2022-10-24 16:26:44:274
6.5755;-3.3936;-2.2708;9.4082;0.5521;-2.7113;-2.508;-3.7545;0.4434;0.4077;-0.0765;-1.5244;6038.0;-27.88;12.71;38.96;70.41;3.32;-105.02;5.0;986.82;48.94;35.956093;-83.92758;791.62;NaN;;4.54;12.226105;42.5;16 / 18;121524;2022-10-24 16:26:44:774
10.2969;-1.3585;-1.4892;8.8274;-2.7136;-3.2991;-1.5016;1.6219;2.2672;0.3094;-0.2047;1.1058;6036.0;-35.16;37.63;28.07;29.47;16.06;-110.49;5.0;986.8;48.641;35.956093;-83.92758;791.62;NaN;;4.54;12.226105;42.5;16 / 18;122024;2022-10-24 16:26:45:274
6.3275;-3.4104;-0.7768;9.6736;-0.151;-1.6028;-1.8927;-3.3758;0.5051;-0.0913;0.531;-2.0394;5146.0;-30.99;44.33;11.91;6.03;13.02;-104.69;5.0;986.85;50.714;35.956104;-83.927574;792.18;NaN;;4.72;12.226105;36.7;16 / 18;122524;2022-10-24 16:26:45:774
6.306;1.7871;-0.0239;9.3639;0.7214;-2.8227;2.4627;3.6934;0.1091;1.3078;-1.5498;-2.1077;8066.0;-54.0;16.8;20.08;9.55;-4.22;-106.78;5.0;986.84;49.924;35.956104;-83.927574;792.18;NaN;;4.72;12.226105;36.7;16 / 18;123024;2022-10-24 16:26:46:274
8.1425;1.7489;-4.7306;9.0554;1.8883;-3.2565;-1.0157;0.1331;0.2029;1.238;-0.781;-0.2879;7746.0;-45.52;12.08;21.17;11.05;-11.1;-109.78;5.0;986.79;49.522;35.956112;-83.92757;791.86;NaN;;4.57;12.226105;36.1;16 / 18;123524;2022-10-24 16:26:46:774
9.259;3.28;-3.2776;8.8704;0.9807;-4.0651;-1.1032;2.1525;1.2879;0.1196;0.3669;0.2985;6634.0;-35.85;20.7;5.34;334.09;-7.45;-117.63;5.0;986.78;49.084;35.956112;-83.92757;791.86;NaN;;4.57;12.226105;36.1;16 / 18;124025;2022-10-24 16:26:47:275
9.3048;-1.0379;-3.53;9.0829;0.3267;-3.6831;-1.5472;-0.8141;0.5571;-0.9685;-0.2792;0.8486;5683.0;-36.3;13.74;3.47;329.93;-3.57;-109.76;5.0;986.8;48.295;35.956123;-83.92757;792.24;NaN;;5.29;12.226105;5.3;16 / 18;124525;2022-10-24 16:26:47:775
13.7758;0.6081;-2.266;9.046;-0.1961;-3.7819;-1.0648;2.246;2.0841;-1.0405;0.2182;0.3112;6400.0;-30.3;13.48;18.99;25.3;0.73;-112.73;5.0;986.81;48.389;35.956123;-83.92757;792.24;NaN;;5.29;12.226105;5.3;16 / 18;125024;2022-10-24 16:26:48:274
6.9512;-2.5319;-3.1699;8.9816;1.8581;-3.4711;-2.3635;-3.3237;0.7365;-0.5615;-0.4059;0.4405;6520.0;-33.79;9.96;27.32;36.19;-10.92;-111.13;5.0;986.81;49.275;35.956135;-83.92757;790.57;NaN;;4.9;12.226105;341.7;16 / 18;125525;2022-10-24 16:26:48:775
8.08;1.4677;-1.7357;8.1627;-1.4151;-5.2477;0.0903;2.9535;2.942;0.274;0.087;0.9688;6397.0;-21.53;10.14;30.24;69.89;8.3;-122.74;5.0;986.82;49.402;35.956135;-83.92757;790.57;NaN;;4.9;12.226105;341.7;16 / 18;126025;2022-10-24 16:26:49:275
9.9775;-4.0759;-4.4411;8.8124;0.8498;-4.2179;-1.213;-3.7237;0.7159;-0.0112;-0.2065;-0.2136;6944.0;-10.52;12.51;33.38;57.95;-9.3;-112.32;5.0;986.83;54.543;35.956142;-83.92757;786.6;NaN;;4.18;12.226105;11.2;16 / 18;126524;2022-10-24 16:26:49:774
15.7615;-0.632;-3.4534;8.2394;-2.8948;-4.4613;0.3833;3.7663;1.8623;0.0609;0.2297;0.7642;5009.0;2.19;29.48;19.29;32.87;9.73;-118.27;5.0;986.81;50.332;35.956142;-83.92757;786.6;NaN;;4.18;12.226105;11.2;16 / 18;127025;2022-10-24 16:26:50:275
9.7558;-4.8111;-3.3936;9.1322;0.7108;-3.5025;-0.7364;-4.6144;0.8923;-0.2159;0.0341;-0.771;5871.0;-4.05;17.36;2.53;4.88;-3.93;-109.7;5.0;986.81;52.071;35.956154;-83.92756;786.41;NaN;;4.5;12.226105;34.3;16 / 18;127525;2022-10-24 16:26:50:775
14.974;-1.6328;-3.542;8.5111;-2.4576;-4.2061;0.0524;2.3691;3.2724;0.3693;-0.0682;0.6967;5583.0;-9.88;20.27;12.56;24.75;14.51;-116.3;5.0;986.81;51.386;35.956154;-83.92756;786.41;NaN;;4.5;12.226105;34.3;16 / 18;128025;2022-10-24 16:26:51:275
8.129;-4.3657;-2.5017;9.2125;0.4708;-3.3284;-2.4335;-3.5087;1.2218;0.1053;0.0189;-1.1184;6398.0;-9.19;16.63;7.95;15.24;-0.13;-108.98;5.0;986.82;55.211;35.95616;-83.92755;787.93;NaN;;3.85;12.226105;35.5;15 / 18;128525;2022-10-24 16:26:51:775
10.5975;-0.3437;-2.2277;8.4507;-3.5828;-3.4526;-1.1057;2.2178;2.151;0.34;-0.1293;0.8145;4821.0;-9.02;22.18;28.44;58.93;21.43;-112.22;5.0;986.82;55.114;35.95616;-83.92755;787.93;NaN;;3.85;12.226105;35.5;15 / 18;129024;2022-10-24 16:26:52:274
6.2653;-4.0172;-2.254;9.3486;0.7703;-2.8601;-2.489;-4.4158;1.0378;-0.4856;-0.2046;0.131;6149.0;-18.17;20.89;17.59;27.76;-4.51;-107.01;5.0;986.83;47.598;35.95617;-83.92754;790.1;NaN;;4.64;12.226105;21.0;16 / 18;129525;2022-10-24 16:26:52:775
14.677;-2.5845;-2.3139;7.6219;-5.1336;-3.4239;2.6344;5.1067;1.022;0.3061;-0.2937;1.4587;4396.0;-17.81;13.59;24.38;82.04;24.35;-111.97;5.0;986.82;47.897;35.95617;-83.92754;790.1;NaN;;4.64;12.226105;21.0;16 / 18;130024;2022-10-24 16:26:53:274
6.652;-4.483;-1.5311;9.4002;0.1961;-2.7871;-1.3485;-4.0771;1.3499;-0.131;-0.1494;-0.702;5496.0;-11.44;21.43;27.62;53.69;10.19;-106.74;5.0;986.84;46.605;35.95618;-83.927536;790.62;NaN;;4.54;12.226105;24.0;16 / 18;130526;2022-10-24 16:26:53:776
10.2993;0.0275;-2.6743;7.5919;-5.2884;-3.2507;1.786;3.4156;1.694;0.0967;-0.0793;1.4671;5460.0;-21.58;27.23;21.04;39.55;22.43;-110.89;5.0;986.8;47.675;35.95618;-83.927536;790.62;NaN;;4.54;12.226105;24.0;16 / 18;131024;2022-10-24 16:26:54:274
6.2246;-4.7007;-1.5562;9.4874;0.4261;-2.4449;-0.5595;-4.2865;1.0014;0.317;-0.1678;-1.7999;6014.0;-19.18;27.28;20.48;27.59;-2.49;-104.45;5.0;986.83;47.144;35.95619;-83.92753;793.21;NaN;;4.57;12.226105;21.4;16 / 18;131526;2022-10-24 16:26:54:776
10.2168;-2.1667;-0.5554;7.7788;-4.6682;-3.724;1.8962;2.3933;2.8076;-0.468;-0.292;1.5306;4760.0;-27.28;20.25;15.09;32.71;28.43;-115.58;5.0;986.82;47.105;35.95619;-83.92753;793.21;NaN;;4.57;12.226105;21.4;16 / 18;132024;2022-10-24 16:26:55:274
8.0513;-4.544;-1.8769;9.4992;-0.7541;-2.3165;3.2927;-3.737;0.0504;0.8096;0.2832;-2.6238;4556.0;-17.46;26.72;14.89;22.57;4.41;-103.7;5.0;986.82;49.467;35.9562;-83.92752;793.96;NaN;;4.61;12.226105;24.5;16 / 18;132524;2022-10-24 16:26:55:774
10.2395;-1.1731;-1.337;8.2821;-3.8555;-3.5653;1.4711;1.5782;1.2731;-0.3738;-0.3271;2.0015;5171.0;-31.05;13.16;10.2;352.43;8.86;-109.71;5.0;986.83;48.229;35.9562;-83.92752;793.96;NaN;;4.61;12.226105;24.5;16 / 18;133024;2022-10-24 16:26:56:274
7.1429;-4.5428;-1.2843;9.5577;0.4497;-2.1492;-1.7969;-5.0876;1.6071;1.4621;0.215;-2.73;4247.0;-15.43;23.94;13.37;24.57;12.69;-104.19;5.0;986.82;54.183;35.956207;-83.92751;797.07;NaN;;4.57;12.226105;24.2;16 / 18;133525;2022-10-24 16:26:56:775
10.6992;-2.0686;-1.5981;8.543;-3.6882;-3.096;3.1719;-1.7423;-0.0069;-1.1926;0.0307;2.0843;5921.0;-20.55;22.01;11.94;19.87;22.09;-109.92;5.0;986.82;47.698;35.956207;-83.92751;797.07;NaN;;4.57;12.226105;24.2;16 / 18;134024;2022-10-24 16:26:57:274
10.1725;-5.0623;-1.3908;9.66;-0.9294;-1.4109;2.6291;-3.6252;-0.3267;0.4338;1.3694;-2.5366;4474.0;-4.5;33.39;19.35;32.63;25.05;-111.22;5.0;986.79;47.167;35.956215;-83.927505;796.92;NaN;;4.75;12.226105;43.3;16 / 18;134524;2022-10-24 16:26:57:774
8.383;-1.0606;-0.9565;9.2904;-1.4747;-2.7722;1.1917;-2.511;0.2565;-0.9493;-0.0043;1.7402;6277.0;-33.49;24.79;6.24;349.4;8.65;-106.61;5.0;986.82;47.311;35.956215;-83.927505;796.92;NaN;;4.75;12.226105;43.3;16 / 18;135024;2022-10-24 16:26:58:274
8.8403;-3.2704;-0.929;9.4862;-1.4644;-2.0096;2.5895;-1.3811;1.2959;1.2864;0.4495;-2.1936;4217.0;-26.63;37.28;18.96;22.06;8.59;-101.96;5.0;986.81;47.669;35.956223;-83.9275;799.6;NaN;;4.57;12.226105;32.4;16 / 18;135525;2022-10-24 16:26:58:775
7.6684;-1.1001;-0.2225;9.1958;-1.6031;-3.0062;-0.8331;0.2797;1.2241;-0.8839;-0.4118;0.8224;7696.0;-49.43;11.23;6.83;325.92;3.76;-104.21;5.0;986.8;46.68;35.956223;-83.9275;799.6;NaN;;4.57;12.226105;32.4;16 / 18;136024;2022-10-24 16:26:59:274
12.5833;-0.6272;-1.555;9.2519;0.0336;-3.2514;5.6899;-0.4367;2.731;0.8306;1.1227;-3.3739;5129.0;-43.89;15.79;20.04;292.89;16.53;-119.04;5.0;986.83;46.506;35.95623;-83.92748;797.99;NaN;;4.57;12.226105;39.0;16 / 18;136525;2022-10-24 16:26:59:775
3.3003;4.7414;3.693;6.5977;5.4992;4.7328;-0.412;0.47;-0.8845;-1.3712;1.4896;0.3308;8729.0;-41.89;-12.09;6.43;40.4;-40.61;-78.34;5.0;986.8;45.424;35.95623;-83.92748;797.99;NaN;;4.57;12.226105;39.0;16 / 18;137026;2022-10-24 16:27:00:276
3.3326;2.9148;10.4097;4.2647;3.6445;8.0437;0.6169;0.8319;3.7078;-0.2037;1.1281;0.1442;9231.0;-30.84;-15.08;-27.45;88.69;-21.82;-27.93;5.0;986.8;45.881;35.95624;-83.927475;799.94;NaN;;4.64;12.226105;42.3;16 / 18;137526;2022-10-24 16:27:00:776
9.5752;-3.8964;14.2615;7.3234;-1.8169;6.2639;0.9808;1.101;-4.2528;-1.6417;-1.0896;-1.2522;9094.0;-25.63;-5.14;-32.59;213.09;10.68;-49.46;5.0;986.75;46.684;35.95624;-83.927475;799.94;NaN;;4.64;12.226105;42.3;16 / 18;138024;2022-10-24 16:27:01:274
6.3036;-1.9487;2.4634;8.1032;-0.7008;5.4788;1.2827;-1.5063;0.5816;1.1034;0.524;-0.137;11004.0;-39.69;7.05;-13.59;109.83;13.24;-60.4;5.0;986.8;45.847;35.956245;-83.92746;799.64;NaN;;4.39;12.226105;46.8;16 / 18;138524;2022-10-24 16:27:01:774
5.9722;-1.7058;6.3084;8.5177;-1.4759;4.6304;0.9016;0.3344;4.9502;-1.6766;0.2973;-0.0577;11261.0;-37.46;11.04;1.35;72.38;9.12;-62.34;5.0;986.81;45.45;35.956245;-83.92746;799.64;NaN;;4.39;12.226105;46.8;16 / 18;139024;2022-10-24 16:27:02:274
8.6318;-2.3498;4.902;7.9297;-1.3204;5.6167;0.2695;-1.987;0.7482;1.6062;0.0684;0.0405;10678.0;-25.56;15.96;8.16;61.62;14.28;-57.96;5.0;986.83;47.149;35.956253;-83.927444;797.72;NaN;;4.57;12.226105;39.0;16 / 18;139524;2022-10-24 16:27:02:774
7.9232;-0.3185;7.1524;8.7946;0.0535;4.3384;1.407;-1.3776;-0.1504;0.5632;-0.4542;-0.067;11094.0;-32.76;8.78;-7.27;42.2;-0.31;-63.74;5.0;986.81;53.208;35.956253;-83.927444;797.72;NaN;;4.57;12.226105;39.0;16 / 18;140024;2022-10-24 16:27:03:274
10.1402;-1.7417;8.8403;8.7471;-0.1741;4.4304;1.969;-1.4893;5.6593;0.0053;0.4781;0.4949;10555.0;-38.51;3.64;-5.29;85.57;4.73;-65.77;5.0;986.78;48.731;35.95626;-83.92743;795.61;NaN;;4.57;12.226105;41.1;16 / 18;140525;2022-10-24 16:27:03:775
9.4364;0.0502;10.1521;9.1086;-0.8958;3.5216;1.0589;-1.7979;-0.496;-1.0659;-0.188;0.0412;11189.0;-45.51;2.31;-6.58;102.11;5.24;-68.86;5.0;986.81;47.051;35.95626;-83.92743;795.61;NaN;;4.57;12.226105;41.1;16 / 18;141024;2022-10-24 16:27:04:274
9.1023;-1.9307;1.7106;8.0718;-2.5787;4.9363;4.802;-2.9789;6.9471;2.7169;1.0584;0.3809;10469.0;-47.61;12.09;7.69;86.57;15.25;-58.55;5.0;986.79;49.86;35.956264;-83.92742;794.26;NaN;;4.61;12.226105;44.4;16 / 18;141525;2022-10-24 16:27:04:775
8.6773;-2.0961;5.0145;8.5893;-2.1777;4.2013;-0.5133;-0.915;6.8784;-1.871;-1.3711;-0.162;11565.0;-30.92;24.96;-15.71;8.57;11.66;-58.38;5.0;986.82;47.137;35.956264;-83.92742;794.26;NaN;;4.61;12.226105;44.4;16 / 18;142025;2022-10-24 16:27:05:275
9.3957;-3.0957;2.3019;8.8565;-2.7046;3.2278;0.1536;-1.1389;1.7146;1.5528;-1.0468;0.2274;10948.0;-34.82;13.01;-0.69;72.71;14.83;-64.83;5.0;986.76;47.965;35.956272;-83.92741;795.12;NaN;;2.7;12.226105;41.1;16 / 18;142525;2022-10-24 16:27:05:775
11.0692;-1.5981;-1.0522;8.7537;-2.5995;-3.5758;3.2629;1.422;0.1822;-1.1053;-0.4047;1.2831;7368.0;-42.13;32.74;19.86;16.1;13.36;-107.81;5.0;986.81;47.107;35.956272;-83.92741;795.12;NaN;;2.7;12.226105;41.1;16 / 18;143025;2022-10-24 16:27:06:275
11.7754;-2.8992;0.0598;9.0736;-2.6452;-2.6161;3.9357;0.138;1.1881;0.5298;0.6949;-0.7846;6518.0;-40.57;43.37;33.64;37.04;15.65;-106.08;5.0;986.83;46.084;35.95628;-83.9274;795.25;NaN;;4.64;12.226105;40.6;16 / 18;143525;2022-10-24 16:27:06:775
9.9105;-2.5786;-2.0566;9.5033;-1.6972;-1.7256;2.8306;-2.6244;0.0478;-0.1776;-0.8612;0.7176;8382.0;-86.49;28.41;6.0;323.42;9.97;-100.29;5.0;986.77;46.708;35.95628;-83.9274;795.25;NaN;;4.64;12.226105;40.6;16 / 18;144024;2022-10-24 16:27:07:274
16.9502;-1.6161;-1.5371;7.0418;-6.2434;-2.7576;5.8518;-0.2249;3.4009;0.2988;0.7263;2.1709;6501.0;-95.19;27.49;14.44;242.78;24.36;-114.24;5.0;986.8;47.236;35.956287;-83.92738;796.59;NaN;;3.92;12.226105;43.4;16 / 18;144524;2022-10-24 16:27:07:774
7.879;-7.5787;-3.2237;9.6105;-0.8998;-1.7316;-3.5496;-4.9961;0.4816;-0.0225;-1.7804;0.4615;6285.0;-77.08;31.44;-5.66;315.59;11.13;-97.11;5.0;986.77;45.484;35.956287;-83.92738;796.59;NaN;;3.92;12.226105;43.4;16 / 18;145024;2022-10-24 16:27:08:274
12.7798;-5.4203;1.6866;7.4009;-5.3815;-3.5266;5.3868;1.0787;3.4915;-2.8606;2.1233;1.0653;4582.0;-71.34;16.56;-0.54;235.92;38.2;-119.78;5.0;986.8;45.49;35.95629;-83.927376;797.59;NaN;;4.1;12.226105;39.6;16 / 18;145524;2022-10-24 16:27:08:774
7.0173;-6.7621;-2.205;9.5013;-0.3289;-2.4058;-4.0193;-4.9189;0.2449;-0.69;-0.0932;0.2566;6302.0;-60.6;9.75;0.0;298.15;1.92;-104.21;5.0;986.77;46.207;35.95629;-83.927376;797.59;NaN;;4.1;12.226105;39.6;16 / 18;146024;2022-10-24 16:27:09:274
13.2024;-2.7329;-0.5387;6.5838;-6.3187;-3.5914;5.7359;4.163;2.8629;-0.5695;-0.0305;1.2097;3809.0;-53.34;4.41;6.06;214.49;38.09;-117.29;5.0;986.77;44.638;35.9563;-83.92737;797.96;NaN;;4.1;12.226105;40.3;16 / 18;146525;2022-10-24 16:27:09:775
5.8956;-5.2717;-2.1033;9.4687;0.8026;-2.4229;-3.4495;-6.4928;0.4856;0.0153;-0.3522;-0.3808;6253.0;-42.73;9.06;8.51;351.22;-4.69;-104.35;5.0;986.8;44.895;35.9563;-83.92737;797.96;NaN;;4.1;12.226105;40.3;16 / 18;147024;2022-10-24 16:27:10:274
13.9995;-3.7205;0.2776;6.1431;-6.4635;-4.0811;7.4454;5.7788;3.3094;0.1093;0.9815;-0.8383;4134.0;-36.19;8.42;13.39;206.19;41.23;-123.6;5.0;986.78;46.151;35.956306;-83.92735;798.93;NaN;;4.5;12.226105;38.0;16 / 18;147524;2022-10-24 16:27:10:774
5.4132;-5.4562;-2.7377;9.1143;0.9184;-3.5008;-3.1927;-6.2699;1.214;0.9157;-0.8578;-1.1887;6656.0;-28.33;5.79;7.28;358.4;-7.31;-104.57;5.0;986.78;46.489;35.956306;-83.92735;798.93;NaN;;4.5;12.226105;38.0;16 / 18;148024;2022-10-24 16:27:11:274
12.9078;-2.6157;-0.0718;5.6462;-6.7455;-4.3346;5.3057;4.034;2.3286;-1.1369;0.9108;1.4802;4799.0;-21.0;6.99;3.92;231.15;32.85;-118.29;5.0;986.79;45.919;35.95632;-83.927345;801.56;NaN;;4.21;12.226105;35.0;16 / 18;148524;2022-10-24 16:27:11:774
5.5017;-5.8319;-2.3234;9.2117;1.8185;-2.8297;-3.0163;-7.7324;0.0119;0.6661;-0.451;-2.5423;6094.0;-14.61;20.14;-1.74;344.53;1.7;-103.38;5.0;986.79;45.374;35.95632;-83.927345;801.56;NaN;;4.21;12.226105;35.0;16 / 18;149025;2022-10-24 16:27:12:275
12.8432;1.3023;-3.1771;6.1109;-6.2144;-4.4953;5.3502;5.2866;1.1501;-1.3058;1.4379;0.1461;5195.0;-21.97;20.96;-11.66;292.75;39.32;-126.34;5.0;986.8;44.968;35.95633;-83.92734;803.12;NaN;;4.28;12.226105;40.7;16 / 18;149525;2022-10-24 16:27:12:775
4.483;-4.2449;-3.0679;9.212;0.8043;-3.2655;-3.9654;-4.9853;0.8028;0.217;-0.8782;0.6741;6304.0;-18.71;27.28;-13.82;325.08;-4.7;-109.52;5.0;986.77;45.894;35.95633;-83.92734;803.12;NaN;;4.28;12.226105;40.7;16 / 18;150024;2022-10-24 16:27:13:274
15.1032;-2.4861;-1.3836;6.4966;-5.5591;-4.8022;4.562;4.8241;3.3841;-0.0467;-0.5355;1.2046;4976.0;-21.45;27.36;-7.76;311.16;31.97;-123.76;5.0;986.81;46.273;35.956337;-83.92733;802.46;NaN;;4.36;12.226105;35.5;16 / 18;150524;2022-10-24 16:27:13:774
3.6006;-4.8266;-2.7042;9.1465;1.8949;-2.987;-2.9244;-7.7765;0.5072;0.2944;-0.2342;-0.601;6718.0;-15.08;31.97;3.88;0.67;3.35;-103.59;5.0;986.77;45.768;35.956337;-83.92733;802.46;NaN;;4.36;12.226105;35.5;16 / 18;151024;2022-10-24 16:27:14:274
9.775;0.3652;0.4143;8.7916;-1.8594;-3.927;1.1164;2.2018;3.065;-1.2248;-0.9148;0.8356;6954.0;-26.36;15.32;4.33;343.33;9.44;-105.62;5.0;986.81;45.489;35.956345;-83.927315;803.13;NaN;;4.32;12.226105;37.3;16 / 18;151525;2022-10-24 16:27:14:775
6.5025;-2.7221;-3.5312;9.495;0.7047;-2.3491;-2.3396;-2.8245;1.4435;1.5492;-0.8243;-0.937;7264.0;-21.86;22.31;12.99;17.2;-4.12;-103.9;5.0;986.79;45.664;35.956345;-83.927315;803.13;NaN;;4.32;12.226105;37.3;16 / 18;152024;2022-10-24 16:27:15:274
11.476;-0.3006;0.3221;9.5196;-0.9316;-2.1632;0.7037;3.5764;5.9258;0.6682;0.7388;-0.5443;7054.0;-31.11;21.83;12.41;5.07;3.48;-108.11;5.0;986.81;45.701;35.956352;-83.92731;804.07;NaN;;4.43;12.226105;39.3;16 / 18;152526;2022-10-24 16:27:15:776
9.763;-3.5216;-2.4323;9.6615;0.1674;-1.6729;-2.6868;-0.7069;0.7765;0.4485;-0.7833;0.1642;6864.0;-34.57;21.96;15.02;21.27;-0.98;-99.82;5.0;986.8;46.657;35.956352;-83.92731;804.07;NaN;;4.43;12.226105;39.3;16 / 18;153024;2022-10-24 16:27:16:274
9.7427;-0.3329;-1.6005;7.8513;-4.14;-4.1699;-0.1432;2.9212;3.0714;-0.1127;0.0108;0.4355;5390.0;-27.02;24.23;20.68;37.99;24.97;-117.97;5.0;986.82;45.831;35.95636;-83.9273;804.19;NaN;;4.43;12.226105;39.9;16 / 18;153525;2022-10-24 16:27:16:775
3.0523;-5.0001;-2.5379;9.1688;0.0072;-3.4791;-4.7742;-4.7951;0.9765;1.3529;-0.6466;-2.1771;6106.0;-25.46;29.63;23.98;31.5;3.61;-104.11;5.0;986.8;45.372;35.95636;-83.9273;804.19;NaN;;4.43;12.226105;39.9;16 / 18;154024;2022-10-24 16:27:17:274
9.92;0.0419;-0.9147;7.9646;-3.7386;-4.3312;-0.2749;2.2737;3.9631;-0.1471;-0.6186;0.9165;5201.0;-35.83;30.34;24.77;25.87;17.6;-114.88;5.0;986.83;46.056;35.956367;-83.927284;803.65;NaN;;4.43;12.226105;45.1;16 / 18;154525;2022-10-24 16:27:17:775
6.6162;-4.5404;-2.3354;9.1413;1.4717;-3.2312;-1.4009;-5.6072;1.3615;1.9458;0.296;-2.6168;6658.0;-32.79;31.59;32.36;38.9;4.4;-103.66;5.0;986.8;46.703;35.956367;-83.927284;803.65;NaN;;4.43;12.226105;45.1;16 / 18;155024;2022-10-24 16:27:18:274
10.4886;1.1336;-1.2712;8.5262;-2.6872;-4.0315;-0.5447;1.8155;1.3242;-0.6582;-0.5277;2.1371;5729.0;-46.99;14.29;21.94;194.94;15.9;-115.31;5.0;986.82;45.637;35.95637;-83.92728;804.18;NaN;;4.68;12.226105;48.9;16 / 18;155524;2022-10-24 16:27:18:774
10.4516;-2.4766;-2.3677;8.927;2.7529;-2.9833;1.8177;-6.0637;1.2237;0.3993;0.7468;-2.6415;5571.0;-39.43;22.93;30.21;24.61;-16.3;-108.48;5.0;986.82;45.144;35.95637;-83.92728;804.18;NaN;;4.68;12.226105;48.9;16 / 18;156024;2022-10-24 16:27:19:274
2.1966;5.8164;4.2185;3.8237;6.1044;6.6548;-1.6234;-0.6667;-3.117;0.4646;0.7481;0.3425;7359.0;-49.91;-11.74;2.21;86.45;-36.1;-27.4;5.0;986.78;46.264;35.95638;-83.92727;806.25;NaN;;4.46;12.226105;40.4;16 / 18;156524;2022-10-24 16:27:19:774
6.0703;0.382;-4.593;8.4512;4.2873;-2.5234;-1.7;-0.5304;5.1407;1.2572;-2.414;0.3896;6195.0;-45.3;-23.66;-12.69;275.42;-28.85;-86.87;5.0;986.75;45.733;35.95638;-83.92727;806.25;NaN;;4.46;12.226105;40.4;16 / 18;157024;2022-10-24 16:27:20:274
11.3109;1.0845;-0.0287;7.5451;-3.1264;-5.4284;4.3538;3.4919;4.1554;-2.1829;-0.1563;2.0225;4749.0;-37.78;2.78;44.29;121.57;16.46;-118.63;5.0;986.83;46.245;35.956383;-83.92726;806.11;NaN;;4.14;12.226105;38.0;16 / 18;157524;2022-10-24 16:27:20:774
5.3474;-3.6353;-3.1723;9.1776;0.3425;-3.4386;2.5936;-3.6033;0.0662;1.2584;0.2645;-2.2398;5576.0;-33.62;4.46;46.5;79.95;-2.0;-110.54;5.0;986.83;44.662;35.956383;-83.92726;806.11;NaN;;4.14;12.226105;38.0;16 / 18;158025;2022-10-24 16:27:21:275
8.45;-0.2632;-1.5897;8.2289;-3.1049;-4.3377;1.2978;2.6217;2.0121;-1.5254;0.3792;1.8054;5550.0;-33.9;0.73;42.41;111.01;11.77;-115.43;5.0;986.84;47.079;35.95639;-83.927246;803.46;NaN;;4.28;12.226105;39.1;16 / 18;158525;2022-10-24 16:27:21:775
7.6014;-4.3573;-2.7461;9.325;-1.7093;-2.5087;2.897;-2.6627;2.0052;2.2696;-0.286;-2.5566;5151.0;-31.2;4.22;38.94;95.87;10.04;-105.06;5.0;986.82;46.38;35.95639;-83.927246;803.46;NaN;;4.28;12.226105;39.1;16 / 18;159024;2022-10-24 16:27:22:274
7.9436;-0.4035;0.5949;8.9888;-2.1173;-3.2999;0.1818;0.4256;3.2764;-0.1844;-1.0382;1.3288;5649.0;-25.41;-1.46;30.71;112.18;12.47;-110.16;5.0;986.85;45.519;35.9564;-83.927246;802.66;NaN;;4.36;12.226105;44.3;16 / 18;159524;2022-10-24 16:27:22:774
6.3407;-4.1465;-2.6862;9.3255;1.3583;-2.713;-0.9182;-4.906;1.1562;2.2538;-0.0397;-2.5441;5782.0;-20.92;1.35;30.11;93.87;5.54;-103.38;5.0;986.85;46.233;35.9564;-83.927246;802.66;NaN;;4.36;12.226105;44.3;16 / 18;160024;2022-10-24 16:27:23:274
10.1533;-1.4785;-1.1779;8.395;-3.1803;-3.9472;2.81;-0.837;-0.2292;-1.5891;0.2327;2.3542;5739.0;-22.93;12.32;31.73;64.94;5.38;-116.16;5.0;986.86;44.985;35.956413;-83.92723;801.76;NaN;;4.32;12.226105;36.9;16 / 18;160524;2022-10-24 16:27:23:774
8.7517;-6.3562;-1.3825;8.8465;-0.4082;-4.2123;0.9349;-5.9458;2.3408;2.9483;-0.0622;-3.371;5259.0;-16.12;15.62;41.44;79.77;18.97;-107.24;5.0;986.82;45.805;35.956413;-83.92723;801.76;NaN;;4.32;12.226105;36.9;16 / 18;161024;2022-10-24 16:27:24:274
9.3766;-0.4358;-3.8306;8.2314;-3.5269;-3.997;1.7518;-0.23;-0.612;-0.5456;0.8666;1.6782;5259.0;-29.42;22.43;33.73;72.05;21.08;-115.9;5.0;986.85;45.852;35.95642;-83.92723;800.73;NaN;;4.28;12.226105;34.1;16 / 18;161525;2022-10-24 16:27:24:775
7.1213;-3.5815;-1.3322;9.2826;-0.9713;-3.0102;-0.4325;-3.1428;1.2281;0.2172;-0.0228;-1.3768;4892.0;-28.09;25.74;34.14;46.88;5.68;-107.97;5.0;986.83;49.169;35.95642;-83.92723;800.73;NaN;;4.28;12.226105;34.1;16 / 18;162025;2022-10-24 16:27:25:275
9.4603;0.5327;-2.1535;7.7811;-4.5977;-3.806;0.4856;3.9079;1.6068;-0.2654;-0.0179;1.4877;4964.0;-29.25;13.22;34.37;91.53;18.74;-112.99;5.0;986.85;45.195;35.95643;-83.927216;799.89;NaN;;4.32;12.226105;43.7;16 / 18;162525;2022-10-24 16:27:25:775
6.0176;-4.2015;-2.4849;9.4188;-0.5137;-2.6818;0.0608;-4.2452;0.7972;0.8251;-0.115;-1.5934;5149.0;-19.99;17.87;35.48;71.4;15.83;-106.64;5.0;986.87;46.981;35.95643;-83.927216;799.89;NaN;;4.32;12.226105;43.7;16 / 18;163025;2022-10-24 16:27:26:275
8.9169;-0.4825;-1.7692;7.9273;-4.5169;-3.5952;-0.1477;2.8214;1.6251;-0.7872;0.3183;1.4085;5100.0;-21.04;16.99;26.38;68.07;18.96;-111.55;5.0;986.85;45.102;35.956436;-83.92721;801.58;NaN;;4.5;12.226105;42.0;16 / 18;163525;2022-10-24 16:27:26:775
5.4012;-4.6014;-2.6192;9.1926;-1.7742;-2.9188;0.7135;-3.0748;0.6078;1.0032;-0.5296;-2.0641;4708.0;-8.53;22.44;18.75;38.93;10.42;-107.62;5.0;986.85;45.514;35.956436;-83.92721;801.58;NaN;;4.5;12.226105;42.0;16 / 18;164024;2022-10-24 16:27:27:274
10.2921;-1.4426;-2.2947;7.4642;-5.1256;-3.7661;0.1218;2.5753;1.4386;-0.5661;0.2735;1.848;4957.0;-14.76;32.04;10.76;10.02;19.04;-112.88;5.0;986.84;46.097;35.956448;-83.9272;801.78;NaN;;4.43;12.226105;33.2;16 / 18;164524;2022-10-24 16:27:27:774
6.1217;-5.3617;-2.0016;9.3932;-1.2286;-2.5353;1.9745;-3.565;0.1497;1.0866;-0.1957;-2.7615;4795.0;-11.19;43.28;19.07;20.82;7.2;-105.1;5.0;986.86;45.937;35.956448;-83.9272;801.78;NaN;;4.43;12.226105;33.2;16 / 18;165024;2022-10-24 16:27:28:274
10.0528;-1.5682;-1.6615;7.6652;-4.681;-3.9375;1.7136;2.3737;2.1186;-0.5693;-0.3507;2.1012;4971.0;-50.96;24.43;25.89;181.62;28.51;-117.19;5.0;986.87;47.802;35.956455;-83.92719;800.93;NaN;;4.36;12.226105;41.2;16 / 18;165524;2022-10-24 16:27:28:774
4.951;-4.9845;-1.9032;9.3004;1.7022;-2.6029;-0.9989;-6.9414;1.3593;1.869;0.2012;-3.1711;5068.0;-44.53;28.8;30.53;42.65;7.38;-102.53;5.0;986.83;47.748;35.956455;-83.92719;800.93;NaN;;4.36;12.226105;41.2;16 / 18;166024;2022-10-24 16:27:29:274
10.6633;-1.7022;-0.4717;8.0264;-3.9688;-3.9994;4.3719;0.1507;-0.2004;-2.2315;0.5158;2.3435;4622.0;-44.59;8.44;22.28;89.32;9.05;-112.91;5.0;986.85;48.689;35.95646;-83.927185;800.64;NaN;;4.46;12.226105;48.5;16 / 18;166524;2022-10-24 16:27:29:774
8.881;-7.2242;-1.0068;9.5505;-0.4027;-2.19;3.3559;-6.2838;0.6578;1.5589;0.7106;-3.1782;4274.0;-30.24;23.63;29.08;69.31;24.29;-111.63;5.0;986.85;47.57;35.95646;-83.927185;800.64;NaN;;4.46;12.226105;48.5;16 / 18;167025;2022-10-24 16:27:30:275
10.4767;-2.455;0.9159;9.4447;-1.5633;-2.127;1.1829;-1.7979;-5.9909;-4.2609;0.8527;2.2856;5106.0;-38.96;9.49;24.98;82.99;9.17;-102.69;5.0;986.83;49.353;35.956467;-83.92718;800.91;NaN;;4.36;12.226105;42.4;16 / 18;167524;2022-10-24 16:27:30:774
13.3149;-3.8641;-1.3825;9.2799;-1.8088;-2.6044;5.1895;-2.2012;1.8366;3.0221;0.316;-3.2946;6175.0;-33.71;8.33;31.46;89.22;10.63;-105.68;5.0;986.83;47.386;35.956467;-83.92718;800.91;NaN;;4.36;12.226105;42.4;16 / 18;168025;2022-10-24 16:27:31:275
5.9686;2.1069;-4.392;8.9035;2.7287;-3.0744;-1.0244;-0.1361;0.4131;0.1655;0.2755;-0.5873;5862.0;-35.74;4.48;29.78;50.4;-13.25;-108.77;5.0;986.86;46.971;35.956474;-83.92716;799.72;NaN;;4.21;12.226105;38.5;15 / 18;168524;2022-10-24 16:27:31:774
11.9189;2.0722;-1.3825;9.3567;2.8982;-0.4715;8.5616;1.1642;3.3536;0.2078;-0.1588;-1.0546;8124.0;-38.57;-10.78;23.42;86.34;-17.19;-92.88;5.0;986.85;47.711;35.956474;-83.92716;799.72;NaN;;4.21;12.226105;38.5;15 / 18;169024;2022-10-24 16:27:32:274
20.3282;-6.9428;-2.2935;7.8801;-4.5316;-3.6795;10.9424;-4.9467;0.9145;-1.8974;0.0476;4.85;6305.0;-38.08;-14.68;20.14;165.03;10.57;-109.69;5.0;986.86;48.337;35.956474;-83.927155;801.13;NaN;;3.35;12.226105;76.0;15 / 18;169525;2022-10-24 16:27:32:775
15.5737;-4.2843;-2.8214;8.5036;-4.1563;-2.5661;4.4828;1.7792;2.0919;1.4218;0.113;-2.1638;3060.0;-41.12;5.57;19.07;154.87;25.08;-106.79;5.0;986.85;47.683;35.956474;-83.927155;801.13;NaN;;3.35;12.226105;76.0;15 / 18;170025;2022-10-24 16:27:33:275
7.2817;-7.855;-2.4132;9.1138;-0.46;-3.5914;-2.9303;-5.67;0.7578;-0.3954;-0.3057;1.1615;3487.0;-39.62;-11.34;19.82;32.95;-17.61;-114.05;5.0;986.86;47.208;35.95647;-83.92714;797.88;NaN;;4.32;12.226105;105.1;15 / 18;170525;2022-10-24 16:27:33:775
13.3125;-6.8016;1.9056;6.7207;-6.6926;-2.4924;4.9555;5.2718;2.498;0.4578;-0.2937;-0.9963;2505.0;-42.56;2.29;16.86;178.12;43.04;-110.35;5.0;986.86;47.337;35.95647;-83.92714;797.88;NaN;;4.32;12.226105;105.1;15 / 18;171024;2022-10-24 16:27:34:274
9.5189;-8.584;-1.081;9.5712;0.0486;-2.1354;-5.8589;-6.5252;1.1467;-0.9416;-0.2173;2.4066;2104.0;-44.59;-2.42;16.09;106.88;-0.28;-102.58;5.0;986.9;47.531;35.956467;-83.92712;795.03;NaN;;4.1;12.226105;111.3;15 / 18;171524;2022-10-24 16:27:34:774
16.6044;-4.4387;-0.0754;7.2352;-6.0401;-2.7094;7.7199;1.8236;3.7421;-0.0151;0.2331;0.1489;1221.0;-45.39;5.34;13.35;204.29;43.97;-121.62;5.0;986.87;47.724;35.956467;-83.92712;795.03;NaN;;4.1;12.226105;111.3;15 / 18;172024;2022-10-24 16:27:35:274
5.6512;-7.5835;-2.8753;8.8233;1.9784;-3.7954;-4.4385;-7.2687;1.93;0.333;-0.5904;1.0425;2056.0;-42.32;-2.76;14.36;24.47;-8.54;-106.31;5.0;986.87;47.146;35.956455;-83.92712;795.97;NaN;;4.18;12.226105;149.7;15 / 18;172524;2022-10-24 16:27:35:774
16.1004;-4.9092;3.6054;8.1679;-4.8836;-2.3679;6.5855;1.9174;5.2827;-2.4948;0.9815;1.7796;1670.0;-40.43;-10.5;17.61;174.3;29.18;-110.31;5.0;986.93;47.189;35.956455;-83.92712;795.97;NaN;;4.18;12.226105;149.7;15 / 18;173024;2022-10-24 16:27:36:274
5.406;-5.5101;-2.3079;9.27;0.6691;-3.1289;-3.9894;-5.3128;1.4837;-0.3544;-0.3205;0.4762;2079.0;-41.77;-7.61;12.45;202.39;-3.91;-108.65;5.0;986.87;47.664;35.956448;-83.92711;796.22;NaN;;4.0;12.226105;145.6;15 / 18;173525;2022-10-24 16:27:36:775
17.3955;-4.3358;-0.2994;6.8859;-6.1615;-3.285;4.8275;4.7347;2.1076;-0.5907;0.8501;-0.7235;1699.0;-41.27;-3.36;15.09;187.9;38.92;-115.5;5.0;986.93;47.223;35.956448;-83.92711;796.22;NaN;;4.0;12.226105;145.6;15 / 18;174024;2022-10-24 16:27:37:274
1.0487;-1.6866;-4.022;0.0269;2.7902;-9.4013;4.1391;-4.5682;5.3346;2.4625;-4.4845;-3.5453;1207.0;-37.33;-5.55;15.08;289.91;-23.92;-145.66;5.0;986.88;47.45;35.956436;-83.9271;796.36;NaN;;4.0;12.226105;146.6;15 / 18;174524;2022-10-24 16:27:37:774
-1.0798;5.6752;-7.2302;-1.5848;4.0035;-8.8108;-0.4775;-0.4256;0.3095;0.07;0.1049;-0.3702;1691.0;20.31;-12.22;38.29;80.83;-20.35;174.22;5.0;986.84;47.742;35.956436;-83.9271;796.36;NaN;;4.0;12.226105;146.6;15 / 18;175025;2022-10-24 16:27:38:275
-1.7919;3.766;-10.0253;-0.9489;4.2106;-8.8057;-1.2222;-0.6778;-0.9911;-0.8811;0.4302;0.5997;1839.0;28.39;-5.23;36.53;71.17;-14.53;164.97;5.0;986.87;46.794;35.95643;-83.92709;799.01;NaN;;4.43;12.226105;138.2;15 / 18;175524;2022-10-24 16:27:38:774
3.839;7.9591;-4.0113;4.2579;6.6389;-5.828;-2.2465;-0.3364;-1.1899;-2.0712;1.8703;-0.0315;1902.0;11.61;-17.53;39.11;84.27;-42.61;-143.85;5.0;986.86;46.862;35.95643;-83.92709;799.01;NaN;;4.43;12.226105;138.2;15 / 18;176024;2022-10-24 16:27:39:274
5.656;5.8487;-0.947;7.018;6.7485;-1.1728;-0.9088;-1.1686;-0.6054;-0.6512;0.73;0.8283;2187.0;-7.29;-31.18;31.39;105.06;-47.11;-115.39;5.0;986.9;47.964;35.95642;-83.927086;798.56;NaN;;4.03;12.226105;144.5;15 / 18;176525;2022-10-24 16:27:39:775
6.5695;4.8494;7.4288;7.7532;5.0493;3.25;-2.4345;0.2953;-3.0278;-0.652;1.3613;0.471;4481.0;-24.45;-34.95;9.0;139.25;-30.99;-67.26;5.0;986.9;46.325;35.95642;-83.927086;798.56;NaN;;4.03;12.226105;144.5;15 / 18;177024;2022-10-24 16:27:40:274
1.9355;2.7281;8.948;4.2905;3.8934;7.9123;0.6432;-0.4067;-2.6763;0.0166;1.4186;-0.1674;7148.0;-27.17;-32.53;-11.94;139.36;-23.39;-28.47;5.0;986.91;49.975;35.95641;-83.92708;798.45;NaN;;4.03;12.226105;141.5;15 / 18;177524;2022-10-24 16:27:40:774
-0.0024;4.7246;8.2418;1.2381;5.3158;8.1474;-0.8204;-0.3089;-0.8123;0.0157;0.948;0.2289;7421.0;-14.79;-32.83;-23.76;148.98;-30.71;-13.88;5.0;986.93;46.5;35.95641;-83.92708;798.45;NaN;;4.03;12.226105;141.5;15 / 18;178025;2022-10-24 16:27:41:275
0.195;3.5492;4.0878;1.5714;5.0317;8.2694;-0.3899;-0.4416;-3.2636;-0.8879;-0.6605;-0.7329;7140.0;-12.38;-34.11;-23.32;156.11;-31.61;-11.83;5.0;986.88;45.924;35.9564;-83.92707;797.81;NaN;;4.25;12.226105;127.8;15 / 18;178525;2022-10-24 16:27:41:775
-0.0742;3.973;6.5252;2.2339;3.1906;9.0;-2.6013;0.6892;-3.6505;0.7337;-0.0901;-0.1639;8871.0;-13.24;-29.63;-28.39;167.35;-21.57;-17.96;5.0;986.9;47.065;35.9564;-83.92707;797.81;NaN;;4.25;12.226105;127.8;15 / 18;179024;2022-10-24 16:27:42:274
1.5096;2.9495;4.0101;3.7489;4.3381;7.956;-0.9412;-2.3407;-1.6853;0.1938;-0.1606;-0.3459;8705.0;-16.09;-29.64;-27.07;167.23;-26.25;-25.23;5.0;986.89;48.127;35.95639;-83.927055;796.46;NaN;;3.89;12.226105;131.8;15 / 18;179525;2022-10-24 16:27:42:775
1.0128;3.3852;4.5033;4.065;3.7713;8.0885;-1.9725;-0.4225;-4.3869;-0.8204;0.7802;-0.14;8152.0;-19.14;-31.76;-23.98;161.01;-22.62;-26.68;5.0;986.92;48.037;35.95639;-83.927055;796.46;NaN;;3.89;12.226105;131.8;15 / 18;180025;2022-10-24 16:27:43:275
1.9092;2.9088;5.8211;2.6659;4.9997;8.0042;-0.364;-1.6743;-2.4315;1.028;1.0012;0.265;8382.0;-19.28;-31.74;-24.09;155.29;-28.54;-26.4;5.0;986.92;49.395;35.956383;-83.92705;796.66;NaN;;4.14;12.226105;135.6;15 / 18;180524;2022-10-24 16:27:43:774
0.7265;3.9706;8.182;3.3518;3.5228;8.5162;-1.7608;1.7404;-0.2165;-0.1162;-0.0483;-0.4355;8337.0;-21.88;-32.08;-22.26;146.34;-22.39;-21.36;5.0;986.92;53.411;35.956383;-83.92705;796.66;NaN;;4.14;12.226105;135.6;15 / 18;181025;2022-10-24 16:27:44:275
3.8892;2.12;8.3507;3.7261;4.4831;7.886;0.5079;-2.1676;1.131;0.3819;-0.5502;-0.5873;8576.0;-22.07;-29.46;-24.66;157.99;-19.44;-29.81;5.0;986.95;53.588;35.956375;-83.92704;796.28;NaN;;4.18;12.226105;127.4;15 / 18;181525;2022-10-24 16:27:44:775
2.648;0.51;7.2936;6.306;0.7276;7.475;-0.2803;-0.4481;3.9341;-0.517;-0.0873;-0.3662;8839.0;-22.09;-27.66;-25.99;179.89;-4.25;-40.15;5.0;986.95;47.87;35.956375;-83.92704;796.28;NaN;;4.18;12.226105;127.4;15 / 18;182024;2022-10-24 16:27:45:274
6.4208;-0.0383;4.2102;9.0677;-0.5272;3.6972;0.5087;-0.5823;2.0782;-0.7629;-0.654;0.0195;8258.0;-31.63;-19.03;-25.54;199.53;5.71;-62.29;5.0;986.95;48.666;35.956367;-83.92703;795.94;NaN;;4.1;12.226105;129.2;15 / 18;182524;2022-10-24 16:27:45:774
7.2541;0.2716;-0.4944;8.9689;-1.1634;-3.7916;5.8641;-0.4719;-0.9641;-0.9451;-0.295;1.0497;4787.0;-38.55;-21.21;5.53;200.83;6.81;-112.92;5.0;986.97;49.471;35.956367;-83.92703;795.94;NaN;;4.1;12.226105;129.2;15 / 18;183025;2022-10-24 16:27:46:275
6.7202;-3.7134;-2.9004;9.4655;0.0361;-2.5638;1.4348;-3.3676;1.7983;2.2404;-0.5465;-2.1374;2509.0;-39.62;-12.38;22.89;135.23;-0.21;-105.16;5.0;986.93;49.724;35.956364;-83.927025;795.19;NaN;;3.71;12.226105;135.4;15 / 18;183524;2022-10-24 16:27:46:774
9.0951;-0.0144;-1.398;8.242;-3.5097;-3.9902;0.6514;1.7179;2.1856;-1.59;0.5404;1.7644;2253.0;-33.86;-14.64;30.06;152.12;12.06;-115.33;5.0;987.01;47.989;35.956364;-83.927025;795.19;NaN;;3.71;12.226105;135.4;15 / 18;184025;2022-10-24 16:27:47:275
6.5707;-4.0507;-2.7748;9.3579;-0.7728;-2.8288;4.8542;-3.2161;1.6714;1.5732;0.0774;-3.2376;1881.0;-37.39;-3.39;29.06;157.39;22.93;-117.49;5.0;986.95;48.448;35.956356;-83.92701;794.92;NaN;;4.18;12.226105;126.7;15 / 18;184524;2022-10-24 16:27:47:774
7.4994;-1.0403;-0.8728;8.5118;-2.7691;-4.0064;0.2947;1.5867;0.8804;-0.534;-0.0993;1.952;2662.0;-32.51;-18.22;28.13;147.99;3.62;-113.02;5.0;986.98;50.259;35.956356;-83.92701;794.92;NaN;;4.18;12.226105;126.7;15 / 18;185024;2022-10-24 16:27:48:274
8.0548;-3.5169;-2.8525;9.0718;-2.1196;-3.0626;6.0837;-2.1447;1.0146;0.8422;-0.6858;-3.0335;1888.0;-36.26;-2.34;28.63;125.37;12.48;-108.65;5.0;986.96;48.048;35.95635;-83.927;793.62;NaN;;4.03;12.226105;125.5;15 / 18;185524;2022-10-24 16:27:48:774
9.7511;-2.0806;-2.0889;8.0321;-2.3982;-5.0897;3.0482;-1.3017;1.2215;-0.6716;-0.9962;2.0947;2199.0;-29.01;-15.83;31.63;155.87;14.16;-122.36;5.0;986.98;53.933;35.95635;-83.927;793.62;NaN;;4.03;12.226105;125.5;15 / 18;186024;2022-10-24 16:27:49:274
6.5396;-4.5727;-3.7923;8.9138;1.1501;-3.9232;-0.2283;-5.6421;1.0571;2.8357;0.2692;-3.4259;2606.0;-35.21;-11.4;26.18;152.33;8.54;-114.66;5.0;986.93;48.623;35.956345;-83.926994;793.93;NaN;;4.1;12.226105;127.6;15 / 18;186524;2022-10-24 16:27:49:774
8.42;-0.4454;-3.3135;7.9045;-2.5775;-5.2005;4.7722;0.1316;-2.0479;-0.837;-0.0316;2.1727;2705.0;-21.37;-18.6;31.59;139.24;-0.51;-121.83;5.0;987.0;49.9;35.956345;-83.926994;793.93;NaN;;4.1;12.226105;127.6;15 / 18;187024;2022-10-24 16:27:50:274
7.922;-4.1979;-3.6054;8.9944;0.6411;-3.8549;0.5699;-4.8164;0.4862;1.9333;0.5685;-3.2597;2059.0;-24.82;-13.46;33.6;137.65;13.19;-116.4;5.0;986.94;51.492;35.956337;-83.92698;793.48;NaN;;4.32;12.226105;115.6;15 / 18;187524;2022-10-24 16:27:50:774
9.5441;0.917;-2.065;8.5335;-1.92;-4.4343;3.5678;-0.8986;-1.3031;-1.3034;0.7096;2.1036;2971.0;-13.46;-15.36;38.48;126.34;11.29;-117.46;5.0;987.0;50.232;35.956337;-83.92698;793.48;NaN;;4.32;12.226105;115.6;15 / 18;188025;2022-10-24 16:27:51:275
8.5301;-4.471;-2.7329;9.419;-0.374;-2.7042;2.0663;-3.9364;1.4004;1.6215;0.6329;-2.4118;2418.0;-21.49;-13.58;39.53;129.1;18.44;-111.34;5.0;986.98;49.34;35.956333;-83.92697;797.2;NaN;;4.25;12.226105;113.9;14 / 18;188524;2022-10-24 16:27:51:774
7.9232;1.0271;-3.4618;8.6348;-0.543;-4.617;2.7106;-0.0413;-0.367;-0.8306;0.1639;1.1429;2912.0;-12.83;-2.42;36.58;97.73;3.17;-118.13;5.0;987.02;50.47;35.956333;-83.92697;797.2;NaN;;4.25;12.226105;113.9;14 / 18;189024;2022-10-24 16:27:52:274
7.6851;-0.7445;-1.7166;8.9034;-1.6124;-3.7814;1.4744;0.2815;1.8332;0.4397;-0.0531;-1.087;2682.0;-1.29;1.69;27.23;89.8;9.46;-113.01;5.0;987.01;51.483;35.95633;-83.92695;798.32;NaN;;4.36;12.226105;118.5;14 / 18;189524;2022-10-24 16:27:52:774
8.7111;-0.6906;-2.6097;8.2512;-2.7688;-4.519;-1.6373;1.5705;2.8019;-0.1815;0.1501;0.1784;3744.0;-15.21;-14.08;25.18;140.57;11.79;-117.09;5.0;987.03;49.554;35.95633;-83.92695;798.32;NaN;;4.36;12.226105;118.5;14 / 18;190025;2022-10-24 16:27:53:275
7.1764;-3.3494;-3.6667;8.3149;-2.3989;-4.6128;1.2066;-0.1463;2.526;-0.6347;0.5448;-1.0881;2947.0;-25.22;-6.17;32.74;141.08;22.08;-120.02;5.0;987.04;48.544;35.95632;-83.92694;799.2;NaN;;4.14;12.226105;115.3;14 / 18;190524;2022-10-24 16:27:53:774
4.9774;-0.1711;-2.522;7.7146;-1.8793;-5.7553;-2.7849;1.7183;2.9475;-0.1926;-0.3429;0.2267;4980.0;-26.4;-10.44;34.22;136.14;7.29;-122.87;5.0;987.02;48.168;35.95632;-83.92694;799.2;NaN;;4.14;12.226105;115.3;14 / 18;191025;2022-10-24 16:27:54:275
6.2103;-2.1308;-4.3442;8.6395;-1.2089;-4.4797;1.7238;-1.4551;0.8929;0.6479;0.4118;-1.7725;5591.0;-26.7;-10.01;33.49;131.17;7.08;-117.41;5.0;987.02;49.651;35.956318;-83.926926;798.97;NaN;;4.64;12.226105;116.8;15 / 18;191524;2022-10-24 16:27:54:774
6.6389;-0.3616;-2.0566;7.7971;-2.4366;-5.4258;-1.2442;1.8501;3.0823;-0.4193;-0.4873;1.7353;6653.0;-23.51;-17.03;27.53;159.89;14.39;-124.83;5.0;987.02;50.834;35.956318;-83.926926;798.97;NaN;;4.64;12.226105;116.8;15 / 18;192024;2022-10-24 16:27:55:274
7.2039;-3.76;-3.7947;9.2659;2.1784;-2.3599;-2.0146;-5.9006;-0.9368;0.863;1.2186;-2.6797;5260.0;-24.36;-11.64;22.95;132.19;2.04;-108.1;5.0;987.01;50.282;35.95631;-83.92691;800.77;NaN;;4.28;12.226105;110.9;15 / 18;192525;2022-10-24 16:27:55:775
9.8339;-0.8306;-1.9487;7.495;-3.4465;-5.3026;2.7135;1.6302;2.6021;0.0475;-0.7605;1.8173;6890.0;-19.69;-11.44;20.59;149.09;8.12;-118.61;5.0;987.03;59.475;35.95631;-83.92691;800.77;NaN;;4.28;12.226105;110.9;15 / 18;193026;2022-10-24 16:27:56:276
6.1828;-4.6409;-3.396;9.4658;1.1094;-2.3104;-0.4558;-6.2107;-0.2305;1.5001;0.9344;-3.0594;4744.0;-19.43;-0.04;21.77;108.69;10.69;-110.46;5.0;986.98;53.42;35.956303;-83.9269;801.34;NaN;;4.36;12.226105;108.7;15 / 18;193524;2022-10-24 16:27:56:774
10.1928;-1.3071;-2.3174;8.0007;-3.7513;-4.2529;4.5215;0.6825;-1.4186;-0.4352;-0.1775;1.9814;6665.0;-29.94;2.18;23.34;153.36;22.49;-117.99;5.0;986.98;49.555;35.956303;-83.9269;801.34;NaN;;4.36;12.226105;108.7;15 / 18;194024;2022-10-24 16:27:57:274
8.6665;-4.3525;-2.4024;9.2829;-1.3272;-2.8699;1.8603;-4.7257;0.7037;0.5473;0.7807;-2.5759;3647.0;-26.63;18.36;26.96;83.76;24.56;-116.26;5.0;987.02;52.223;35.9563;-83.92689;802.75;NaN;;4.39;12.226105;104.3;15 / 18;194525;2022-10-24 16:27:57:775
8.6653;-3.414;-3.1113;8.5417;-2.3415;-4.2103;1.6905;-2.1103;-0.9514;-1.6107;0.3976;1.9012;6767.0;-46.12;-5.87;32.68;154.2;13.81;-116.24;5.0;987.03;51.093;35.9563;-83.92689;802.75;NaN;;4.39;12.226105;104.3;15 / 18;195025;2022-10-24 16:27:58:275
9.4615;-6.0045;-3.3721;9.0161;-2.4269;-2.9985;5.0154;-2.561;0.8478;2.3058;0.8814;-3.6005;4843.0;-49.54;5.7;34.13;117.51;14.33;-108.4;5.0;986.94;51.319;35.956295;-83.92687;804.04;NaN;;4.39;12.226105;109.3;15 / 18;195524;2022-10-24 16:27:58:774
10.7004;-2.557;-3.5767;7.9069;-3.8013;-4.382;5.4404;-1.4805;0.9919;-0.1826;-0.4775;3.4855;6964.0;-40.46;-24.09;23.96;166.24;1.85;-113.28;5.0;987.02;52.069;35.956295;-83.92687;804.04;NaN;;4.39;12.226105;109.3;15 / 18;196024;2022-10-24 16:27:59:274
12.0111;-7.7952;-3.4558;8.1669;-3.5619;-4.0968;7.3966;-0.0185;4.5244;3.0381;0.2934;-3.9604;4060.0;-41.85;-4.86;28.26;199.19;29.76;-135.18;5.0;987.02;51.267;35.956287;-83.926865;802.43;NaN;;4.5;12.226105;115.1;15 / 18;196525;2022-10-24 16:27:59:775
10.3137;-3.2189;-5.6776;8.4599;-0.4958;-4.935;0.17;-2.083;-0.0541;-0.006;0.2175;3.0271;5977.0;-27.32;-19.89;27.71;140.45;-18.62;-127.91;5.0;987.02;50.039;35.956287;-83.926865;802.43;NaN;;4.5;12.226105;115.1;15 / 18;197025;2022-10-24 16:28:00:275
12.982;-7.8467;-1.4091;6.9351;-5.3408;-4.4216;8.4426;0.7542;4.0771;1.2063;1.2528;-2.9723;3829.0;-39.66;-6.11;22.33;185.65;33.0;-122.52;5.0;987.01;49.768;35.956284;-83.92685;803.54;NaN;;4.25;12.226105;113.5;15 / 18;197525;2022-10-24 16:28:00:775
12.8862;-3.7098;-5.109;8.9262;-0.9727;-3.943;-2.2702;-4.9184;0.3309;-0.6919;0.1699;2.6363;6133.0;-27.13;-23.03;34.88;141.71;5.69;-113.83;5.0;987.02;50.934;35.956284;-83.92685;803.54;NaN;;4.25;12.226105;113.5;15 / 18;198025;2022-10-24 16:28:01:275
13.086;-6.5563;-3.1675;8.4764;-3.2056;-3.7478;5.3065;-0.6184;2.4633;1.4414;0.0435;-1.6893;3615.0;-30.47;-17.66;40.91;160.61;29.05;-127.94;5.0;987.02;51.34;35.95628;-83.926834;803.61;NaN;;4.25;12.226105;105.0;15 / 18;198525;2022-10-24 16:28:01:775
12.521;-4.5846;-4.3825;9.0326;0.2076;-3.8131;-3.0175;-5.3401;0.9158;0.1663;-0.3017;2.8132;5913.0;-28.16;-11.77;40.78;98.82;-10.45;-110.21;5.0;987.02;50.581;35.95628;-83.926834;803.61;NaN;;4.25;12.226105;105.0;15 / 18;199025;2022-10-24 16:28:02:275
14.9525;-3.2764;-1.4174;6.8563;-5.7199;-4.0553;8.2876;2.1186;2.7016;-0.3291;0.2267;-0.0325;2893.0;-23.23;5.79;40.76;149.07;46.54;-129.97;5.0;987.05;50.732;35.95628;-83.92682;802.25;NaN;;4.39;12.226105;83.4;15 / 18;199525;2022-10-24 16:28:02:775
5.729;-5.6225;-3.7445;8.9995;1.4859;-3.6015;-4.4614;-6.5471;1.3673;-0.4043;-0.4442;1.7605;5321.0;-25.44;-0.11;28.8;73.72;-8.72;-111.81;5.0;987.03;52.401;35.95628;-83.92682;802.25;NaN;;4.39;12.226105;83.4;15 / 18;200025;2022-10-24 16:28:03:275
17.1862;-3.2177;-2.0506;7.2004;-4.8854;-4.523;8.7395;2.6351;2.37;-0.7686;0.1977;0.9168;3046.0;-22.57;-0.04;27.58;156.69;35.45;-126.57;5.0;987.05;50.18;35.956284;-83.9268;802.19;NaN;;4.25;12.226105;82.9;15 / 18;200525;2022-10-24 16:28:03:775
6.2474;-5.1162;-2.2732;8.8764;1.8741;-3.7239;-5.0901;-6.0214;1.0497;-0.6953;-0.2135;1.0854;5560.0;-24.82;-7.03;27.92;91.4;-11.02;-112.76;5.0;987.03;51.118;35.956284;-83.9268;802.19;NaN;;4.25;12.226105;82.9;15 / 18;201025;2022-10-24 16:28:04:275
18.4035;-5.8475;-4.2027;6.9268;-4.9622;-4.8545;5.2389;4.5751;2.747;0.3212;0.4555;-0.8159;3400.0;-26.63;-2.12;33.08;152.87;30.4;-125.02;5.0;987.02;50.724;35.956284;-83.92679;803.38;NaN;;4.28;12.226105;88.7;15 / 18;201524;2022-10-24 16:28:04:774
6.5671;-6.2007;-3.6245;9.1611;-0.3676;-3.4798;-2.5598;-5.2309;-0.1471;-0.1914;-0.3615;0.4247;5740.0;-33.86;-6.73;30.88;86.64;-10.9;-108.56;5.0;987.06;51.067;35.956284;-83.92679;803.38;NaN;;4.28;12.226105;88.7;15 / 18;202024;2022-10-24 16:28:05:274
16.1901;-1.7225;1.3178;5.0925;-5.0496;-6.6887;9.0911;3.4697;6.2984;0.7567;1.3124;-1.466;4975.0;-32.44;-1.67;34.01;181.05;35.56;-137.38;5.0;987.04;52.105;35.956284;-83.92677;803.67;NaN;;4.21;12.226105;93.0;15 / 18;202526;2022-10-24 16:28:05:776
9.8192;-5.1293;-4.7007;8.7799;0.3415;-4.3551;-2.3092;-6.766;0.0351;-0.2343;-0.0539;0.4571;5974.0;-32.98;-6.94;34.14;72.71;-14.54;-117.92;5.0;987.04;52.258;35.956284;-83.92677;803.67;NaN;;4.21;12.226105;93.0;15 / 18;203025;2022-10-24 16:28:06:275
15.4143;0.5279;1.8135;6.1084;-4.352;-6.3181;8.6059;2.1283;5.5214;1.543;-0.0618;-1.8649;5917.0;-34.54;-3.54;35.96;180.31;26.35;-135.97;5.0;987.07;53.284;35.95628;-83.92676;805.32;NaN;;4.43;12.226105;104.7;15 / 18;203526;2022-10-24 16:28:06:776
7.2458;-3.1603;-5.2095;8.777;-0.012;-4.3743;-2.3274;-4.895;0.3553;-1.3811;0.2634;2.1764;6124.0;-34.11;-11.89;34.16;128.3;0.07;-116.49;5.0;987.04;51.788;35.95628;-83.92676;805.32;NaN;;4.43;12.226105;104.7;15 / 18;204025;2022-10-24 16:28:07:275
15.8477;-1.7189;-2.6779;8.3938;-2.6386;-4.3303;6.5577;1.9264;1.3159;-0.4594;0.3825;0.4432;6121.0;-36.51;-11.12;32.38;170.84;21.89;-125.49;5.0;987.04;51.414;35.956276;-83.92675;805.79;NaN;;4.36;12.226105;115.0;15 / 18;204525;2022-10-24 16:28:07:775
9.7379;-1.6531;-2.3677;8.7749;-1.1826;-4.2158;-0.9025;-3.6611;0.6186;-0.8842;-0.184;1.9554;7254.0;-39.28;-12.97;27.23;129.87;-3.9;-110.31;5.0;987.04;51.511;35.956276;-83.92675;805.79;NaN;;4.36;12.226105;115.0;15 / 18;205024;2022-10-24 16:28:08:274
13.7001;-3.0176;-2.9495;8.423;-2.2961;-4.4667;4.5654;0.6896;1.1031;0.2288;0.0261;-0.7324;5727.0;-37.78;-7.67;31.11;166.02;21.05;-121.93;5.0;987.08;51.588;35.956272;-83.926735;805.67;NaN;;4.39;12.226105;118.2;15 / 18;205524;2022-10-24 16:28:08:774
8.2214;-0.99;-3.6413;8.7686;-0.645;-4.3436;0.1126;-3.841;1.4125;-0.3221;0.3406;1.3861;6945.0;-38.01;-16.01;31.43;150.28;3.77;-116.35;5.0;987.04;51.172;35.956272;-83.926735;805.67;NaN;;4.39;12.226105;118.2;15 / 18;206024;2022-10-24 16:28:09:274
10.4396;-3.5707;-4.04;8.6843;-2.3272;-3.9162;2.9384;1.4475;1.0017;-0.5892;0.8653;-0.6987;5703.0;-40.54;-11.1;31.37;170.73;23.04;-121.6;5.0;987.01;50.258;35.956264;-83.92673;806.88;NaN;;4.43;12.226105;116.0;15 / 18;206524;2022-10-24 16:28:09:774
11.6725;-0.2177;-5.7972;8.4622;-1.5099;-4.7203;0.7172;-4.1023;-0.551;0.1474;0.2169;1.1202;6753.0;-37.07;-14.53;29.46;161.62;8.86;-119.15;5.0;987.07;51.322;35.956264;-83.92673;806.88;NaN;;4.43;12.226105;116.0;15 / 18;207025;2022-10-24 16:28:10:275
10.2574;-2.3258;-2.9064;7.9211;-3.6631;-4.473;5.0994;3.529;0.6542;0.6845;0.3163;-1.5222;5203.0;-37.22;-6.64;31.37;160.03;21.93;-119.45;5.0;987.07;51.057;35.95626;-83.92671;808.29;NaN;;4.54;12.226105;107.2;15 / 18;207525;2022-10-24 16:28:10:775
7.4994;-1.8075;-3.5874;8.8002;-1.185;-4.162;0.3746;-0.9278;0.4649;-0.3232;-0.1623;0.959;6192.0;-36.02;-12.0;30.49;135.17;1.36;-113.71;5.0;987.08;52.774;35.95626;-83.92671;808.29;NaN;;4.54;12.226105;107.2;15 / 18;208024;2022-10-24 16:28:11:274
10.6837;-0.419;-2.8083;7.5626;-3.9717;-4.817;4.9116;1.9872;1.6101;0.6546;-0.3253;-0.6697;5104.0;-36.24;-10.31;31.07;167.76;22.35;-123.6;5.0;987.08;53.306;35.956257;-83.9267;807.34;NaN;;4.32;12.226105;106.7;15 / 18;208525;2022-10-24 16:28:11:775
8.9276;-2.8418;-4.1489;8.9646;-0.6795;-3.9172;-1.4912;-1.64;-0.2276;0.0636;-0.1361;0.0044;6070.0;-36.15;-10.01;30.19;128.72;2.08;-111.8;5.0;987.03;51.944;35.956257;-83.9267;807.34;NaN;;4.32;12.226105;106.7;15 / 18;209024;2022-10-24 16:28:12:274
15.1726;-1.1755;-0.8919;8.742;-2.0965;-3.9182;4.7952;1.2469;2.5542;0.9567;0.3527;-0.9939;6096.0;-37.16;-13.29;27.66;155.02;12.34;-114.14;5.0;987.07;52.173;35.956253;-83.92668;808.98;NaN;;4.75;12.226105;112.8;15 / 18;209524;2022-10-24 16:28:12:774
9.3503;-2.0818;-3.4032;8.6061;-2.006;-4.2523;0.2678;-0.1562;0.5614;-0.8835;-0.3554;1.4796;6987.0;-36.43;-15.39;27.47;160.81;11.8;-116.29;5.0;987.07;51.271;35.956253;-83.92668;808.98;NaN;;4.75;12.226105;112.8;15 / 18;210024;2022-10-24 16:28:13:274
12.9353;-2.0578;-2.618;8.7317;-1.6465;-4.1494;4.2729;-0.3807;2.6167;0.2531;0.4733;-0.9852;5418.0;-35.19;-8.85;31.14;167.68;18.42;-125.3;5.0;987.06;51.651;35.956245;-83.926674;809.56;NaN;;4.39;12.226105;118.3;14 / 18;210524;2022-10-24 16:28:13:774
8.6067;-1.3071;-4.774;8.9891;0.3445;-3.9049;-0.6892;-3.3532;-0.1276;0.2666;-0.6151;1.1086;7369.0;-34.37;-17.72;26.91;124.82;-10.61;-108.78;5.0;987.03;51.683;35.956245;-83.926674;809.56;NaN;;4.39;12.226105;118.3;14 / 18;211024;2022-10-24 16:28:14:274
12.1813;-0.9242;-2.8573;8.6721;-1.9021;-4.165;3.8699;2.5387;3.5874;-0.4549;0.5288;-0.4426;5184.0;-33.49;-11.44;31.44;160.33;18.4;-122.07;5.0;987.04;52.467;35.95624;-83.92665;807.61;NaN;;5.04;12.226105;110.0;15 / 18;211524;2022-10-24 16:28:14:774
8.383;-0.929;-3.0093;9.106;0.7392;-3.5643;-1.51;-5.0909;0.7224;-0.139;-0.1689;1.5138;6337.0;-32.12;-18.02;29.36;134.18;-4.32;-111.38;5.0;987.06;50.913;35.95624;-83.92665;807.61;NaN;;5.04;12.226105;110.0;15 / 18;212024;2022-10-24 16:28:15:274
13.7109;-2.3629;2.9782;8.6884;-2.7922;-3.5897;6.0507;3.4857;7.6169;0.126;0.6883;0.0393;3175.0;-34.33;-13.67;29.04;167.62;19.45;-122.58;5.0;987.05;52.391;35.95623;-83.92664;807.73;NaN;;4.43;12.226105;114.5;15 / 18;212524;2022-10-24 16:28:15:774
9.6506;-3.0212;-4.0268;9.1539;0.1318;-3.5156;-1.6128;-5.8513;-0.4789;0.0821;-0.3553;1.8354;5396.0;-33.79;-13.89;29.34;132.07;-0.77;-111.01;5.0;987.03;52.4;35.95623;-83.92664;807.73;NaN;;4.43;12.226105;114.5;15 / 18;213025;2022-10-24 16:28:16:275
12.1621;-3.4295;-3.5073;8.1945;-3.3086;-4.2513;5.149;3.9453;2.758;1.1036;0.6796;-2.4015;1718.0;-32.25;-3.94;34.54;139.0;19.72;-117.42;5.0;987.03;52.387;35.956226;-83.92662;809.47;NaN;;4.32;12.226105;101.4;15 / 18;213524;2022-10-24 16:28:16:774
10.6214;-2.9219;-5.2717;8.538;-2.3738;-4.1999;1.0599;-0.2773;-0.4358;0.3226;-0.6352;1.9289;4376.0;-33.45;-16.54;29.96;134.34;-0.45;-109.78;5.0;987.04;52.647;35.956226;-83.92662;809.47;NaN;;4.32;12.226105;101.4;15 / 18;214024;2022-10-24 16:28:17:274
13.2383;-0.7002;-1.6089;7.2083;-4.5125;-4.8834;7.169;3.2583;2.2478;1.0269;0.1746;-1.9337;1482.0;-32.49;-8.1;34.91;167.27;30.1;-129.22;5.0;987.03;51.876;35.956223;-83.926605;808.0;NaN;;4.28;12.226105;100.1;15 / 18;214525;2022-10-24 16:28:17:775
6.9823;-2.3282;-3.02;9.0403;-1.293;-3.5738;-0.6153;-1.7678;-0.3837;0.0313;-0.3225;1.0687;4068.0;-32.94;-13.26;32.68;114.63;-4.14;-107.17;5.0;987.02;51.407;35.956223;-83.926605;808.0;NaN;;4.28;12.226105;100.1;15 / 18;215025;2022-10-24 16:28:18:275
12.0434;-2.8035;-2.2014;6.7897;-5.1871;-4.8129;3.251;4.733;2.3448;0.3907;0.0819;0.465;1416.0;-29.7;-5.25;36.79;155.76;31.93;-125.33;5.0;987.04;52.063;35.956223;-83.92659;807.43;NaN;;5.18;12.226105;94.3;15 / 18;215525;2022-10-24 16:28:18:775
8.2765;-4.8685;-2.2241;9.2603;0.4263;-3.1994;-1.2108;-5.9864;0.8784;0.2964;-0.37;0.9016;3242.0;-29.79;-5.31;35.14;97.98;-2.49;-109.06;5.0;986.99;52.404;35.956223;-83.92659;807.43;NaN;;5.18;12.226105;94.3;15 / 18;216026;2022-10-24 16:28:19:276
12.5856;1.2401;-1.9259;7.133;-5.0524;-4.4456;8.0071;3.5199;1.4677;-0.7115;0.3213;1.0051;1713.0;-28.69;-4.12;36.0;157.01;34.57;-125.92;5.0;987.02;52.176;35.95622;-83.926575;809.89;NaN;;4.61;12.226105;97.6;16 / 18;216524;2022-10-24 16:28:19:774
8.9145;-6.0918;-3.8713;9.1095;0.8561;-3.529;-2.1979;-5.9233;0.7261;-0.1323;0.0238;0.5196;2963.0;-27.69;-0.49;36.43;89.94;-0.04;-108.19;5.0;986.99;52.053;35.95622;-83.926575;809.89;NaN;;4.61;12.226105;97.6;16 / 18;217024;2022-10-24 16:28:20:274
14.0593;-1.4988;-3.0344;6.6227;-5.5804;-4.6009;5.6708;4.4157;1.733;-0.1162;-0.3382;1.6094;1941.0;-26.04;-1.14;36.3;140.79;29.91;-121.18;5.0;987.01;51.806;35.95622;-83.92656;809.69;NaN;;5.08;12.226105;88.1;16 / 18;217525;2022-10-24 16:28:20:775
7.8275;-5.2645;-3.038;9.333;2.0722;-2.1845;-0.6291;-6.8418;-0.8163;0.1707;-0.005;-1.0284;2629.0;-28.41;-3.26;33.23;80.26;-12.2;-103.17;5.0;987.0;51.714;35.95622;-83.92656;809.69;NaN;;5.08;12.226105;88.1;16 / 18;218024;2022-10-24 16:28:21:274
15.6706;-0.8246;-1.8135;6.8328;-4.2011;-5.6422;5.3129;4.2171;3.9384;-0.9457;-0.8225;2.5572;2855.0;-28.84;-11.62;32.63;150.91;18.24;-120.64;5.0;987.05;52.297;35.95622;-83.926544;810.4;NaN;;4.43;12.226105;82.3;16 / 18;218525;2022-10-24 16:28:21:775
7.0675;-4.7509;-4.0376;9.3674;1.4693;-2.5029;-0.3404;-6.0977;-0.9322;0.6433;-0.1293;-1.2416;2925.0;-31.16;-7.61;31.44;95.79;-8.62;-104.96;5.0;987.0;52.396;35.95622;-83.926544;810.4;NaN;;4.43;12.226105;82.3;16 / 18;219024;2022-10-24 16:28:22:274
11.8854;-0.9194;-1.2269;7.0879;-3.8109;-5.6044;4.3631;3.0451;3.7947;-0.8731;0.411;1.341;2836.0;-28.35;-12.81;32.36;164.68;22.87;-128.33;5.0;987.03;52.076;35.95622;-83.92653;809.28;NaN;;4.43;12.226105;100.1;16 / 18;219524;2022-10-24 16:28:22:774
6.8483;-4.4853;-3.0511;9.2518;1.352;-2.9574;-1.3286;-6.4825;-1.1346;1.0878;-0.0895;-1.9742;2338.0;-28.89;-10.03;31.16;111.79;-2.35;-106.91;5.0;986.96;51.438;35.95622;-83.92653;809.28;NaN;;4.43;12.226105;100.1;16 / 18;220024;2022-10-24 16:28:23:274
11.4377;-1.3992;-2.5053;7.2945;-3.8;-5.3406;1.1732;1.9244;3.7167;-0.127;-0.8496;1.7926;2988.0;-24.71;-12.83;33.15;136.69;10.42;-116.51;5.0;987.01;52.206;35.95622;-83.92651;810.46;NaN;;4.18;12.226105;92.4;16 / 18;220526;2022-10-24 16:28:23:776
7.9831;-5.2322;-4.0089;9.0969;1.3468;-3.4064;-1.323;-5.8384;0.3014;1.2393;0.2089;-2.5694;2146.0;-24.09;-5.17;34.43;106.07;3.08;-110.04;5.0;986.98;51.756;35.95622;-83.92651;810.46;NaN;;4.18;12.226105;92.4;16 / 18;221024;2022-10-24 16:28:24:274
10.6202;-1.2305;-3.0368;7.6601;-3.5411;-4.9954;0.4387;1.6248;3.261;-0.1255;-1.5799;1.717;3189.0;-24.06;-7.13;33.64;143.13;21.17;-123.11;5.0;987.01;52.038;35.95622;-83.926506;810.51;NaN;;4.57;12.226105;74.6;16 / 18;221524;2022-10-24 16:28:24:774
5.2059;-4.9726;-5.115;9.0714;2.16;-3.0354;-0.0455;-7.1056;-0.4519;0.5216;-0.2827;-1.5835;2031.0;-23.89;-7.09;31.48;89.08;-12.72;-108.5;5.0;987.0;51.68;35.95622;-83.926506;810.51;NaN;;4.57;12.226105;74.6;16 / 18;222024;2022-10-24 16:28:25:274
11.2283;-0.4298;-0.5937;6.776;-2.5882;-6.5998;4.9769;0.9704;5.5717;-2.3353;-1.1158;2.1487;3138.0;-24.19;-11.61;30.13;151.13;14.83;-123.82;5.0;987.0;51.562;35.95622;-83.92649;810.32;NaN;;4.28;12.226105;80.2;15 / 18;222524;2022-10-24 16:28:25:774
8.0345;-4.1118;-5.7888;8.7346;0.2634;-4.4505;2.8084;-6.8444;0.461;2.0846;-2.0701;-2.4548;1714.0;-25.97;-8.83;28.14;144.38;13.44;-118.34;5.0;986.96;51.736;35.95622;-83.92649;810.32;NaN;;4.28;12.226105;80.2;15 / 18;223025;2022-10-24 16:28:26:275
9.5524;-0.3497;-2.9877;7.5342;-3.0863;-5.4663;1.6904;2.6616;2.4849;-1.1627;0.1884;1.7941;2955.0;-22.24;-9.39;34.03;130.41;10.7;-120.27;5.0;986.98;51.867;35.95622;-83.92648;808.66;NaN;;4.28;12.226105;83.7;15 / 18;223524;2022-10-24 16:28:26:774
7.4109;-3.7875;-3.6209;8.7955;-1.125;-4.1886;1.2831;-1.9961;0.5181;0.6157;0.4265;-2.0814;1628.0;-27.36;-3.11;32.14;113.05;6.59;-115.46;5.0;986.98;52.714;35.95622;-83.92648;808.66;NaN;;4.28;12.226105;83.7;15 / 18;224024;2022-10-24 16:28:27:274
7.4049;-1.0714;-1.9705;8.0021;-2.9372;-4.8487;-0.2434;1.9271;1.3638;-0.7066;0.1308;1.2781;2952.0;-26.7;-10.89;35.55;136.41;11.17;-119.71;5.0;987.0;53.888;35.956223;-83.92646;806.04;NaN;;4.54;12.226105;61.9;14 / 18;224525;2022-10-24 16:28:27:775
11.0656;-3.2704;-3.615;8.3403;-3.1202;-4.1078;3.5391;1.113;2.5535;0.1142;0.605;-2.6347;1352.0;-27.43;-3.13;36.69;126.53;18.55;-116.22;5.0;987.01;54.376;35.956223;-83.92646;806.04;NaN;;4.54;12.226105;61.9;14 / 18;225025;2022-10-24 16:28:28:275
8.7649;-0.2704;-2.3653;8.3236;-2.0437;-4.7656;3.0046;-0.3743;0.9486;-0.8411;0.7435;1.6235;3283.0;-23.61;-6.17;39.64;122.2;12.03;-119.79;5.0;986.99;53.594;35.956223;-83.926445;805.17;NaN;;4.75;12.226105;86.8;14 / 18;225524;2022-10-24 16:28:28:774
7.2182;-3.1364;-2.4191;9.1507;-1.3507;-3.2574;1.9969;-2.0226;0.1199;0.7277;0.6393;-1.9883;1231.0;-23.25;1.67;39.28;117.26;22.11;-117.0;5.0;986.97;53.504;35.956223;-83.926445;805.17;NaN;;4.75;12.226105;86.8;14 / 18;226025;2022-10-24 16:28:29:275
9.143;-2.5029;-4.2832;8.5915;-1.2446;-4.5616;-0.7523;-0.8355;0.1619;-0.9942;-0.4022;1.8784;4257.0;-27.82;-6.24;35.63;96.96;-4.63;-112.0;5.0;986.97;52.67;35.956223;-83.92644;806.97;NaN;;4.36;12.226105;74.7;14 / 18;226526;2022-10-24 16:28:29:776
12.1956;-3.8091;-4.1548;8.4362;-2.8705;-4.094;2.8077;1.844;3.0852;-0.0669;1.079;-1.1166;1218.0;-24.49;-1.91;38.83;141.1;27.25;-126.43;5.0;986.99;52.852;35.956223;-83.92644;806.97;NaN;;4.36;12.226105;74.7;14 / 18;227024;2022-10-24 16:28:30:274
9.7319;-2.8621;-4.8494;8.9811;-0.0382;-3.9382;-1.1848;-4.8659;-0.1262;-0.2708;-0.3988;1.8743;3655.0;-26.98;-5.89;35.91;105.54;0.22;-113.68;5.0;986.97;53.386;35.956223;-83.92642;807.14;NaN;;4.32;12.226105;75.9;14 / 18;227525;2022-10-24 16:28:30:775
13.1315;-3.0488;-1.0798;8.1395;-3.1789;-4.4512;6.4569;3.4335;2.5445;2.5;-0.1652;-2.5511;1743.0;-26.68;-3.97;36.08;132.48;18.91;-118.67;5.0;986.95;52.83;35.956223;-83.92642;807.14;NaN;;4.32;12.226105;75.9;14 / 18;228024;2022-10-24 16:28:31:274
9.5321;-3.4702;-4.7174;8.4824;-1.7041;-4.6169;-0.331;-1.2726;0.4735;-0.0071;-0.3744;1.6743;3228.0;-25.37;-6.47;34.89;97.93;-4.66;-115.14;5.0;986.97;54.441;35.956226;-83.926414;806.12;NaN;;4.25;12.226105;70.5;14 / 18;228524;2022-10-24 16:28:31:774
12.5342;1.8517;-0.1244;7.536;-3.4154;-5.2645;6.8827;0.8382;4.6778;1.5631;0.1632;-1.4953;1523.0;-23.85;-5.81;33.77;143.74;20.38;-124.94;5.0;986.94;54.38;35.956226;-83.926414;806.12;NaN;;4.25;12.226105;70.5;14 / 18;229025;2022-10-24 16:28:32:275
5.8654;-2.2672;-3.2548;8.9586;-0.0347;-3.989;-2.0783;-3.718;0.2722;0.2831;-0.6058;0.4339;3571.0;-26.32;-10.93;31.54;102.99;-9.78;-110.67;5.0;986.94;53.123;35.956226;-83.9264;806.49;NaN;;4.32;12.226105;88.7;14 / 18;229524;2022-10-24 16:28:32:774
12.5198;-3.6846;-1.3992;7.2571;-4.1287;-5.1438;7.1411;3.2754;2.2582;0.4875;0.5359;-1.5759;1705.0;-23.06;-5.12;36.28;142.84;24.9;-125.33;5.0;986.97;53.214;35.956226;-83.9264;806.49;NaN;;4.32;12.226105;88.7;14 / 18;230024;2022-10-24 16:28:33:274
9.2363;-5.6417;-3.8186;8.8455;-0.3058;-4.223;-0.2568;-4.5397;0.3666;-0.1553;-0.2619;0.441;3438.0;-23.36;-6.45;35.91;93.14;-7.6;-111.23;5.0;986.94;54.01;35.956223;-83.926384;806.76;NaN;;4.03;12.226105;93.2;14 / 18;230525;2022-10-24 16:28:33:775
15.5629;1.7955;1.13;7.4777;-2.7185;-5.7327;5.1626;4.3076;0.7452;-1.77;1.301;0.2062;1519.0;-22.29;-8.31;37.78;138.47;16.09;-127.48;5.0;986.95;52.639;35.956223;-83.926384;806.76;NaN;;4.03;12.226105;93.2;14 / 18;231024;2022-10-24 16:28:34:274
9.8303;-1.7154;-6.6377;8.984;2.2549;-3.2209;-2.6566;-7.2705;-0.3163;0.41;-0.6774;1.6843;4415.0;-24.88;-16.2;34.22;107.7;-13.29;-109.72;5.0;986.89;54.051;35.956223;-83.92637;805.86;NaN;;4.32;12.226105;106.1;14 / 18;231524;2022-10-24 16:28:34:774
13.273;-2.6719;-1.9307;8.4765;-2.2869;-4.3692;5.9941;3.2874;2.4996;-0.0128;0.4563;0.2217;1889.0;-22.69;-10.37;38.81;141.34;18.29;-126.01;5.0;986.94;53.32;35.956223;-83.92637;805.86;NaN;;4.32;12.226105;106.1;14 / 18;232025;2022-10-24 16:28:35:275
7.6588;-2.4311;-4.6552;9.0895;1.5617;-3.3334;-2.8396;-5.5656;-0.7009;0.325;-1.3837;1.9356;3552.0;-24.96;-10.86;36.9;98.43;-11.05;-104.56;5.0;986.94;53.422;35.95622;-83.92636;806.5;NaN;;4.28;12.226105;105.9;14 / 18;232524;2022-10-24 16:28:35:774
14.4939;1.7812;-1.4629;7.7817;-3.2851;-4.9823;8.5813;1.9197;2.9992;-0.7729;0.3963;0.9302;1301.0;-20.79;-8.72;39.86;146.41;24.31;-130.33;5.0;986.94;52.947;35.95622;-83.92636;806.5;NaN;;4.28;12.226105;105.9;14 / 18;233025;2022-10-24 16:28:36:275
6.3359;-2.9207;-2.8298;8.9797;1.6176;-3.5944;-3.4576;-6.4374;-0.047;-0.0423;-1.1531;1.8337;3196.0;-23.81;-10.03;37.01;98.76;-9.49;-111.82;5.0;986.95;53.223;35.95622;-83.926346;804.32;NaN;;4.28;12.226105;86.6;14 / 18;233525;2022-10-24 16:28:36:775
14.3743;-1.9522;-2.6109;7.0147;-4.3029;-5.3338;5.7989;2.9167;2.859;0.5898;0.2288;-1.1498;1170.0;-20.18;-3.24;40.28;135.81;26.03;-127.25;5.0;986.95;53.395;35.95622;-83.926346;804.32;NaN;;4.28;12.226105;86.6;14 / 18;234024;2022-10-24 16:28:37:274
6.8459;-3.7744;-3.0631;9.0536;-0.1186;-3.7668;-2.3686;-6.1205;1.5065;-0.1875;0.0317;0.3284;2356.0;-23.55;-6.41;37.5;87.96;-11.05;-110.45;5.0;986.94;52.812;35.95622;-83.92633;803.27;NaN;;4.03;12.226105;90.3;14 / 18;234524;2022-10-24 16:28:37:774
14.3539;-0.6093;-0.7074;6.5765;-4.8858;-5.3898;7.8156;4.4119;2.5669;0.6669;0.5327;-1.6005;1878.0;-22.82;-3.54;37.74;152.25;32.65;-130.77;5.0;986.94;53.362;35.95622;-83.92633;803.27;NaN;;4.03;12.226105;90.3;14 / 18;235024;2022-10-24 16:28:38:274
6.816;-3.128;-3.9718;8.9735;0.7517;-3.8834;-1.3021;-5.6418;-0.3312;-0.1956;-0.4353;0.5264;1202.0;-24.9;-6.17;37.29;82.42;-14.61;-110.88;5.0;986.92;53.305;35.95622;-83.926315;802.47;NaN;;4.21;12.226105;89.7;14 / 18;235524;2022-10-24 16:28:38:774
13.7336;2.3868;-0.62;7.1875;-4.0958;-5.2663;6.4917;4.0415;5.1088;0.7048;0.5527;-0.6996;1488.0;-24.75;-7.54;38.25;147.66;24.69;-126.23;5.0;986.94;53.389;35.95622;-83.926315;802.47;NaN;;4.21;12.226105;89.7;14 / 18;236024;2022-10-24 16:28:39:274
6.8447;-5.1269;-4.0663;8.8656;0.8489;-4.1049;-1.6499;-5.8278;-0.1065;-0.0131;-0.3011;-0.5518;2788.0;-25.52;-7.16;37.33;93.65;-8.15;-110.83;5.0;986.94;53.782;35.95622;-83.92631;801.79;NaN;;4.21;12.226105;97.2;14 / 18;236524;2022-10-24 16:28:39:774
16.8509;-2.467;-0.1795;8.0235;-3.3396;-4.5433;5.1931;5.4402;8.439;1.6814;-0.3552;-0.7029;1734.0;-23.89;-9.08;36.81;136.92;19.91;-119.52;5.0;986.91;53.765;35.95622;-83.92631;801.79;NaN;;4.21;12.226105;97.2;14 / 18;237024;2022-10-24 16:28:40:274
0.4478;1.1121;7.2817;3.2096;3.3518;8.6391;4.4051;-5.3381;-3.263;0.1149;1.8224;-0.5198;8122.0;-31.35;-12.58;16.95;111.78;-19.99;-20.38;5.0;986.93;54.013;35.95622;-83.926285;802.32;NaN;;4.39;12.226105;80.2;14 / 18;237524;2022-10-24 16:28:40:774
2.6874;5.3462;8.3806;4.4163;4.6252;7.4346;-3.1294;1.9851;1.7578;0.3028;-0.2905;0.5392;6586.0;-29.83;-21.22;-19.71;104.58;-26.9;-20.88;5.0;986.92;53.763;35.95622;-83.926285;802.32;NaN;;4.39;12.226105;80.2;14 / 18;238024;2022-10-24 16:28:41:274
7.5425;4.5165;10.6872;5.3939;4.4185;6.8958;-1.824;0.4559;-0.6577;-0.9585;-1.056;0.366;9107.0;-33.71;-21.94;-9.62;98.76;-32.6;-36.59;5.0;986.94;53.721;35.95622;-83.92627;802.02;NaN;;4.82;12.226105;105.6;14 / 18;238524;2022-10-24 16:28:41:774
7.2757;4.7788;12.7822;5.8978;4.1104;6.6701;-2.1136;0.8017;4.424;0.511;-0.1457;0.1201;11848.0;-34.89;-22.14;-6.69;113.37;-22.43;-38.95;5.0;986.96;53.629;35.95622;-83.92627;802.02;NaN;;4.82;12.226105;105.6;14 / 18;239025;2022-10-24 16:28:42:275
10.0983;1.4701;8.2968;6.7345;4.1888;5.7681;-1.2247;-1.1948;-3.213;-2.1493;-1.7686;0.96;7645.0;-34.18;-23.89;-3.15;116.37;-25.29;-49.42;5.0;986.91;53.574;35.956215;-83.926254;802.16;NaN;;3.89;12.226105;110.1;14 / 18;239524;2022-10-24 16:28:42:774
8.1147;-0.1531;10.5377;7.9774;0.7524;5.6537;-3.3553;0.2116;3.8191;-0.0564;0.1062;0.2901;8029.0;-36.07;-20.57;-4.89;137.81;-4.4;-54.67;5.0;986.94;53.219;35.956215;-83.926254;802.16;NaN;;3.89;12.226105;110.1;14 / 18;240024;2022-10-24 16:28:43:274
14.0222;-1.8446;-2.4347;9.5571;1.4352;-1.6654;-2.4142;-4.0308;0.1444;0.478;-0.9103;3.7033;19423.0;-36.36;-19.97;1.01;108.33;-25.12;-74.59;5.0;986.91;53.568;35.956215;-83.92625;800.49;NaN;;3.85;12.226105;101.1;14 / 18;240524;2022-10-24 16:28:43:774
15.1415;-0.754;0.1878;7.7973;-4.7038;-3.6396;6.1779;1.9582;4.5468;-0.6253;0.3599;0.3872;4344.0;-28.13;1.54;32.19;146.75;31.63;-121.27;5.0;986.92;54.06;35.956215;-83.92625;800.49;NaN;;3.85;12.226105;101.1;14 / 18;241024;2022-10-24 16:28:44:274
6.1253;-4.3394;-2.6503;9.3192;2.0756;-2.2394;-3.5942;-6.4351;-0.7828;0.4505;-0.6423;0.6435;3706.0;-29.57;-3.3;32.12;78.68;-12.22;-103.51;5.0;986.93;54.781;35.95621;-83.92624;796.89;NaN;;2.12;12.226105;115.9;14 / 18;241524;2022-10-24 16:28:44:774
14.5872;-1.2341;-1.3358;6.6626;-5.6611;-4.4422;5.6855;6.0312;3.3331;0.1058;-0.7414;1.213;2560.0;-23.91;1.44;36.51;142.24;35.26;-123.69;5.0;986.95;54.287;35.95621;-83.92624;796.89;NaN;;2.12;12.226105;115.9;14 / 18;242024;2022-10-24 16:28:45:274
6.2545;-5.5926;-1.3645;9.2503;1.8742;-2.6626;-0.9557;-7.3798;1.1949;1.1009;-0.5821;-1.4784;999.0;-23.79;3.32;36.19;88.86;4.21;-106.58;5.0;986.95;54.536;35.956207;-83.92623;797.63;NaN;;3.82;12.226105;122.2;14 / 18;242524;2022-10-24 16:28:45:774
11.8615;0.5734;-3.9335;6.4693;-5.7783;-4.5749;5.1994;5.185;3.1003;-0.6861;0.2555;1.0033;1790.0;-21.53;4.16;36.73;120.84;25.44;-120.08;5.0;986.95;54.187;35.956207;-83.92623;797.63;NaN;;3.82;12.226105;122.2;14 / 18;243024;2022-10-24 16:28:46:274
6.9775;-5.2765;-2.2887;9.1337;1.0835;-3.4019;-2.3174;-5.8964;1.0518;0.1665;-0.0066;-1.528;1062.0;-21.51;5.85;36.3;75.12;-2.32;-107.99;5.0;986.96;55.016;35.9562;-83.92622;796.07;NaN;;4.32;12.226105;131.6;14 / 18;243524;2022-10-24 16:28:46:774
10.4743;0.3664;-1.3238;7.0672;-4.803;-4.8121;4.1032;2.8592;2.4646;-0.6451;-0.0961;0.9961;3460.0;-22.76;1.03;36.6;136.58;29.33;-124.25;5.0;986.93;54.648;35.9562;-83.92622;796.07;NaN;;4.32;12.226105;131.6;14 / 18;244025;2022-10-24 16:28:47:275
5.8391;-5.2717;-2.4491;9.3894;1.7831;-2.1976;-2.5213;-6.8557;0.2788;-0.0186;0.9455;-2.4277;3450.0;-22.61;2.63;36.51;84.65;0.41;-105.33;5.0;986.91;54.44;35.956192;-83.926216;794.55;NaN;;3.24;12.226105;120.0;14 / 18;244524;2022-10-24 16:28:47:774
11.0752;-1.9956;-2.4826;7.4473;-4.0698;-4.9138;0.5963;1.4259;2.3262;-1.5529;-0.2503;2.6344;5361.0;-23.81;-5.81;35.12;143.69;24.52;-123.42;5.0;986.94;58.831;35.956192;-83.926216;794.55;NaN;;3.24;12.226105;120.0;14 / 18;245025;2022-10-24 16:28:48:275
