ACCELEROMETER X (m/s²);ACCELEROMETER Y (m/s²);ACCELEROMETER Z (m/s²);GRAVITY X (m/s²);GRAVITY Y (m/s²);GRAVITY Z (m/s²);LINEAR ACCELERATION X (m/s²);LINEAR ACCELERATION Y (m/s²);LINEAR ACCELERATION Z (m/s²);GYROSCOPE X (rad/s);GYROSCOPE Y (rad/s);GYROSCOPE Z (rad/s);LIGHT (lux);MAGNETIC FIELD X (μT);MAGNETIC FIELD Y (μT);MAGNETIC FIELD Z (μT);ORIENTATION Z (azimuth °);ORIENTATION X (pitch °);ORIENTATION Y (roll °);PROXIMITY (i);ATMOSPHERIC PRESSURE (hPa);SOUND LEVEL (dB);LOCATION Latitude : ;LOCATION Longitude : ;LOCATION Altitude ( m);LOCATION Altitude-google ( m);LOCATION Altitude-atmospheric pressure ( m);LOCATION Speed ( Kmh);LOCATION Accuracy ( m);LOCATION ORIENTATION (°);Satellites in range;Time since start in ms ;YYYY-MO-DD HH-MI-SS_SSS
-2.9471;0.5913;9.1514;-3.3818;-0.0757;9.2048;0.8133;0.964;0.6763;1.6025;0.788;-0.0224;1729.0;13.59;-25.5;-34.2;183.08;0.44;20.17;5.0;978.35;52.644;35.95848;-83.92486;792.08;NaN;;6.7;31.163704;105.9;9 / 17;72;2022-10-17 16:41:27:336
-3.3314;1.2628;7.3582;-0.8813;1.3544;9.6726;-2.4428;0.2352;-1.6018;-0.4422;0.1034;-0.7028;1921.0;15.94;-20.06;-37.44;221.67;-9.76;6.47;5.0;978.4;54.262;35.95848;-83.92486;792.08;NaN;;6.7;31.163704;105.9;9 / 17;572;2022-10-17 16:41:27:836
10.7052;0.8692;-2.2205;7.3874;5.0912;3.9594;-3.2185;-3.0983;-0.6478;0.3661;-1.4046;0.3865;1723.0;-1.65;-26.29;-31.37;242.55;-31.28;-61.81;5.0;978.34;53.578;35.958473;-83.92487;793.0;NaN;;5.83;25.716934;92.3;10 / 17;1072;2022-10-17 16:41:28:336
9.7223;2.2014;0.3042;9.3928;-0.5812;-2.7582;-1.3718;1.5447;3.2824;-1.5894;-0.1541;1.057;565.0;-31.5;-30.09;-0.99;196.52;-1.69;-103.84;5.0;978.37;55.616;35.958473;-83.92487;793.0;NaN;;5.83;25.716934;92.3;10 / 17;1572;2022-10-17 16:41:28:836
8.4942;-2.9865;-3.256;9.6309;1.1384;-1.4563;2.0179;-3.3569;-0.051;2.6968;-0.6082;-2.4934;182.0;-39.36;-17.4;4.91;184.12;-6.67;-98.6;5.0;978.32;55.537;35.958473;-83.92487;793.0;NaN;;5.83;25.716934;92.3;11 / 17;2072;2022-10-17 16:41:29:336
13.1064;1.3717;-6.1433;9.1114;-0.5481;-3.5851;-1.6275;0.0977;1.6862;2.6016;-2.2092;2.1248;175.0;-28.84;-26.83;13.46;176.63;-8.88;-111.84;5.0;978.38;53.221;35.958473;-83.92487;793.0;NaN;;5.83;25.716934;92.3;11 / 17;2572;2022-10-17 16:41:29:836
6.2474;-3.1555;-4.6074;8.2192;3.5555;-3.9967;-1.212;-6.6435;-0.2922;0.8392;0.0462;-2.9583;179.0;-33.77;-12.73;18.15;159.09;-3.72;-111.92;5.0;978.35;53.43;35.95848;-83.92488;784.45;NaN;;5.58;20.458588;162.4;11 / 17;3072;2022-10-17 16:41:30:336
9.3515;1.3238;-3.2357;8.65;-0.32;-4.6094;-0.6901;0.1198;0.9153;-0.5189;-0.584;2.2994;169.0;-25.76;-26.4;19.29;166.97;-11.16;-118.17;5.0;978.36;54.176;35.95848;-83.92488;784.45;NaN;;5.58;20.458588;162.4;11 / 17;3572;2022-10-17 16:41:30:836
5.6309;-3.3709;-4.386;8.4078;4.1816;-2.8272;-0.2348;-7.4196;-1.9803;0.5696;0.6489;-3.0782;179.0;-34.71;-16.28;16.61;68.19;-25.24;-108.59;5.0;978.36;53.53;35.958473;-83.92489;786.38;NaN;;5.29;19.75006;162.4;11 / 17;4072;2022-10-17 16:41:31:336
8.7769;1.8458;-1.4498;7.6289;-0.5382;-6.1385;2.2394;-1.1173;1.1833;-2.4189;-0.7449;2.4985;169.0;-24.82;-27.0;19.61;173.0;-8.57;-123.84;5.0;978.37;54.681;35.958473;-83.92489;786.38;NaN;;5.29;19.75006;162.4;11 / 17;4572;2022-10-17 16:41:31:836
10.7124;-2.6874;-0.8429;7.917;0.1529;-5.7852;0.589;2.9173;2.3963;2.9095;0.8167;-0.6544;215.0;-34.86;-16.44;16.76;204.21;-0.89;-126.16;5.0;978.35;55.329;35.95847;-83.92489;788.47;NaN;;3.24;17.425385;162.4;11 / 17;5071;2022-10-17 16:41:32:335
7.6289;-3.5719;-5.662;7.9463;4.202;-3.9205;-3.1172;-4.3444;-2.2294;-0.3231;-0.3606;0.7277;188.0;-31.99;-23.89;13.78;193.39;-25.37;-116.26;5.0;978.36;56.973;35.95847;-83.92489;788.47;NaN;;3.24;17.425385;162.4;11 / 17;5573;2022-10-17 16:41:32:837
17.3584;3.2716;1.0307;7.4973;-2.2495;-5.9077;4.6813;5.6509;5.6364;0.195;0.2158;0.4403;180.0;-30.45;-25.07;12.41;188.52;6.21;-119.34;5.0;978.36;57.614;35.958454;-83.92488;793.65;NaN;;5.94;15.922663;162.4;11 / 17;6072;2022-10-17 16:41:33:336
9.1514;-2.0853;-4.5595;8.5045;3.5181;-3.3862;-1.3189;-7.7373;-1.7312;0.6228;-0.2172;-0.4985;258.0;-38.4;-14.94;4.41;257.98;-19.6;-106.98;5.0;978.36;55.821;35.958454;-83.92488;793.65;NaN;;5.94;15.922663;162.4;11 / 17;6573;2022-10-17 16:41:33:837
14.5968;2.4096;1.817;8.4352;-2.6179;-4.2619;4.4115;5.5406;-0.1115;-0.8745;0.2973;0.262;315.0;-35.76;-22.16;6.21;199.63;15.48;-116.8;5.0;978.37;59.375;35.958447;-83.92488;810.37;NaN;;4.46;15.831789;162.4;11 / 17;7072;2022-10-17 16:41:34:336
10.2132;-1.7704;-4.4363;8.8605;2.8693;-3.0706;-1.3135;-6.4889;-1.6341;0.0131;-0.1939;-0.1612;318.0;-37.82;-18.43;6.32;219.47;-16.57;-106.82;5.0;978.37;59.817;35.958447;-83.92488;810.37;NaN;;4.46;15.831789;162.4;11 / 17;7572;2022-10-17 16:41:34:836
13.6128;4.6792;-2.8956;8.1339;-2.0218;-5.0914;2.437;5.13;1.5948;0.2753;0.4484;-0.2697;373.0;-35.91;-20.01;9.19;203.14;11.9;-122.04;5.0;978.35;59.23;35.95844;-83.92487;805.02;NaN;;4.25;15.47487;162.4;11 / 17;8072;2022-10-17 16:41:35:336
7.375;-2.9698;-5.2274;8.2393;3.9191;-3.5951;-1.3064;-7.3123;-1.0429;-0.3094;-0.3867;1.9103;296.0;-32.83;-21.64;10.37;197.02;-22.16;-110.62;5.0;978.37;58.327;35.95844;-83.92487;805.02;NaN;;4.25;15.47487;162.4;11 / 17;8571;2022-10-17 16:41:35:835
15.5007;0.3425;-5.1891;8.6568;-1.2638;-4.4309;4.7275;5.9838;1.6792;-0.039;0.6025;-0.0458;488.0;-33.37;-22.09;11.93;194.52;8.99;-121.52;5.0;978.34;60.156;35.95843;-83.924866;801.08;NaN;;5.94;14.464854;162.4;11 / 17;9072;2022-10-17 16:41:36:336
13.5051;7.4779;-0.5674;8.6737;3.8404;-2.4876;2.8695;-1.8246;-3.3794;-0.6276;0.9338;-1.1556;426.0;-31.48;-25.69;8.1;187.86;-22.79;-107.33;5.0;978.36;59.625;35.95843;-83.924866;801.08;NaN;;5.94;14.464854;162.4;11 / 17;9572;2022-10-17 16:41:36:836
1.27;2.6504;8.5684;3.2835;3.4348;8.5786;-1.8025;-0.4102;-0.2275;0.0144;0.5103;0.4332;996.0;-10.63;-34.26;-20.16;172.56;-20.5;-20.94;5.0;978.31;60.222;35.95842;-83.92486;799.11;NaN;;5.11;13.574659;162.4;11 / 17;10071;2022-10-17 16:41:37:335
-0.4741;3.1854;9.0102;0.2374;3.7996;9.0375;0.9165;0.022;-0.009;-0.1753;1.2113;0.1778;1558.0;-0.94;-33.24;-29.16;186.22;-18.94;-6.68;5.0;978.31;59.131;35.95842;-83.92486;799.11;NaN;;5.11;13.574659;162.4;11 / 17;10573;2022-10-17 16:41:37:837
3.8545;3.4642;9.5357;2.0518;3.6282;8.8767;-2.3614;0.8726;-1.1144;-0.2855;-1.6772;-0.2142;1269.0;5.66;-33.54;-27.6;208.92;-21.71;-13.01;5.0;978.33;57.848;35.95841;-83.92485;796.06;NaN;;4.07;12.927889;161.0;11 / 17;11072;2022-10-17 16:41:38:336
5.5484;2.8095;7.5317;4.6424;2.904;8.1354;-0.4128;-0.1276;-0.2155;-0.7782;-0.4587;0.3958;1737.0;-5.08;-32.68;-28.84;203.27;-17.22;-29.71;5.0;978.28;57.943;35.95841;-83.92485;796.06;NaN;;4.07;12.927889;161.0;11 / 17;11572;2022-10-17 16:41:38:836
5.8558;-0.146;8.1832;4.8778;1.4747;8.3787;-1.1281;0.3914;1.5238;-0.922;-0.8784;0.9434;2097.0;-11.57;-28.28;-31.89;194.22;-8.65;-30.21;5.0;978.32;58.378;35.9584;-83.92485;795.33;NaN;;3.89;12.782708;160.9;11 / 17;12072;2022-10-17 16:41:39:336
13.1626;-3.524;5.7673;7.1422;-0.5195;6.7;4.0684;-1.4531;-2.8866;-2.1951;-3.0355;0.0714;2036.0;-12.09;-26.36;-33.17;192.86;-11.34;-26.94;5.0;978.28;56.82;35.9584;-83.92485;795.33;NaN;;3.89;12.782708;160.9;11 / 17;12573;2022-10-17 16:41:39:837
2.8944;-3.0631;13.7025;4.0724;-0.7828;8.8867;-0.669;0.3875;1.0222;1.0791;4.7934;2.0637;1907.0;-15.36;-18.53;-36.32;183.53;4.58;-24.62;5.0;978.33;56.098;35.958393;-83.92485;793.91;NaN;;5.4;12.433172;160.9;11 / 17;13072;2022-10-17 16:41:40:336
-0.0802;-2.2373;7.168;-3.6489;0.2615;9.0988;2.711;-3.0463;-2.1963;1.1479;0.8606;2.6859;1315.0;5.79;-17.7;-38.72;168.03;10.5;16.41;5.0;978.28;57.03;35.958393;-83.92485;793.91;NaN;;5.4;12.433172;160.9;11 / 17;13572;2022-10-17 16:41:40:836
-1.2413;-0.28;10.5485;-1.0091;-1.3093;9.6663;-1.2983;0.3971;-1.3918;1.3184;-0.7752;-0.1539;1369.0;0.02;-18.6;-39.54;170.24;7.67;5.96;5.0;978.27;54.652;35.95838;-83.92484;790.28;NaN;;3.38;12.226105;153.5;10 / 17;14071;2022-10-17 16:41:41:335
-0.3927;2.7305;7.9472;-0.4965;2.1979;9.5443;0.1595;-0.0549;0.2516;0.8567;-0.2768;-0.2412;1695.0;-5.21;-22.33;-36.66;160.78;-8.06;1.23;5.0;978.26;55.802;35.95838;-83.92484;790.28;NaN;;3.38;12.226105;153.5;10 / 17;14572;2022-10-17 16:41:41:836
-0.6691;2.7485;9.9165;0.2939;2.3864;9.5073;-0.8043;0.5347;-0.081;-0.2286;0.0551;0.1859;1662.0;-6.88;-29.04;-31.48;163.06;-14.93;-1.68;5.0;978.29;55.902;35.958378;-83.924835;787.6;NaN;;2.56;12.226105;153.8;10 / 17;15072;2022-10-17 16:41:42:336
-0.0395;2.91;9.8255;-0.5314;2.7714;9.3919;1.1222;0.0448;-2.0301;0.1208;-0.0534;0.0592;1690.0;-7.74;-28.41;-32.51;156.07;-15.35;0.19;5.0;978.26;54.238;35.958378;-83.924835;787.6;NaN;;2.56;12.226105;153.8;10 / 17;15571;2022-10-17 16:41:42:835
2.0961;2.1105;10.686;0.9913;1.8992;9.5698;0.2811;0.0753;0.7173;-0.0293;-1.38;0.781;1523.0;-3.96;-27.92;-34.16;178.69;-11.17;-5.91;5.0;978.26;54.144;35.958366;-83.924835;787.31;NaN;;3.92;12.226105;153.7;10 / 17;16072;2022-10-17 16:41:43:336
-1.8541;1.3011;9.6147;-3.1019;1.2382;9.2204;-1.2503;-0.8242;0.9428;-0.1387;-0.9909;0.0321;1064.0;4.16;-25.03;-35.04;153.11;-7.82;23.41;5.0;978.3;54.02;35.958366;-83.924835;787.31;NaN;;3.92;12.226105;153.7;10 / 17;16572;2022-10-17 16:41:43:836
-0.9254;1.2508;7.9412;-1.075;0.6851;9.7234;0.5054;0.4396;-0.5927;-0.1534;-0.0471;0.1644;803.0;4.43;-25.18;-36.43;180.05;-4.01;6.31;5.0;978.26;53.854;35.958355;-83.92483;787.46;NaN;;4.39;12.226105;153.6;10 / 17;17072;2022-10-17 16:41:44:336
-1.7907;1.6687;7.5054;-2.0365;0.7757;9.5615;-1.2677;-2.35;2.145;0.3272;0.289;0.4978;1378.0;2.76;-23.06;-38.74;165.36;-4.54;12.02;5.0;978.27;53.413;35.958355;-83.92483;787.46;NaN;;4.39;12.226105;153.6;10 / 17;17571;2022-10-17 16:41:44:835
-1.6938;0.7768;9.2495;-1.7515;0.5676;9.6323;0.2301;-1.1689;1.6721;0.0657;-0.2115;-0.2537;1309.0;3.15;-23.7;-37.57;169.98;-3.32;10.31;5.0;978.26;52.162;35.958347;-83.92481;787.61;NaN;;3.82;12.226105;153.6;10 / 17;18072;2022-10-17 16:41:45:336
-2.0471;0.3951;10.5473;-2.1618;0.6704;9.5419;-0.4891;0.0334;-0.3877;-0.5128;0.2465;0.0386;1348.0;3.75;-23.91;-37.35;163.46;-8.95;14.42;5.0;978.27;54.111;35.958347;-83.92481;787.61;NaN;;3.82;12.226105;153.6;10 / 17;18571;2022-10-17 16:41:45:835
0.8282;-1.1946;10.7411;-0.8054;-0.6364;9.7528;0.1304;-0.2274;1.9388;0.3188;-0.162;-0.3886;1202.0;3.77;-21.07;-39.13;181.89;3.72;4.72;5.0;978.28;54.292;35.95834;-83.924805;788.68;NaN;;3.82;12.781835;153.6;10 / 17;19072;2022-10-17 16:41:46:336
-1.0582;-2.2457;9.2351;-0.5611;-1.2664;9.7083;-1.3;-1.1;4.2665;-0.3231;-0.8927;0.0173;1269.0;3.92;-17.18;-41.23;178.52;7.88;6.38;5.0;978.27;53.232;35.95834;-83.924805;788.68;NaN;;3.82;12.781835;153.6;10 / 17;19573;2022-10-17 16:41:46:837
-2.394;-2.6073;12.4409;-4.5074;-0.6353;8.6862;0.7948;0.8601;-0.1652;-0.864;-1.1361;-1.2057;1225.0;10.95;-19.05;-39.6;158.14;3.71;27.43;5.0;978.27;54.261;35.95833;-83.9248;790.34;NaN;;5.4;13.514274;153.6;10 / 17;20073;2022-10-17 16:41:47:337
-3.5133;-0.7385;10.5341;-2.6083;-0.2977;9.4487;-2.0465;-1.1023;0.8198;0.4583;-0.7928;0.1108;1175.0;14.12;-17.55;-39.45;178.74;7.04;20.44;5.0;978.27;53.026;35.95833;-83.9248;790.34;NaN;;5.4;13.514274;153.6;10 / 17;20572;2022-10-17 16:41:47:836
-0.8402;3.0212;11.8567;-2.0918;2.7294;9.184;1.4187;-0.1404;1.9275;1.0413;1.0405;0.73;1255.0;5.08;-25.16;-36.49;185.82;-7.0;4.63;5.0;978.24;51.617;35.95832;-83.92479;791.88;NaN;;4.72;14.442413;146.5;10 / 17;21073;2022-10-17 16:41:48:337
-2.1248;-1.0008;12.3308;-0.6832;-1.2535;9.7022;0.101;1.6667;-0.0252;0.6087;0.3221;1.2709;1221.0;4.46;-28.31;-33.98;181.51;-8.34;5.7;5.0;978.21;53.16;35.95832;-83.92479;791.88;NaN;;4.72;14.442413;146.5;10 / 17;21572;2022-10-17 16:41:48:836
-1.1097;0.9075;7.5712;-1.7683;1.0553;9.588;-0.224;0.3472;-1.2063;-0.0018;0.5258;0.0545;1704.0;-1.28;-22.87;-39.47;156.76;-6.18;10.45;5.0;978.21;52.594;35.95831;-83.92478;792.93;NaN;;4.21;15.51384;146.5;10 / 17;22072;2022-10-17 16:41:49:336
-0.4609;1.264;10.34;-0.7886;0.6006;9.7564;0.2702;0.5421;-0.6597;-0.1087;-0.2077;-0.2094;1803.0;-1.88;-25.41;-38.27;166.44;-3.67;5.2;5.0;978.19;50.787;35.95831;-83.92478;792.93;NaN;;4.21;15.51384;146.5;10 / 17;22572;2022-10-17 16:41:49:836
-1.0211;2.2469;7.8203;-0.9746;1.2484;9.6779;0.1358;-0.8088;-0.0761;0.6383;-0.181;-0.0011;1701.0;1.35;-25.93;-37.16;172.67;-7.31;5.75;5.0;978.21;52.289;35.9583;-83.92477;792.98;NaN;;4.9;16.484522;146.5;10 / 17;23072;2022-10-17 16:41:50:336
2.9722;3.1149;5.9471;4.4317;3.2086;8.1385;0.7752;-0.3558;-0.3414;0.4402;-0.6539;-0.605;1584.0;-6.51;-28.93;-30.97;206.5;-19.1;-28.57;5.0;978.15;53.365;35.9583;-83.92477;792.98;NaN;;4.9;16.484522;146.5;10 / 17;23572;2022-10-17 16:41:50:836
1.427;0.8139;7.7809;1.4579;1.7082;9.546;1.2927;-0.8138;-1.6804;0.4113;-0.4122;0.0446;1740.0;-12.41;-31.16;-25.29;162.66;-10.03;-8.68;5.0;978.15;51.671;35.958286;-83.92477;793.51;NaN;;4.39;15.525379;146.5;10 / 17;24072;2022-10-17 16:41:51:336
1.3418;2.1117;5.9853;3.3905;2.9208;8.7261;-1.6278;-0.9085;-2.4367;-0.2736;0.128;-0.9659;1864.0;-11.74;-28.37;-28.99;182.68;-15.87;-24.05;5.0;978.19;60.259;35.958286;-83.92477;793.51;NaN;;4.39;15.525379;146.5;10 / 17;24572;2022-10-17 16:41:51:836
1.2329;2.6468;6.7765;2.3816;3.063;9.0065;1.0207;-0.3255;0.3549;0.4461;0.4085;0.0241;1722.0;-7.07;-29.74;-28.63;181.93;-18.2;-14.81;5.0;978.15;58.447;35.958275;-83.92476;794.78;NaN;;5.11;15.057611;156.3;9 / 17;25072;2022-10-17 16:41:52:336
1.7512;3.1531;6.8758;2.1006;3.0333;9.0861;1.3373;0.6825;-2.1906;0.5257;-0.2495;-0.0197;1695.0;-3.94;-30.13;-28.89;186.89;-15.18;-12.9;5.0;978.16;53.844;35.958275;-83.92476;794.78;NaN;;5.11;15.057611;156.3;9 / 17;25572;2022-10-17 16:41:52:836
0.9613;3.0021;8.9013;1.1827;3.5534;9.0634;0.7012;-0.8369;3.3337;0.1349;0.4369;-0.0844;1708.0;-1.41;-28.89;-30.58;190.79;-21.24;-7.43;5.0;978.09;51.924;35.95827;-83.92475;793.4;NaN;;0.0;13.683105;;9 / 17;26073;2022-10-17 16:41:53:337
-0.3377;3.3218;6.786;-0.9907;3.3128;9.1768;0.1956;-0.3497;3.5721;0.3255;-0.3935;-0.6435;1605.0;4.93;-30.53;-28.35;185.73;-19.74;6.16;5.0;978.12;54.459;35.95827;-83.92475;793.4;NaN;;0.0;13.683105;;9 / 17;26572;2022-10-17 16:41:53:836
4.8769;5.7673;6.1301;0.5716;5.0743;8.3723;0.8461;-3.1713;1.5589;1.3546;1.2883;2.5395;1539.0;4.86;-32.25;-27.26;206.62;-31.16;-3.91;5.0;978.15;59.086;35.958263;-83.92474;794.8;NaN;;5.04;13.873111;149.1;9 / 17;27072;2022-10-17 16:41:54:336
3.134;1.3753;12.5964;-0.0899;3.1223;9.2959;0.9807;1.569;1.5039;0.3091;-0.7088;-1.2145;1555.0;-2.59;-35.7;-24.84;166.0;-24.54;6.06;5.0;978.14;50.106;35.958263;-83.92474;794.8;NaN;;5.04;13.873111;149.1;9 / 17;27572;2022-10-17 16:41:54:836
-1.0989;2.642;13.1243;-0.639;3.8227;9.0083;-0.9656;-0.3657;0.7897;-0.6976;1.3;0.8906;1691.0;5.64;-31.78;-30.92;200.53;-23.21;-0.84;5.0;978.12;60.881;35.958256;-83.924736;797.84;NaN;;4.5;13.269201;145.5;9 / 17;28072;2022-10-17 16:41:55:336
3.8797;6.0428;9.0544;1.7208;5.2552;8.0989;0.6243;0.7578;1.5092;-0.3601;-0.9695;-0.4413;1564.0;6.26;-36.39;-27.15;211.69;-34.78;-6.57;5.0;978.11;58.368;35.958256;-83.924736;797.84;NaN;;4.5;13.269201;145.5;9 / 17;28571;2022-10-17 16:41:55:835
1.7381;5.237;7.6505;2.6857;6.2457;7.0674;-1.8732;-1.3207;0.3443;0.207;0.6809;1.8822;1370.0;3.62;-40.22;-22.5;206.49;-35.96;-17.21;5.0;978.11;56.244;35.958244;-83.924736;799.3;NaN;;4.03;13.209338;149.0;9 / 17;29073;2022-10-17 16:41:56:337
6.7238;8.0321;6.5623;5.1499;5.8103;5.9908;0.1062;0.9468;0.0617;-0.4893;-0.7075;0.3129;1192.0;-13.52;-41.18;-10.71;168.38;-34.37;-35.62;5.0;978.11;51.471;35.958244;-83.924736;799.3;NaN;;4.03;13.209338;149.0;9 / 17;29572;2022-10-17 16:41:56:836
4.5966;4.5105;9.5955;4.7537;5.6794;6.4278;-1.6489;-1.4308;-1.0941;0.5475;2.0275;1.6794;1118.0;-23.42;-45.54;-12.62;155.42;-35.39;-36.48;5.0;978.11;50.325;35.958237;-83.92473;799.08;NaN;;4.18;13.124864;160.7;9 / 17;30072;2022-10-17 16:41:57:336
8.5744;2.6121;5.8092;6.6139;2.1908;6.9012;1.9084;0.391;-0.5681;-0.6551;-0.3453;0.394;1512.0;-33.96;-39.81;-18.68;150.38;-19.53;-38.83;5.0;978.09;53.8;35.958237;-83.92473;799.08;NaN;;4.18;13.124864;160.7;9 / 17;30572;2022-10-17 16:41:57:836
3.6353;2.2983;7.7593;4.2342;1.3351;8.7441;-1.2192;0.791;-0.8484;0.3074;0.1565;-0.2321;1927.0;-35.89;-26.04;-22.74;136.28;-6.26;-28.25;5.0;978.12;55.356;35.958225;-83.92473;798.62;NaN;;4.1;12.829021;164.4;9 / 17;31072;2022-10-17 16:41:58:336
8.3136;-0.2249;8.068;6.725;-0.0879;7.1371;1.1177;1.0274;-2.12;-0.4742;-1.0656;-0.1557;1549.0;-35.53;-18.53;-30.43;151.17;1.22;-36.63;5.0;978.09;56.557;35.958225;-83.92473;798.62;NaN;;4.1;12.829021;164.4;9 / 17;31572;2022-10-17 16:41:58:836
5.6405;4.0687;6.8973;6.7456;4.6152;5.4191;0.9108;-0.956;1.1249;-0.9082;0.9794;-2.933;716.0;-35.49;-22.09;-9.81;137.44;-19.96;-61.61;5.0;978.11;54.578;35.958214;-83.92472;797.36;NaN;;4.36;14.078016;161.6;9 / 17;32072;2022-10-17 16:41:59:336
3.6655;6.1026;6.4726;3.1168;5.4215;7.554;0.1934;-0.3879;-0.0511;-0.4774;-1.8959;-1.2373;1346.0;-11.14;-37.78;-17.79;170.69;-33.56;-22.42;5.0;978.1;54.388;35.958214;-83.92472;797.36;NaN;;4.36;14.078016;161.6;9 / 17;32572;2022-10-17 16:41:59:836
2.1619;6.8865;7.8634;3.4426;6.599;6.3853;-3.4233;-2.2368;-0.5735;0.1275;0.2198;0.7946;1711.0;4.52;-36.81;-21.13;221.0;-42.29;-28.33;5.0;978.1;55.364;35.9582;-83.92471;802.56;NaN;;4.39;14.141166;150.4;9 / 17;33072;2022-10-17 16:42:00:336
3.4391;6.2139;5.7829;3.2723;5.6667;7.3042;-1.5821;0.8606;-1.6652;-0.349;0.0778;-0.2481;1561.0;2.53;-37.28;-18.56;211.29;-40.99;-24.35;5.0;978.09;62.519;35.9582;-83.92471;802.56;NaN;;4.39;14.141166;150.4;9 / 17;33572;2022-10-17 16:42:00:836
9.186;-0.8465;9.6398;7.1711;0.4046;6.6769;0.7955;-0.1172;3.3898;-0.0219;-0.6475;-0.1541;2094.0;-8.42;-26.98;-30.82;213.96;-10.35;-41.26;5.0;978.14;57.62;35.95819;-83.924706;805.81;NaN;;4.21;14.382056;143.9;9 / 17;34072;2022-10-17 16:42:01:336
2.5271;2.7556;5.5436;5.0298;4.1006;7.3523;-2.9062;-1.0689;-1.4459;0.8864;0.358;-0.8879;2514.0;-10.95;-21.77;-35.76;246.19;-24.72;-34.38;5.0;978.09;55.767;35.95819;-83.924706;805.81;NaN;;4.21;14.382056;143.9;9 / 17;34572;2022-10-17 16:42:01:836
16.2751;0.6906;8.3124;8.797;-3.481;2.5818;6.4515;4.7727;2.9019;1.1133;2.052;2.407;394.0;-19.33;-26.55;-18.17;213.77;-7.31;-84.66;5.0;978.11;-6.744;35.95818;-83.924706;805.71;NaN;;4.07;13.852387;141.0;9 / 17;35072;2022-10-17 16:42:02:336
13.4154;1.1037;-2.5041;9.2466;-3.2443;-0.3806;1.7839;2.8946;-2.5603;-0.1647;1.571;2.6129;6.0;-41.68;-2.16;-3.82;156.28;3.41;-81.87;0.0;978.13;-4.297;35.95818;-83.924706;805.71;NaN;;4.07;13.852387;141.0;9 / 17;35572;2022-10-17 16:42:02:836
-0.2261;-3.6559;-1.3382;7.3919;-5.972;-2.4218;-1.3627;-1.262;2.8169;0.9442;-1.7096;-0.4062;4.0;-39.07;6.98;13.11;179.38;37.52;-108.14;0.0;978.15;61.869;35.95817;-83.9247;803.85;NaN;;4.0;13.553698;142.4;9 / 17;36072;2022-10-17 16:42:03:336
3.1484;-8.9635;-1.9884;2.9056;-9.3573;-0.4111;-0.8034;-0.4949;-0.7083;1.5483;-0.8102;1.5967;2.0;-25.33;22.88;20.72;144.27;61.39;-109.6;2.0;978.13;65.8;35.95817;-83.9247;803.85;NaN;;4.0;13.553698;142.4;9 / 17;36572;2022-10-17 16:42:03:836
9.9428;-12.3763;-23.6369;1.4942;-7.6025;-6.0116;-0.0371;0.8128;3.4532;3.0407;2.649;1.3652;0.0;-1.86;29.68;27.75;117.35;50.83;-166.04;0.0;978.22;64.499;35.95816;-83.92469;803.81;NaN;;4.14;13.259985;146.3;9 / 17;37072;2022-10-17 16:42:04:336
3.1986;-8.5397;-0.5339;2.2964;-9.533;-0.1398;2.0159;1.8136;0.9687;1.1931;-0.0289;0.469;3.0;-11.42;29.36;26.68;101.75;76.43;-93.48;0.0;978.12;67.027;35.95816;-83.92469;803.81;NaN;;4.14;13.259985;146.3;9 / 17;37572;2022-10-17 16:42:04:836
-0.5877;-4.969;-3.4499;1.5391;-8.1318;-5.2607;0.9529;1.1512;2.7015;1.6011;-1.2891;-0.2664;2.0;-8.51;33.66;22.63;199.31;61.85;-163.24;0.0;978.29;68.717;35.95815;-83.92469;804.85;NaN;;3.85;12.971857;152.2;9 / 17;38072;2022-10-17 16:42:05:336
-1.5096;-4.4423;-1.4186;0.7415;-9.7676;0.464;0.2119;-4.0803;-1.8722;1.0828;1.7358;0.0271;1.0;5.12;31.26;26.55;43.6;84.88;-57.97;0.0;978.15;67.562;35.95815;-83.92469;804.85;NaN;;3.85;12.971857;152.2;9 / 17;38571;2022-10-17 16:42:05:835
2.083;-5.9949;-0.984;1.3382;-9.1986;-3.1248;-5.0457;-2.244;3.2143;-0.636;0.552;0.2249;1.0;-6.19;34.26;20.81;162.14;69.72;-156.82;0.0;978.29;68.834;35.958138;-83.92468;804.7;NaN;;3.74;12.872321;158.7;9 / 17;39072;2022-10-17 16:42:06:336
-1.9657;-9.8097;-3.0655;-2.0406;-9.5732;-0.5997;2.4588;-0.6641;0.0697;1.5335;0.1351;0.9035;0.0;-3.88;29.61;28.07;198.86;74.94;175.01;0.0;977.97;64.252;35.958138;-83.92468;804.7;NaN;;3.74;12.872321;158.7;9 / 17;39571;2022-10-17 16:42:06:835
-1.343;-7.2494;0.8548;1.1404;-9.2424;-3.0737;-4.1313;-0.7534;1.7267;-1.1441;2.051;-1.5893;0.0;1.88;37.5;17.01;242.18;79.0;133.88;0.0;978.07;59.161;35.95813;-83.92468;811.18;NaN;;2.34;12.769595;148.1;9 / 17;40072;2022-10-17 16:42:07:336
-4.5176;-11.6151;2.4694;2.5612;-9.3576;-1.4305;-7.3071;-1.0649;4.0841;1.5235;-1.3595;2.2095;2.0;-16.22;28.2;27.32;175.86;71.15;-146.62;0.0;977.58;66.48;35.95813;-83.92468;811.18;NaN;;2.34;12.769595;148.1;9 / 17;40572;2022-10-17 16:42:07:836
-1.6675;-6.4161;-1.1767;-2.9667;-9.2969;-0.9682;-2.1873;-5.2967;-1.9896;-2.2288;-1.1014;-1.404;0.0;3.99;37.91;17.21;283.16;71.44;108.07;0.0;977.82;67.203;35.958115;-83.924675;812.41;NaN;;4.03;12.476078;149.6;9 / 17;41072;2022-10-17 16:42:08:336
-4.4076;-11.7706;5.1568;-2.1081;-9.4843;-1.3321;-6.2559;0.4673;3.1265;1.2557;-0.3952;0.8837;1.0;6.68;31.16;27.92;238.31;75.27;122.29;0.0;977.89;62.98;35.958115;-83.924675;812.41;NaN;;4.03;12.476078;149.6;9 / 17;41572;2022-10-17 16:42:08:836
0.2453;-7.8179;-1.0965;-1.3256;-9.3888;-2.5026;-4.7091;-2.8381;6.4283;-1.7387;0.6764;-1.2277;0.0;6.26;38.61;14.93;202.66;73.21;152.09;0.0;977.9;59.775;35.9581;-83.92467;813.24;NaN;;4.39;13.290765;150.6;9 / 17;42072;2022-10-17 16:42:09:336
-1.3047;-10.9508;3.8773;-0.7727;-9.6754;-1.4001;-7.5889;1.76;3.4378;1.8035;3.0222;0.2122;1.0;1.67;29.66;29.87;230.06;75.73;138.08;0.0;977.51;66.35;35.9581;-83.92467;813.24;NaN;;4.39;13.290765;150.6;9 / 17;42572;2022-10-17 16:42:09:836
-3.6966;-8.9336;-1.6807;-1.9048;-9.6189;-0.1354;1.7641;-4.2198;-6.3919;-4.0653;-0.7074;-0.9884;0.0;6.0;38.48;15.41;271.91;78.77;94.07;0.0;977.76;58.814;35.958088;-83.92467;813.2;NaN;;4.28;13.848094;168.4;9 / 17;43072;2022-10-17 16:42:10:336
-7.1142;-3.5216;0.2237;-0.9765;-9.5793;-1.8585;4.0127;-13.1702;-11.6764;1.2237;2.8116;1.5039;1.0;1.59;27.69;30.54;210.21;77.64;152.28;0.0;978.01;69.827;35.958088;-83.92467;813.2;NaN;;4.28;13.848094;168.4;9 / 17;43572;2022-10-17 16:42:10:836
0.7026;-14.179;-7.6014;-1.8331;-9.4542;1.8517;4.2044;-4.8655;-5.8277;-3.7808;-0.2169;-0.9191;0.0;5.01;37.07;15.99;332.18;68.03;31.77;0.0;977.79;57.642;35.958073;-83.92467;814.2;NaN;;5.11;13.454147;168.1;9 / 17;44072;2022-10-17 16:42:11:336
-4.3107;-9.0939;2.3928;-1.03;-9.358;-2.7454;2.3667;-9.7298;-7.1302;1.7017;2.0938;-0.4376;1.0;3.94;27.32;29.96;188.49;64.09;168.06;0.0;978.95;66.201;35.958073;-83.92467;814.2;NaN;;5.11;13.454147;168.1;9 / 17;44572;2022-10-17 16:42:11:836
3.6329;-13.6857;-2.4108;-2.0115;-9.3852;2.0104;5.1322;-4.3582;-6.1045;-3.4849;0.1699;-1.1213;0.0;7.8;37.09;16.44;325.06;68.52;32.79;0.0;977.94;57.948;35.958057;-83.92466;814.59;NaN;;4.9;13.398866;170.7;9 / 17;45072;2022-10-17 16:42:12:336
1.2425;-13.2873;3.9742;-0.117;-9.6263;-1.8682;-1.9656;2.3838;-4.7817;1.5399;1.2796;-0.7798;1.0;6.34;28.2;29.08;169.9;79.0;176.42;0.0;977.3;63.309;35.958057;-83.92466;814.59;NaN;;4.9;13.398866;170.7;9 / 17;45575;2022-10-17 16:42:12:839
-1.5251;-11.8436;-6.6185;-1.9358;-9.1121;3.0647;3.8984;-3.6133;-5.1936;-1.6485;0.3294;-0.7083;0.0;10.61;36.19;17.21;319.87;71.56;27.48;0.0;978.12;61.169;35.958035;-83.92466;815.13;NaN;;5.0;13.981067;180.6;9 / 17;46072;2022-10-17 16:42:13:336
-9.2076;-8.3363;-3.026;0.2128;-9.5489;-2.2232;1.8581;-0.6255;4.4479;-0.5951;-1.1918;-0.2333;0.0;7.52;30.79;25.91;158.6;72.71;176.27;0.0;978.62;65.782;35.958035;-83.92466;815.13;NaN;;5.0;13.981067;180.6;9 / 17;46572;2022-10-17 16:42:13:836
0.2309;-12.69;-8.2155;-1.9423;-8.981;3.4262;1.8529;-3.0949;-5.55;-3.7722;-0.4439;-0.9019;1.0;8.94;37.78;15.88;321.52;73.54;29.72;0.0;978.14;66.291;35.958023;-83.92466;814.3;NaN;;4.9;14.330078;166.9;9 / 17;47072;2022-10-17 16:42:14:336
-5.0085;-3.0069;5.857;0.522;-9.5413;-2.2047;3.7012;-8.4161;-2.2395;1.6378;2.5566;0.4776;1.0;5.14;31.29;24.58;142.75;66.98;-173.56;0.0;977.11;65.159;35.958023;-83.92466;814.3;NaN;;4.9;14.330078;166.9;9 / 17;47572;2022-10-17 16:42:14:836
0.5698;-14.4186;-10.4671;-2.1023;-9.0607;3.1071;5.0581;-5.236;-4.8782;-1.9846;-0.3045;-0.8385;1.0;7.61;34.43;19.41;326.14;69.79;28.23;0.0;978.23;61.595;35.958023;-83.92466;814.3;NaN;;4.9;14.330078;166.9;9 / 17;48072;2022-10-17 16:42:15:336
5.0839;-17.2424;-8.0213;0.3239;-9.0706;-3.7135;-1.2063;7.5896;2.2095;0.8617;-1.2351;0.0011;0.0;4.41;28.69;27.24;154.93;67.66;-175.01;0.0;978.58;65.998;35.958023;-83.92466;814.3;NaN;;4.9;14.330078;166.9;9 / 17;48572;2022-10-17 16:42:15:836
2.5953;-14.9919;-2.3856;-2.1964;-9.0913;2.9485;-2.6979;-0.5466;-3.6392;-1.9463;0.1306;-0.924;1.0;10.16;34.14;18.41;285.03;77.43;66.36;0.0;978.46;63.705;35.958008;-83.92466;808.61;NaN;;4.18;15.620565;154.2;9 / 17;49072;2022-10-17 16:42:16:336
-4.4279;-9.7654;2.2229;-0.4606;-9.1669;-3.4535;-1.4391;8.3674;3.5029;2.0095;-1.6242;-0.0884;0.0;6.43;34.33;20.29;114.14;69.45;-165.68;0.0;978.57;62.515;35.958008;-83.92466;808.61;NaN;;4.18;15.620565;154.2;9 / 17;49572;2022-10-17 16:42:16:836
-1.9367;-11.2905;-1.4713;-1.5462;-9.119;3.2595;1.7659;-2.6918;-5.2628;0.0541;0.3485;-0.1872;1.0;8.93;40.86;17.87;289.66;78.21;66.93;0.0;978.17;67.253;35.958;-83.924644;811.66;NaN;;4.18;16.212557;154.8;9 / 17;50072;2022-10-17 16:42:17:336
-3.9287;-18.1125;-10.2742;-1.9846;-8.2861;-4.8551;-0.2715;4.0199;7.8131;0.7994;0.1284;-0.5626;0.0;12.3;35.14;22.13;98.97;60.79;-179.06;0.0;978.79;69.166;35.958;-83.924644;811.66;NaN;;4.18;16.212557;154.8;9 / 17;50572;2022-10-17 16:42:17:836
2.5905;-15.1905;-3.2991;-1.4442;-9.2587;2.8914;-0.3007;-0.0969;-1.4346;1.8212;2.5027;-0.761;0.0;24.24;27.6;22.29;253.28;80.22;67.61;0.0;978.1;63.026;35.957993;-83.92464;812.5;NaN;;4.32;14.612645;136.7;10 / 17;51072;2022-10-17 16:42:18:336
0.9003;0.4358;-4.3813;-0.5942;-8.3315;-5.1384;-2.6843;10.1123;8.9628;2.5473;-1.0036;0.5624;0.0;11.06;29.18;21.19;129.76;73.32;-174.69;0.0;978.62;68.232;35.957993;-83.92464;812.5;NaN;;4.32;14.612645;136.7;10 / 17;51572;2022-10-17 16:42:18:836
3.1986;-15.9422;-4.5045;-2.2695;-9.3641;1.8259;5.382;-0.1626;-5.1215;0.2107;-0.2512;0.5427;1.0;10.61;25.37;26.4;216.06;84.25;124.15;0.0;977.92;65.148;35.95799;-83.92463;807.83;NaN;;4.07;13.946261;147.4;10 / 17;52073;2022-10-17 16:42:19:337
10.5808;-18.6248;-4.2221;-0.2029;-9.4374;-2.6578;-4.2631;6.9108;8.4545;1.3855;-2.2514;0.2171;0.0;10.41;28.99;21.98;139.06;77.49;-174.09;0.0;978.53;66.292;35.95799;-83.92463;807.83;NaN;;4.07;13.946261;147.4;10 / 17;52572;2022-10-17 16:42:19:836
4.3083;-15.1786;-1.1862;-2.0432;-9.1861;2.759;-0.9471;-0.6929;-3.5752;0.4241;-0.184;0.7794;1.0;19.03;33.68;13.61;296.66;69.51;36.52;0.0;977.96;68.201;35.957985;-83.92462;809.39;NaN;;4.03;13.19318;144.3;10 / 17;53072;2022-10-17 16:42:20:336
7.4647;-27.3443;-9.5309;0.1005;-9.2171;-3.3473;-3.9455;10.2943;6.3942;0.4062;-1.2432;-0.1878;0.0;18.83;32.21;18.08;87.37;69.71;-160.58;0.0;978.53;64.061;35.957985;-83.92462;809.39;NaN;;4.03;13.19318;144.3;10 / 17;53572;2022-10-17 16:42:20:836
-3.8533;-9.6494;-1.0594;-1.7493;-9.411;2.1315;6.9665;-0.0399;-1.4898;1.0374;0.0738;0.4968;1.0;23.78;33.38;14.04;280.44;73.67;39.38;0.0;977.9;67.32;35.957977;-83.924614;809.3;NaN;;4.18;13.462108;130.0;10 / 17;54072;2022-10-17 16:42:21:336
-1.8505;-1.0786;0.4095;0.4189;-9.0097;-3.8497;-3.4054;9.3631;7.7957;0.6189;-1.121;0.2376;0.0;26.04;32.72;9.36;74.63;72.03;-170.97;0.0;978.72;65.627;35.957977;-83.924614;809.3;NaN;;4.18;13.462108;130.0;10 / 17;54572;2022-10-17 16:42:21:836
-5.7218;-10.4097;-0.4023;-1.0338;-9.1711;3.3156;-2.297;0.6128;-1.732;1.4263;0.1933;0.6067;1.0;26.93;33.77;1.35;231.27;81.47;49.59;0.0;977.76;66.772;35.957973;-83.9246;811.37;NaN;;5.08;12.94935;94.1;10 / 17;55072;2022-10-17 16:42:22:336
-0.3353;-9.3024;-14.118;-0.3987;-9.3528;-2.9218;-0.0786;5.1805;-2.1241;2.0376;-0.6154;0.2408;1.0;27.77;31.88;4.48;64.91;62.73;-175.15;0.0;978.75;68.518;35.957973;-83.9246;811.37;NaN;;5.08;12.94935;94.1;10 / 17;55572;2022-10-17 16:42:22:836
-2.8382;-9.7546;0.5004;-1.6932;-9.4143;2.1619;-0.1989;-0.4125;-3.4062;1.2499;0.2565;0.2175;1.0;30.39;32.61;3.73;258.11;73.74;38.07;0.0;977.85;72.375;35.957977;-83.92458;809.11;NaN;;4.21;12.713969;77.3;10 / 17;56072;2022-10-17 16:42:23:336
1.6591;-13.8978;-23.0432;-0.8369;-8.968;-3.8788;1.0032;4.11;4.0833;2.288;-0.5561;-0.3902;0.0;26.96;30.73;12.54;100.27;66.13;167.82;0.0;978.48;62.162;35.957977;-83.92458;809.11;NaN;;4.21;12.713969;77.3;10 / 17;56572;2022-10-17 16:42:23:836
-1.5873;-16.2332;-6.8124;-0.5824;-9.4741;2.4642;0.2613;0.6875;-5.2701;1.2868;0.989;0.0615;1.0;26.51;33.47;8.34;167.8;87.27;118.01;0.0;978.03;62.892;35.957977;-83.924576;808.05;NaN;;4.1;12.226105;83.5;9 / 17;57072;2022-10-17 16:42:24:336
2.2313;-4.3729;-9.1884;-1.262;-6.3105;-7.3997;-0.1646;6.7723;7.5573;1.7122;-1.3656;-0.979;0.0;26.01;25.39;18.68;94.86;58.04;-178.38;0.0;979.7;70.125;35.957977;-83.924576;808.05;NaN;;4.1;12.226105;83.5;9 / 17;57572;2022-10-17 16:42:24:836
-2.5522;-11.7634;-2.6013;-1.1809;-9.3855;2.5862;1.1869;1.1047;-1.6233;1.4569;2.0815;-0.2175;0.0;26.36;28.88;16.03;243.74;82.9;64.13;0.0;977.7;62.477;35.957977;-83.92456;806.63;NaN;;4.39;12.226105;100.6;9 / 17;58072;2022-10-17 16:42:25:336
-1.2269;-5.3378;-10.9409;-1.7774;-8.4442;-4.659;0.1468;5.6816;2.1367;2.5885;-0.8402;-0.5406;0.0;20.83;26.18;21.66;110.38;56.33;170.94;0.0;978.92;64.807;35.957977;-83.92456;806.63;NaN;;4.39;12.226105;100.6;9 / 17;58572;2022-10-17 16:42:25:836
-1.3178;-8.9886;-0.0909;-1.2492;-9.5155;2.0164;1.209;0.7505;-5.5227;1.7527;1.8191;-0.1082;1.0;24.41;25.99;25.18;173.35;80.83;141.94;0.0;977.83;66.839;35.957973;-83.924545;807.78;NaN;;4.0;12.226105;107.8;10 / 17;59072;2022-10-17 16:42:26:336
-2.0518;-3.5061;-3.5504;-1.815;-7.6359;-5.8795;2.4348;0.4172;6.097;0.5106;-1.0769;-0.6189;0.0;15.19;28.99;25.2;161.17;73.26;161.79;0.0;978.92;68.039;35.957973;-83.924545;807.78;NaN;;4.0;12.226105;107.8;10 / 17;59571;2022-10-17 16:42:26:835
1.1815;-7.6828;-1.0295;-1.9522;-9.4778;1.5907;2.083;1.9267;-4.2007;3.0009;1.1501;-0.3444;1.0;21.24;16.29;34.63;196.83;71.69;135.07;0.0;978.21;66.16;35.957966;-83.92453;811.31;NaN;;4.36;12.226105;128.2;10 / 17;60072;2022-10-17 16:42:27:336
-0.9625;-4.8482;1.835;-2.3842;-8.1476;-4.9095;1.0943;2.0515;4.3625;-2.6545;-0.925;-0.6523;0.0;7.26;34.74;22.69;239.42;70.97;130.28;0.0;976.96;60.658;35.957966;-83.92453;811.31;NaN;;4.36;12.226105;128.2;10 / 17;60571;2022-10-17 16:42:27:835
-3.585;-7.739;-6.4508;-2.8653;-9.1053;-2.2482;-4.9027;1.2779;8.614;2.5681;-0.0788;1.2735;1.0;14.91;14.85;33.6;215.11;68.2;128.12;0.0;977.14;63.798;35.95795;-83.924515;808.74;NaN;;4.75;12.226105;154.3;10 / 17;61072;2022-10-17 16:42:28:336
-3.6389;-2.776;-1.8541;-1.5038;-8.5431;-4.5744;1.8767;-2.7166;2.4186;-2.7937;-1.635;-1.0911;1.0;9.08;25.09;25.18;176.09;60.59;161.8;0.0;977.59;63.906;35.95795;-83.924515;808.74;NaN;;4.75;12.226105;154.3;10 / 17;61572;2022-10-17 16:42:28:836
0.4107;-8.5816;-2.6707;-1.041;-9.7217;0.759;1.1218;1.1445;-3.5891;1.6601;0.7013;-0.2228;2.0;10.54;19.14;30.62;186.89;75.75;154.76;0.0;978.02;67.643;35.957943;-83.924515;809.48;NaN;;4.39;12.226105;140.7;10 / 17;62072;2022-10-17 16:42:29:336
-1.0319;-2.9243;0.5124;-1.1318;-8.4361;-4.8704;0.5867;2.0866;5.8394;2.4093;-0.3152;-1.0283;1.0;10.58;31.16;20.44;141.96;65.2;165.26;0.0;978.63;63.741;35.957943;-83.924515;809.48;NaN;;4.39;12.226105;140.7;10 / 17;62572;2022-10-17 16:42:29:836
-2.083;-6.7023;1.3801;-0.8378;-9.6579;1.4811;2.7156;0.546;-6.1315;1.4379;0.5986;0.0307;1.0;12.06;25.8;29.94;152.87;79.26;-179.02;0.0;978.24;63.358;35.957935;-83.9245;809.96;NaN;;4.54;12.226105;129.8;10 / 17;63072;2022-10-17 16:42:30:336
1.2688;-6.0882;2.6539;-0.8506;-9.0681;-3.6354;-0.8936;-4.1448;4.1488;-2.2249;-0.5333;-0.6392;0.0;9.38;33.56;23.42;159.96;67.62;166.83;0.0;978.92;62.855;35.957935;-83.9245;809.96;NaN;;4.54;12.226105;129.8;10 / 17;63572;2022-10-17 16:42:30:836
-1.1503;-8.1449;-1.124;-1.1611;-9.6976;-0.8821;1.9698;-3.0167;3.1533;1.7938;0.7239;0.3812;1.0;14.57;29.78;31.41;211.08;81.45;127.22;0.0;978.46;66.421;35.957928;-83.924484;813.8;NaN;;5.11;12.226105;154.6;10 / 17;64072;2022-10-17 16:42:31:336
-1.057;-2.406;-0.3449;-1.5668;-8.268;-5.0354;-0.2959;0.4289;4.0793;0.1529;-1.5862;-0.3493;0.0;13.97;38.55;21.04;207.0;76.84;124.28;0.0;978.06;68.428;35.957928;-83.924484;813.8;NaN;;5.11;12.226105;154.6;10 / 17;64572;2022-10-17 16:42:31:836
2.819;-10.4982;-4.4889;-1.3423;-9.7073;-0.3702;2.7626;0.6252;-3.4709;2.3573;0.5882;0.1968;1.0;14.83;27.77;35.83;149.07;70.24;179.52;0.0;978.09;61.968;35.957916;-83.924484;811.44;NaN;;4.39;12.226105;152.7;10 / 17;65072;2022-10-17 16:42:32:336
-1.5981;-3.1376;0.7672;-1.7954;-8.3285;-4.8562;-1.9836;-2.1515;4.15;-0.9132;-1.1001;-0.8161;1.0;13.01;37.41;24.71;207.48;70.07;138.54;0.0;978.25;65.852;35.957916;-83.924484;811.44;NaN;;4.39;12.226105;152.7;10 / 17;65572;2022-10-17 16:42:32:836
2.3103;-9.3419;-1.209;-0.9592;-9.7002;-1.0754;0.2671;-0.3419;2.8983;2.0896;0.2232;0.2839;1.0;11.49;25.48;35.42;170.12;71.73;169.84;0.0;978.03;66.108;35.957905;-83.92448;813.08;NaN;;4.54;12.226105;155.6;10 / 17;66072;2022-10-17 16:42:33:336
-2.4897;-2.6396;2.7724;-1.1041;-8.3467;-5.0283;1.8501;1.4051;5.0562;-0.5889;-1.323;-0.6132;1.0;7.65;31.63;26.27;204.41;70.85;148.95;0.0;978.86;68.605;35.957905;-83.92448;813.08;NaN;;4.54;12.226105;155.6;10 / 17;66572;2022-10-17 16:42:33:836
-1.5227;-7.5592;-1.0606;-0.787;-9.7717;0.2543;3.8077;-0.5178;-2.1394;1.3806;0.0723;0.0534;2.0;10.29;26.06;31.8;165.97;75.23;173.48;0.0;978.1;59.581;35.957897;-83.92447;812.47;NaN;;4.36;12.226105;152.7;10 / 17;67072;2022-10-17 16:42:34:336
-1.0845;-1.78;2.7425;-1.6853;-8.2984;-4.9464;-0.0151;5.7512;8.1158;1.0088;-1.4586;-0.7362;0.0;14.12;31.31;23.21;149.63;65.92;162.77;0.0;978.47;67.113;35.957897;-83.92447;812.47;NaN;;4.36;12.226105;152.7;10 / 17;67571;2022-10-17 16:42:34:835
-1.5945;-10.899;-0.9218;-0.8886;-9.7659;-0.084;4.387;-1.378;-1.4885;1.4996;0.494;-0.1189;2.0;19.78;26.06;26.63;231.35;84.78;95.4;0.0;978.02;65.792;35.957886;-83.92447;812.6;NaN;;4.97;12.226105;170.1;9 / 17;68072;2022-10-17 16:42:35:336
-3.7684;-11.8424;-15.7364;-1.316;-8.412;-4.8659;0.5865;4.2359;7.0115;0.8714;-1.2405;-0.5356;1.0;14.53;28.11;25.52;154.92;65.8;163.66;0.0;978.89;64.856;35.957886;-83.92447;812.6;NaN;;4.97;12.226105;170.1;9 / 17;68572;2022-10-17 16:42:35:836
-0.9721;-8.5433;-2.983;-1.1636;-9.7297;-0.3867;6.2649;-1.5067;1.2324;2.4854;0.7649;-0.7169;2.0;16.74;24.81;30.53;226.82;82.82;108.38;0.0;978.12;64.037;35.95787;-83.92446;815.02;NaN;;4.79;12.226105;152.5;9 / 17;69072;2022-10-17 16:42:36:336
-1.3537;-4.3322;2.5295;-1.4186;-8.3258;-4.9838;2.343;1.9439;6.4803;-0.9787;-1.9361;-0.6001;0.0;10.93;34.71;21.64;194.11;72.28;146.05;0.0;978.63;65.42;35.95787;-83.92446;815.02;NaN;;4.79;12.226105;152.5;9 / 17;69572;2022-10-17 16:42:36:836
-2.016;-10.2993;-0.3832;-1.3687;-9.6309;-1.2418;1.4254;-1.8247;4.7662;1.7426;0.3966;0.1399;2.0;14.93;25.46;31.54;156.53;70.19;171.58;0.0;978.03;65.371;35.95786;-83.92446;813.59;NaN;;4.57;12.226105;164.1;9 / 17;70072;2022-10-17 16:42:37:336
-3.1101;-3.6461;2.1535;-1.0928;-8.2403;-5.2033;1.856;0.0555;5.2482;-1.5974;-2.0427;-0.6667;0.0;11.98;32.48;22.8;193.58;71.92;144.69;0.0;978.77;69.632;35.95786;-83.92446;813.59;NaN;;4.57;12.226105;164.1;9 / 17;70571;2022-10-17 16:42:37:835
2.3174;-9.1274;-5.4251;-0.6457;-9.722;1.1117;0.6724;1.1966;-3.479;1.7568;0.5676;-0.2447;1.0;14.57;25.76;28.86;182.24;77.1;150.86;0.0;977.91;64.406;35.957848;-83.92445;814.58;NaN;;4.79;12.226105;151.8;9 / 17;71072;2022-10-17 16:42:38:336
-3.195;-4.174;-4.884;-1.3345;-8.051;-5.4379;0.0175;-0.6366;2.5419;2.4339;0.0539;-0.311;1.0;10.95;29.68;24.32;129.96;55.18;166.21;0.0;978.68;65.073;35.957848;-83.92445;814.58;NaN;;4.79;12.226105;151.8;9 / 17;71572;2022-10-17 16:42:38:836
-2.3031;-8.2442;-3.1424;-1.2663;-9.72;0.2975;4.7842;-1.3746;-1.3583;2.2959;0.9964;-0.5669;1.0;13.37;25.73;29.51;164.75;70.55;166.98;0.0;977.95;64.945;35.957836;-83.92445;813.69;NaN;;4.75;12.226105;164.6;9 / 17;72072;2022-10-17 16:42:39:336
-2.1021;-1.0522;0.2572;-1.4076;-8.1516;-5.2669;0.173;5.3018;8.6825;0.7;-1.9861;-0.5044;0.0;10.86;31.86;22.54;149.42;70.13;160.45;0.0;978.74;69.872;35.957836;-83.92445;813.69;NaN;;4.75;12.226105;164.6;9 / 17;72572;2022-10-17 16:42:39:836
-0.2441;-12.7534;-6.3586;-1.7468;-9.2043;2.8982;-0.6588;-1.0457;-3.6153;0.6483;0.2968;0.2869;1.0;14.91;32.79;21.15;276.99;80.39;59.77;0.0;977.67;63.031;35.957825;-83.924446;815.86;NaN;;4.72;12.226105;156.9;10 / 17;73074;2022-10-17 16:42:40:338
-3.4845;-3.7349;-2.6683;-1.8582;-8.4413;-4.6327;-0.2071;6.2297;7.2379;1.6094;-0.4129;-0.5963;0.0;14.72;29.31;23.61;159.19;64.24;157.68;0.0;978.39;63.534;35.957825;-83.924446;815.86;NaN;;4.72;12.226105;156.9;10 / 17;73573;2022-10-17 16:42:40:837
-0.7469;-11.1494;-1.3262;-1.1077;-9.5138;2.105;-0.5542;0.7838;-2.012;-0.2748;0.989;-0.4881;1.0;12.06;31.69;22.58;316.0;75.96;27.76;0.0;977.82;64.344;35.95781;-83.924446;817.66;NaN;;5.33;12.226105;150.4;10 / 17;74074;2022-10-17 16:42:41:338
-1.9415;-13.2024;4.6505;-0.9324;-8.9831;-3.8217;-2.3571;8.2238;6.8988;0.903;1.1779;-0.6199;0.0;7.86;24.34;27.79;176.19;66.35;166.29;0.0;978.6;67.884;35.95781;-83.924446;817.66;NaN;;5.33;12.226105;150.4;10 / 17;74573;2022-10-17 16:42:41:837
0.2094;-14.5561;-9.1765;-0.6138;-9.4025;2.7177;-1.4807;0.3274;-1.8366;1.676;-0.242;0.0027;1.0;7.61;28.88;21.23;254.44;84.77;91.3;0.0;978.84;65.598;35.957794;-83.92444;817.04;NaN;;4.64;12.226105;156.1;10 / 17;75072;2022-10-17 16:42:42:336
-6.5252;-6.6066;0.2776;-1.2301;-8.8779;-3.98;-1.2745;5.6617;1.7184;0.2353;0.2599;-0.693;0.0;9.11;27.23;24.51;155.34;54.55;166.02;0.0;978.63;67.265;35.957794;-83.92444;817.04;NaN;;4.64;12.226105;156.1;10 / 17;75572;2022-10-17 16:42:42:836
-2.6539;-15.2815;-7.0161;-0.8227;-9.3473;2.8498;-0.0464;-4.71;-6.9522;-4.8467;-0.3375;0.893;1.0;9.9;36.6;15.86;328.81;72.39;16.1;0.0;978.28;64.275;35.957783;-83.92444;815.92;NaN;;4.9;12.226105;163.7;10 / 17;76072;2022-10-17 16:42:43:336
-6.8363;-5.1221;0.941;-1.363;-9.0396;-3.5493;1.8398;-2.8625;-0.1819;0.8399;0.0903;-0.3146;0.0;14.66;23.1;31.07;170.85;56.38;158.44;0.0;978.96;68.692;35.957783;-83.92444;815.92;NaN;;4.9;12.226105;163.7;10 / 17;76572;2022-10-17 16:42:43:836
-0.941;-15.3281;-5.8164;-0.9008;-9.2222;3.2108;-0.354;-3.5118;-6.1199;-1.9482;0.1212;0.2246;1.0;13.65;32.74;21.88;293.53;82.55;42.53;0.0;978.93;64.61;35.957767;-83.92443;815.33;NaN;;4.86;12.226105;154.4;10 / 17;77072;2022-10-17 16:42:44:336
-1.2293;-14.7835;-7.1118;-1.6543;-8.5223;-4.5612;0.8413;-2.8367;-7.0946;1.0116;1.2541;-0.6799;0.0;15.54;26.79;26.14;120.99;49.81;164.25;0.0;978.77;63.919;35.957767;-83.92443;815.33;NaN;;4.86;12.226105;154.4;10 / 17;77571;2022-10-17 16:42:44:835
-4.0292;-12.8492;-2.3868;-0.9834;-9.3019;2.9457;-0.8598;-3.4195;-5.6329;0.2722;0.903;0.0844;1.0;17.14;35.19;17.51;315.45;71.54;18.46;0.0;978.7;66.395;35.957756;-83.92443;818.28;NaN;;5.29;12.226105;173.3;11 / 17;78075;2022-10-17 16:42:45:339
-2.983;-9.7594;-13.5721;-1.6941;-7.6506;-5.8965;-1.0539;6.0738;8.7267;1.0939;1.035;-1.0542;1.0;18.96;28.59;24.71;136.23;61.79;164.3;0.0;978.67;67.42;35.957756;-83.92443;818.28;NaN;;5.29;12.226105;173.3;11 / 17;78572;2022-10-17 16:42:45:836
-1.2317;-13.675;-7.5054;-1.0206;-9.3448;2.7935;-0.8344;-2.062;-4.1947;-2.1328;0.5469;-0.1023;1.0;19.14;35.46;19.46;275.88;84.22;46.63;0.0;978.56;64.126;35.957745;-83.92442;819.98;NaN;;4.57;12.226105;146.5;11 / 17;79072;2022-10-17 16:42:46:336
-0.2213;-4.9666;-3.6281;-2.0943;-7.8814;-5.4468;1.5888;-2.0958;-5.1864;0.0112;-1.6873;-0.4736;1.0;20.51;26.25;28.18;128.74;52.74;164.46;0.0;978.67;66.585;35.957745;-83.92442;819.98;NaN;;4.57;12.226105;146.5;11 / 17;79572;2022-10-17 16:42:46:836
-1.6101;-10.3723;0.9757;-0.9895;-9.6232;1.6078;-2.4976;0.949;-2.429;1.1508;1.0067;0.1859;1.0;20.42;29.12;25.33;200.01;81.61;124.12;0.0;977.78;64.838;35.957737;-83.924416;820.79;NaN;;4.72;12.226105;143.9;12 / 17;80072;2022-10-17 16:42:47:336
0.6272;-16.7192;-11.0979;-1.9888;-8.8164;-3.8062;0.2081;5.7209;3.5638;1.9557;-0.1208;-0.6019;0.0;14.01;31.46;23.19;143.81;57.38;157.58;0.0;978.3;64.533;35.957737;-83.924416;820.79;NaN;;4.72;12.226105;143.9;12 / 17;80572;2022-10-17 16:42:47:836
1.3418;-11.6761;-4.276;-1.0858;-9.6774;1.1574;-0.4517;1.5098;-2.1077;1.844;0.8421;0.0454;2.0;16.33;31.86;23.01;291.74;80.69;43.17;0.0;977.77;65.946;35.95773;-83.92441;820.85;NaN;;4.68;12.226105;147.3;12 / 17;81072;2022-10-17 16:42:48:336
-2.0195;-4.587;-3.4893;-1.4632;-8.1939;-5.1854;0.7427;4.0429;7.7989;2.6942;-0.3437;-0.9406;0.0;12.34;28.44;27.23;155.02;56.67;164.24;0.0;978.47;65.49;35.95773;-83.92441;820.85;NaN;;4.68;12.226105;147.3;12 / 17;81574;2022-10-17 16:42:48:838
-1.4833;-12.7977;-2.8597;-0.6732;-9.7445;0.8733;3.0077;-0.0266;-3.1546;0.3185;0.8003;0.1718;3.0;13.44;29.98;25.76;153.58;76.63;173.1;0.0;977.87;64.018;35.957718;-83.9244;819.93;NaN;;4.75;12.226105;135.5;12 / 17;82072;2022-10-17 16:42:49:336
-2.4347;-6.2175;-4.0759;-1.4632;-8.8184;-4.0331;-0.9686;6.6269;6.392;0.148;-0.4023;-0.2232;0.0;12.71;29.98;23.87;150.99;62.66;163.24;0.0;977.99;66.973;35.957718;-83.9244;819.93;NaN;;4.75;12.226105;135.5;12 / 17;82572;2022-10-17 16:42:49:836
-0.5662;-13.8679;-3.8103;-0.8109;-9.6288;1.6729;-1.7712;1.8196;-2.6611;0.8434;0.7159;0.2646;41.0;12.15;27.94;27.77;227.39;81.89;115.2;0.0;977.88;65.479;35.957706;-83.924385;820.29;NaN;;4.75;12.226105;152.9;12 / 17;83073;2022-10-17 16:42:50:337
2.8083;-17.0495;-14.5753;-1.2414;-9.1958;-3.1727;-2.3409;3.2981;-0.7763;2.2442;-0.7056;-0.5221;1.0;11.08;29.57;23.72;126.98;57.0;170.15;0.0;977.18;68.142;35.957706;-83.924385;820.29;NaN;;4.75;12.226105;152.9;12 / 17;83572;2022-10-17 16:42:50:836
-2.9506;-10.1904;0.5279;-0.9974;-9.5931;1.7741;0.4155;0.5233;-2.9436;0.9344;0.5301;0.2002;47.0;12.06;33.68;19.41;311.52;78.02;29.34;0.0;978.18;63.544;35.957695;-83.92438;820.28;NaN;;4.68;12.226105;153.0;12 / 17;84072;2022-10-17 16:42:51:336
-1.6507;-15.8369;-18.0479;-1.5698;-9.1738;-3.09;-2.7897;2.1087;-3.7352;0.1386;0.5354;-0.8115;0.0;14.64;28.65;23.78;126.09;57.84;168.04;0.0;978.18;66.637;35.957695;-83.92438;820.28;NaN;;4.68;12.226105;153.0;12 / 17;84572;2022-10-17 16:42:51:836
-0.8644;-12.1358;-3.7337;-1.2822;-9.5516;1.8146;-1.1197;0.892;-1.8436;0.8162;0.8107;0.0962;2.0;18.71;32.93;17.94;218.11;80.49;103.16;0.0;978.67;64.832;35.957687;-83.92437;819.54;NaN;;4.61;12.226105;155.4;12 / 17;85072;2022-10-17 16:42:52:336
1.9391;-17.6264;-8.0824;-1.5293;-9.0953;-3.3327;-1.7452;2.1127;-4.7984;0.0609;0.6619;-0.8976;1.0;20.55;30.64;22.76;112.38;57.83;167.4;0.0;978.42;63.606;35.957687;-83.92437;819.54;NaN;;4.61;12.226105;155.4;12 / 17;85572;2022-10-17 16:42:52:836
-1.1827;-13.7396;-3.4786;-1.2842;-9.3263;2.746;0.3575;-4.2667;-7.3153;1.0328;0.3311;0.0974;1.0;20.57;37.46;17.29;293.57;77.92;30.48;0.0;978.72;64.528;35.957676;-83.92436;819.61;NaN;;4.82;12.226105;140.3;10 / 17;86072;2022-10-17 16:42:53:336
-0.7552;-13.6391;4.1118;-1.3754;-8.8025;-4.0981;-0.621;5.3136;1.0765;0.0152;0.5987;-0.3176;0.0;16.73;26.55;30.75;162.08;63.85;161.45;0.0;978.54;67.431;35.957676;-83.92436;819.61;NaN;;4.82;12.226105;140.3;10 / 17;86571;2022-10-17 16:42:53:835
-3.6006;-14.2687;-7.9508;-1.5912;-9.3987;2.3028;-1.9935;-0.9631;-2.5695;1.4785;0.1923;0.7897;2.0;12.3;31.31;25.28;267.62;82.79;74.88;0.0;978.02;65.933;35.957672;-83.924355;817.45;NaN;;4.9;12.226105;124.2;10 / 17;87072;2022-10-17 16:42:54:336
-2.059;-15.7675;-7.9831;-2.061;-9.016;-3.261;-0.9073;-1.5018;-8.8863;-0.3228;-0.4317;2.0E-4;0.0;7.2;26.25;27.23;209.93;54.17;156.98;0.0;976.17;64.244;35.957672;-83.924355;817.45;NaN;;4.9;12.226105;124.2;10 / 17;87572;2022-10-17 16:42:54:836
0.7349;-12.9377;-11.4126;-1.7936;-9.3581;2.3194;-1.4163;-1.1146;-5.2637;0.2491;1.7072;0.4474;2.0;4.76;29.04;20.27;322.17;72.6;37.71;0.0;977.51;65.782;35.95766;-83.92434;817.85;NaN;;5.04;12.226105;143.9;10 / 17;88072;2022-10-17 16:42:55:336
-3.5862;-8.9671;-0.486;-1.1067;-9.3672;-2.6834;3.3524;-7.0008;-5.7402;-0.2464;0.8206;-0.7829;0.0;8.4;25.61;24.6;191.26;60.91;157.81;0.0;976.0;67.682;35.95766;-83.92434;817.85;NaN;;5.04;12.226105;143.9;10 / 17;88572;2022-10-17 16:42:55:836
-1.9116;-13.96;-4.9618;-1.4655;-9.2512;2.9048;-1.2239;-1.5509;-5.3435;0.251;0.9199;0.1303;1.0;12.28;32.55;15.13;316.61;70.62;26.77;0.0;978.34;64.545;35.957653;-83.92433;817.22;NaN;;4.82;12.226105;134.4;9 / 17;89071;2022-10-17 16:42:56:335
-6.7573;-5.8056;2.6791;-1.5577;-8.951;-3.691;1.6994;-4.5687;-5.9487;0.2511;0.8822;-0.6687;0.0;19.07;30.36;23.64;137.39;58.57;158.06;0.0;978.6;68.846;35.957653;-83.92433;817.22;NaN;;4.82;12.226105;134.4;9 / 17;89572;2022-10-17 16:42:56:836
-1.3872;-11.8412;-2.965;-1.8764;-9.2334;2.719;0.3998;-2.8432;-6.2787;1.1073;0.726;0.3367;2.0;20.55;40.22;21.73;292.41;77.69;38.78;0.0;978.28;63.998;35.95764;-83.92432;820.44;NaN;;5.08;12.226105;157.0;9 / 17;90072;2022-10-17 16:42:57:336
-3.8342;-14.0486;2.2445;-1.6449;-9.2246;-2.8933;-2.2317;-2.6554;-9.4586;0.0848;-0.0111;-0.4543;0.0;16.16;31.95;32.33;180.78;65.09;153.02;0.0;978.16;61.621;35.95764;-83.92432;820.44;NaN;;5.08;12.226105;157.0;9 / 17;90572;2022-10-17 16:42:57:836
0.62;-15.5187;-6.6867;-1.4315;-9.4433;2.2238;-0.9807;0.7275;-1.4653;-3.0927;-0.0203;-0.217;1.0;10.16;37.78;23.23;318.6;74.35;32.77;0.0;978.13;66.746;35.957626;-83.92431;822.79;NaN;;4.86;12.226105;151.1;9 / 17;91072;2022-10-17 16:42:58:336
-2.4491;-16.159;4.3549;-1.8818;-9.0617;-3.2426;-1.7855;3.0587;-3.7947;0.5825;-0.5084;-2.0E-4;0.0;11.63;27.79;30.09;193.95;67.52;149.87;0.0;978.22;66.596;35.957626;-83.92431;822.79;NaN;;4.86;12.226105;151.1;9 / 17;91572;2022-10-17 16:42:58:836
-1.1276;-12.3571;-3.6209;-1.7108;-9.3634;2.3601;-0.6848;-0.6463;-4.2777;-2.0477;0.5611;-0.18;1.0;12.99;33.19;22.39;268.72;80.83;72.75;0.0;978.22;63.888;35.957615;-83.9243;822.82;NaN;;4.82;12.226105;159.5;9 / 17;92073;2022-10-17 16:42:59:337
-6.312;-11.9381;-4.7258;-1.3232;-9.164;-3.2313;0.5794;-4.1211;-9.0313;0.6424;1.0657;-0.4506;1.0;14.4;30.94;28.43;171.93;61.99;156.82;0.0;978.23;62.645;35.957615;-83.9243;822.82;NaN;;4.82;12.226105;159.5;9 / 17;92572;2022-10-17 16:42:59:836
-3.5085;-13.9648;4.6648;-1.7551;-9.3991;2.1786;0.4983;-3.6343;-6.7562;-1.7119;0.5529;0.074;1.0;11.06;37.5;21.9;312.71;73.42;38.86;0.0;978.29;65.445;35.957603;-83.92429;822.05;NaN;;4.82;12.226105;148.3;9 / 17;93072;2022-10-17 16:43:00:336
1.0845;-13.9313;-15.0577;-1.6373;-9.1167;-3.2212;-1.6054;4.6664;0.0492;1.9289;-0.2953;-0.1252;1.0;12.3;27.11;29.44;177.92;56.26;158.26;0.0;978.15;66.187;35.957603;-83.92429;822.05;NaN;;4.82;12.226105;148.3;9 / 17;93572;2022-10-17 16:43:00:836
-3.1316;-11.3862;-10.9771;-1.8844;-9.3047;2.4581;1.3136;-2.4547;-6.4737;-3.9043;-0.4512;-0.2981;1.0;14.18;32.83;17.96;291.71;78.36;46.04;0.0;978.17;65.709;35.957592;-83.924286;826.12;NaN;;5.29;12.226105;176.2;9 / 17;94072;2022-10-17 16:43:01:336
-5.4203;-7.1369;4.1297;-0.7969;-9.4279;-2.5789;-0.8746;-5.881;4.4797;0.2022;0.8635;-0.555;1.0;20.19;27.83;27.3;167.72;72.37;152.11;0.0;976.47;65.987;35.957592;-83.924286;826.12;NaN;;5.29;12.226105;176.2;9 / 17;94572;2022-10-17 16:43:01:836
-0.7098;-16.7001;-8.316;-1.732;-9.3664;2.3328;0.8672;-4.1895;-8.463;-3.0598;-0.1894;0.1481;1.0;18.98;35.81;20.93;298.87;75.96;34.3;0.0;978.01;65.538;35.957577;-83.924286;826.09;NaN;;4.54;12.226105;180.6;10 / 17;95072;2022-10-17 16:43:02:336
0.9015;-11.33;3.4439;-0.6225;-9.3683;-2.8315;-5.4378;2.8822;4.4069;1.3093;0.6039;0.4875;1.0;16.56;23.25;31.41;181.86;68.64;149.97;0.0;978.91;69.136;35.957577;-83.924286;826.09;NaN;;4.54;12.226105;180.6;10 / 17;95572;2022-10-17 16:43:02:836
0.9039;-12.9042;-1.6149;-2.2044;-9.1983;-2.589;-1.1302;-6.1141;7.011;-2.2013;0.1696;-0.9736;1.0;12.21;31.2;19.5;315.04;71.73;30.08;0.0;977.18;66.412;35.95757;-83.924286;826.86;NaN;;5.51;12.226105;149.6;10 / 17;96072;2022-10-17 16:43:03:336
-8.3877;-7.1584;5.5508;-0.4921;-9.0364;-3.7778;1.3954;-5.51;3.7329;-0.1856;-0.6502;-1.0306;1.0;15.99;22.99;28.16;146.57;67.14;172.58;0.0;978.56;62.316;35.95757;-83.924286;826.86;NaN;;5.51;12.226105;149.6;10 / 17;96572;2022-10-17 16:43:03:836
-2.2576;-12.588;0.9541;-0.6496;-9.6037;1.8754;1.5006;-5.578;-7.913;-4.0538;-0.2098;0.367;1.0;13.74;36.56;15.58;313.96;78.32;19.1;0.0;977.15;63.903;35.957554;-83.92428;827.03;NaN;;4.86;12.226105;155.4;10 / 17;97072;2022-10-17 16:43:04:336
5.2789;-13.96;3.3637;-0.6855;-9.1809;-3.378;-6.6042;4.1073;3.9829;1.7261;-0.4129;1.3333;1.0;17.85;25.07;32.93;155.97;69.42;168.53;0.0;978.36;66.09;35.957554;-83.92428;827.03;NaN;;4.86;12.226105;155.4;10 / 17;97572;2022-10-17 16:43:04:836
-2.1129;-11.3958;7.6098;-1.7526;-9.4072;-2.1455;-1.3098;-5.5886;5.774;-4.6562;0.1011;0.6041;0.0;13.35;36.88;21.09;320.98;70.77;24.17;0.0;977.0;60.926;35.957542;-83.92427;825.89;NaN;;4.82;12.226105;152.0;11 / 17;98072;2022-10-17 16:43:05:336
-5.8187;-6.0117;1.5191;-0.4517;-9.4051;-2.7404;-1.3835;-4.4046;1.4472;0.9047;0.1444;0.5398;1.0;13.93;28.46;32.78;178.35;67.82;158.05;0.0;978.33;66.102;35.957542;-83.92427;825.89;NaN;;4.82;12.226105;152.0;11 / 17;98572;2022-10-17 16:43:05:836
-4.1776;-11.1637;1.3741;-0.9723;-9.6957;1.1038;2.3545;-5.5804;-6.195;-3.9446;-1.1779;0.1084;1.0;14.46;39.68;18.58;319.11;76.64;18.76;0.0;977.31;61.371;35.95753;-83.92426;825.69;NaN;;4.46;12.226105;156.7;12 / 17;99072;2022-10-17 16:43:06:336
-5.3462;-7.8168;3.2142;-0.5871;-9.3106;-3.0229;-4.7256;-0.8766;5.8309;1.063;0.4225;-0.2467;1.0;19.44;29.76;30.96;165.69;69.56;157.84;0.0;978.98;68.212;35.95753;-83.92426;825.69;NaN;;4.46;12.226105;156.7;12 / 17;99572;2022-10-17 16:43:06:836
-1.847;-13.6929;3.5192;-1.0612;-9.4184;2.5176;0.1845;-3.0409;-4.6789;-3.4392;-0.44;1.0041;1.0;16.91;41.01;17.72;305.59;80.62;23.48;0.0;977.83;60.041;35.95752;-83.924255;825.69;NaN;;4.97;12.226105;146.3;12 / 17;100072;2022-10-17 16:43:07:336
-8.863;-5.9303;-0.0885;-1.3823;-9.116;-3.3405;1.7583;-3.5455;-6.241;0.6101;0.0767;-0.0218;0.0;18.26;28.41;33.88;180.5;60.74;151.85;0.0;978.47;62.909;35.95752;-83.924255;825.69;NaN;;4.97;12.226105;146.3;12 / 17;100572;2022-10-17 16:43:07:836
0.1747;-15.2551;-3.7026;-1.2832;-9.3855;2.537;1.9024;-3.0969;-5.6908;-0.698;0.4443;-0.1857;1.0;15.99;38.49;20.87;312.85;73.15;26.83;0.0;977.91;59.354;35.95751;-83.92425;825.15;NaN;;4.9;12.226105;153.7;12 / 17;101072;2022-10-17 16:43:08:336
-7.6481;-7.928;-0.2154;-1.1838;-9.103;-3.4503;-0.4575;-3.6273;-2.8413;0.3272;1.1806;-0.708;0.0;17.7;24.9;32.96;165.87;68.16;161.06;0.0;978.69;65.543;35.95751;-83.92425;825.15;NaN;;4.9;12.226105;153.7;12 / 17;101572;2022-10-17 16:43:08:836
-0.0227;-13.5625;-2.0471;-1.283;-9.4296;2.368;0.7452;-1.8145;-3.8807;0.6253;0.7541;0.0928;1.0;15.24;32.78;23.83;310.44;78.49;27.3;0.0;978.06;64.617;35.9575;-83.92424;823.61;NaN;;4.97;12.226105;153.0;12 / 17;102072;2022-10-17 16:43:09:336
3.6655;-11.2702;-7.7617;-1.4888;-8.9761;-3.6583;0.1307;-2.9873;-10.3086;-0.1462;0.0905;-0.6072;0.0;15.08;26.7;28.8;171.09;66.25;157.85;0.0;978.46;63.633;35.9575;-83.92424;823.61;NaN;;4.97;12.226105;153.0;12 / 17;102572;2022-10-17 16:43:09:836
-1.707;-15.0996;-7.3427;-1.3636;-9.3927;2.4673;1.2575;-2.2433;-4.8864;-3.7166;-0.5043;0.2174;1.0;15.36;30.99;24.32;298.28;82.43;36.85;0.0;978.07;63.448;35.95749;-83.92423;822.31;NaN;;5.08;12.226105;153.9;12 / 17;103072;2022-10-17 16:43:10:336
-0.9589;-8.4153;-3.5659;-1.8441;-8.9929;-3.4494;-0.0989;2.6152;-3.5708;0.4607;-0.8818;-0.1916;1.0;17.19;28.44;25.82;142.77;56.36;160.44;0.0;978.06;63.263;35.95749;-83.92423;822.31;NaN;;5.08;12.226105;153.9;12 / 17;103572;2022-10-17 16:43:10:836
-1.6831;-13.1758;-2.581;-1.3719;-9.4085;2.4016;-1.2024;-1.4642;-4.6357;0.1465;0.8496;0.2598;1.0;20.49;33.11;21.39;269.67;80.62;57.57;0.0;978.14;64.771;35.957478;-83.924225;821.45;NaN;;4.61;12.226105;150.4;11 / 17;104072;2022-10-17 16:43:11:336
5.1233;-11.7802;-7.2003;-1.4202;-9.2575;-2.9073;-2.0683;1.8916;-2.7471;0.1904;0.3504;-0.7582;0.0;19.58;32.08;22.74;123.5;58.68;160.89;0.0;977.9;67.446;35.957478;-83.924225;821.45;NaN;;4.61;12.226105;150.4;11 / 17;104572;2022-10-17 16:43:11:836
-4.0149;-11.0213;0.51;-0.7428;-9.6638;1.4933;-1.8202;1.2323;-2.4399;0.8816;0.0295;0.5423;1.0;18.75;34.54;20.94;204.46;81.1;118.21;0.0;978.1;66.478;35.957466;-83.924225;821.9;NaN;;4.61;12.226105;156.0;10 / 17;105072;2022-10-17 16:43:12:336
-2.2768;-6.0619;-4.3561;-1.8036;-8.8652;-3.7849;0.0758;4.1613;2.8823;-0.1822;-0.1132;-0.3259;1.0;19.97;31.88;21.69;123.19;58.37;158.48;0.0;978.02;65.692;35.957466;-83.924225;821.9;NaN;;4.61;12.226105;156.0;10 / 17;105572;2022-10-17 16:43:12:836
-1.2628;-10.5102;-0.431;-0.6744;-9.7471;0.8427;2.7432;0.0837;-2.4563;1.5558;0.8049;0.2328;1.0;18.09;32.36;23.04;158.58;77.94;158.13;0.0;977.53;64.688;35.957455;-83.92421;821.35;NaN;;4.93;12.226105;134.9;10 / 17;106072;2022-10-17 16:43:13:336
3.2285;-12.4158;-9.1202;-1.8798;-8.3753;-4.7425;1.3589;4.6767;7.6307;0.1949;-1.4336;-0.6904;1.0;16.44;33.04;20.12;158.01;68.84;151.85;0.0;978.29;65.203;35.957455;-83.92421;821.35;NaN;;4.93;12.226105;134.9;10 / 17;106572;2022-10-17 16:43:13:836
-2.1823;-7.4683;-1.8206;-0.7286;-9.6352;1.674;-2.1592;1.9636;-2.5975;1.6962;0.3582;-0.7218;2.0;17.31;31.61;22.99;219.9;80.08;111.2;0.0;977.72;67.226;35.95745;-83.924194;821.66;NaN;;4.61;12.226105;125.7;10 / 17;107072;2022-10-17 16:43:14:336
-1.884;-5.4395;-2.7748;-1.4291;-8.6987;-4.2966;1.5283;0.4426;4.7847;0.9474;-1.4441;-0.8878;0.0;15.24;32.33;21.09;133.03;62.5;161.6;0.0;978.12;64.705;35.95745;-83.924194;821.66;NaN;;4.61;12.226105;125.7;10 / 17;107571;2022-10-17 16:43:14:835
-0.8079;-8.5014;0.5841;-0.7705;-9.7734;0.2408;4.1776;-0.5809;-0.5465;1.3007;0.2786;0.0269;2.0;14.33;31.71;23.93;262.54;85.28;72.64;0.0;977.71;61.062;35.957447;-83.92419;822.81;NaN;;4.82;12.226105;145.3;10 / 17;108072;2022-10-17 16:43:15:336
-3.6018;-2.2421;3.1472;-1.6547;-8.3724;-4.8306;1.2392;-0.6091;4.4873;-1.6058;-1.0367;-0.9838;0.0;15.15;30.3;22.78;136.53;58.62;161.09;0.0;978.35;67.739;35.957447;-83.92419;822.81;NaN;;4.82;12.226105;145.3;10 / 17;108572;2022-10-17 16:43:15:836
-1.4127;-9.6338;0.3628;-0.1747;-9.7685;-0.8459;3.5007;-0.7195;0.3507;1.5278;0.7597;-0.3541;3.0;14.94;31.09;23.25;156.17;84.95;168.33;0.0;977.71;61.057;35.95744;-83.92417;822.91;NaN;;4.64;12.226105;134.3;10 / 17;109072;2022-10-17 16:43:16:336
-1.6041;-6.8518;-5.0731;-0.8982;-8.2174;-5.2762;1.1571;2.2364;5.4988;-0.3689;-1.4526;-0.1519;0.0;12.49;30.38;21.79;113.2;56.92;170.34;0.0;978.54;64.74;35.95744;-83.92417;822.91;NaN;;4.64;12.226105;134.3;10 / 17;109572;2022-10-17 16:43:16:836
-1.7752;-8.1473;-0.3269;-0.0791;-9.7229;1.2763;0.1276;0.6462;-1.9953;1.6258;0.6781;-0.249;2.0;13.43;28.86;25.99;176.85;82.6;156.16;0.0;977.74;62.139;35.957428;-83.92416;823.23;NaN;;4.72;12.226105;149.8;10 / 17;110072;2022-10-17 16:43:17:336
-0.9996;-4.975;3.0045;-1.1481;-8.3586;-4.9985;1.1488;2.4724;7.272;-2.1532;-1.7857;-0.4695;0.0;11.01;37.11;16.69;150.55;73.32;160.4;0.0;978.36;65.594;35.957428;-83.92416;823.23;NaN;;4.72;12.226105;149.8;10 / 17;110572;2022-10-17 16:43:17:836
-1.2772;-10.5844;-1.7788;-1.0359;-9.7433;0.407;5.2263;-1.3888;-1.0225;1.2681;0.2789;-0.3726;2.0;15.26;33.68;25.03;268.15;83.48;68.55;0.0;977.61;61.045;35.95742;-83.92415;822.62;NaN;;4.64;12.226105;163.3;10 / 17;111072;2022-10-17 16:43:18:336
-1.1922;-2.9722;1.9657;-0.6987;-8.7101;-4.4515;0.0103;4.7509;6.085;2.6588;0.1978;-0.4293;1.0;10.84;33.73;23.42;129.76;62.65;171.08;0.0;978.4;66.286;35.95742;-83.92415;822.62;NaN;;4.64;12.226105;163.3;10 / 17;111572;2022-10-17 16:43:18:836
-1.6376;-9.7271;-1.4821;-0.9128;-9.7635;-0.1016;4.4639;-1.1496;1.8331;1.3109;0.131;-0.2969;3.0;9.73;31.46;27.21;138.83;76.9;-169.25;0.0;977.75;59.927;35.95741;-83.92414;821.76;NaN;;4.86;12.226105;143.3;10 / 17;112072;2022-10-17 16:43:19:336
-2.8801;-5.3303;-3.2764;-0.7035;-8.8505;-4.1646;-0.0979;2.2352;4.6278;1.1805;-1.0342;-0.4904;0.0;8.89;36.17;19.31;203.21;74.05;143.0;0.0;978.12;60.99;35.95741;-83.92414;821.76;NaN;;4.86;12.226105;143.3;10 / 17;112572;2022-10-17 16:43:19:836
-0.1807;-9.3503;-0.7205;-1.1;-9.7425;0.2119;4.7598;-0.7987;-0.2381;1.7403;0.2229;-0.2531;3.0;10.13;29.68;28.84;149.51;76.4;-175.99;0.0;977.92;61.285;35.9574;-83.92413;822.21;NaN;;5.0;12.226105;167.1;10 / 17;113072;2022-10-17 16:43:20:336
-0.2524;-5.8798;0.6631;-0.9802;-8.6399;-4.5345;0.5949;2.5895;5.4091;-0.4015;-1.9179;-0.5709;0.0;10.24;35.46;18.43;178.65;70.97;151.47;0.0;978.48;59.147;35.9574;-83.92413;822.21;NaN;;5.0;12.226105;167.1;10 / 17;113572;2022-10-17 16:43:20:836
4.544;-10.5257;-1.8769;-0.9967;-9.684;-1.1818;-0.2368;-1.4984;4.4567;2.4487;0.387;0.8656;3.0;11.21;29.44;27.17;201.53;80.93;139.86;0.0;977.92;60.312;35.95739;-83.924126;823.44;NaN;;4.57;12.226105;147.5;10 / 17;114072;2022-10-17 16:43:21:336
-0.6392;-7.3295;-0.3197;-0.7935;-8.9383;-3.9557;-1.1258;-1.2995;1.8544;-1.5738;-0.6047;-0.3571;1.0;9.71;36.94;15.88;192.73;79.4;140.04;0.0;977.46;61.205;35.95739;-83.924126;823.44;NaN;;4.57;12.226105;147.5;10 / 17;114572;2022-10-17 16:43:21:836
1.1755;-9.4627;-4.41;0.0496;-9.5578;-2.1948;-4.8766;2.8966;3.0628;1.4375;0.358;-0.2627;3.0;9.09;30.02;27.66;173.75;71.98;166.15;0.0;977.41;59.523;35.95738;-83.92412;823.83;NaN;;4.32;12.226105;142.6;10 / 17;115072;2022-10-17 16:43:22:336
-1.6256;-4.27;2.819;-1.1612;-9.0886;-3.4955;1.795;-4.1165;6.9089;-1.8298;1.5536;-0.7553;1.0;8.38;38.98;14.42;90.05;67.94;161.62;0.0;976.89;64.914;35.95738;-83.92412;823.83;NaN;;4.32;12.226105;142.6;10 / 17;115572;2022-10-17 16:43:22:836
4.6768;-10.5951;-3.8521;-0.6682;-9.5836;-1.9695;-3.4855;2.1858;4.4638;1.7068;-1.5701;1.4723;2.0;10.44;29.27;30.3;171.39;70.47;167.05;0.0;977.27;62.171;35.95737;-83.92411;823.76;NaN;;4.5;12.226105;149.5;10 / 17;116072;2022-10-17 16:43:23:336
0.128;-4.6205;2.2983;-1.6364;-9.417;-2.1936;-0.7894;-5.122;3.3636;-1.8244;1.2674;-0.4874;1.0;12.69;39.84;13.97;318.6;74.26;19.88;0.0;977.75;67.706;35.95737;-83.92411;823.76;NaN;;4.5;12.226105;149.5;10 / 17;116572;2022-10-17 16:43:23:836
4.3274;-11.5995;2.1811;0.2284;-9.4608;-2.5712;-5.2403;2.0547;4.2627;0.6109;1.1078;0.2943;2.0;13.59;30.9;29.81;175.0;71.68;158.26;0.0;976.91;62.734;35.957363;-83.9241;824.62;NaN;;4.61;12.226105;146.2;10 / 17;117072;2022-10-17 16:43:24:336
-0.51;-7.381;0.189;-1.4629;-9.3137;-2.6991;0.7442;-5.4812;9.1656;-1.5234;2.2447;-0.5286;1.0;12.09;40.54;15.96;316.01;76.5;26.01;0.0;978.09;68.526;35.957363;-83.9241;824.62;NaN;;4.61;12.226105;146.2;10 / 17;117572;2022-10-17 16:43:24:836
4.4016;-10.2431;0.1591;-0.6388;-9.7418;-0.9275;-1.5216;-1.0355;3.748;2.3632;0.3617;0.8776;2.0;10.52;31.14;30.39;169.93;75.3;167.14;0.0;976.9;59.569;35.95735;-83.924095;824.75;NaN;;4.75;12.226105;146.5;10 / 17;118072;2022-10-17 16:43:25:336
-0.315;-7.1321;0.3257;-0.8314;-9.0454;-3.696;0.8548;-3.3825;4.7166;-2.4724;0.7968;0.4148;1.0;8.01;40.01;17.27;276.38;84.42;70.32;0.0;978.18;62.388;35.95735;-83.924095;824.75;NaN;;4.75;12.226105;146.5;10 / 17;118572;2022-10-17 16:43:25:836
1.7692;-12.478;0.9972;-0.0099;-9.4116;-2.7554;-5.0422;2.6957;3.0827;2.0239;-0.8175;1.3222;1.0;6.08;28.78;33.08;165.97;73.68;179.8;0.0;977.04;63.807;35.957344;-83.92409;823.67;NaN;;4.64;12.226105;156.3;9 / 17;119073;2022-10-17 16:43:26:337
-0.5961;-13.3567;7.4109;-1.7218;-9.3879;-2.2524;-0.0306;-3.3155;1.4796;-1.3829;1.8059;-1.0689;1.0;6.26;40.84;16.48;232.46;73.2;142.61;0.0;978.23;63.853;35.957344;-83.92409;823.67;NaN;;4.64;12.226105;156.3;9 / 17;119571;2022-10-17 16:43:26:835
-5.1257;-8.0656;3.5731;-0.6001;-9.2711;-3.1395;3.2002;-5.5385;-2.1881;0.0399;0.2349;-0.7075;0.0;6.28;29.81;31.67;185.54;65.0;166.51;0.0;976.28;67.558;35.957333;-83.92408;824.0;NaN;;4.5;12.226105;152.1;9 / 17;120072;2022-10-17 16:43:27:336
-5.0216;-13.5876;6.251;-1.0837;-9.7193;0.7293;2.5938;-5.4381;-5.1706;-4.1724;-0.3925;0.113;1.0;9.24;39.13;18.19;328.33;74.03;20.55;0.0;978.16;64.412;35.957333;-83.92408;824.0;NaN;;4.5;12.226105;152.1;9 / 17;120572;2022-10-17 16:43:27:836
-5.2621;-8.7996;3.2608;-0.3087;-9.3194;-3.0369;-5.0681;-1.951;3.9935;0.4845;1.3506;-0.14;0.0;11.7;28.31;32.14;178.04;68.58;160.68;0.0;976.73;66.311;35.95732;-83.92408;824.92;NaN;;4.57;12.226105;157.2;9 / 17;121072;2022-10-17 16:43:28:336
1.0965;-15.3927;-5.1808;-1.2844;-9.3705;2.5914;-0.1785;-3.2344;-6.5546;-1.0588;0.6658;0.0917;1.0;10.03;39.19;17.4;322.88;72.85;26.36;0.0;977.23;61.057;35.95732;-83.92408;824.92;NaN;;4.57;12.226105;157.2;9 / 17;121573;2022-10-17 16:43:28:837
-4.7498;-6.5145;1.1037;-0.5376;-9.433;-2.6269;3.3281;-5.5155;3.0854;0.2181;0.4462;-0.8689;0.0;9.32;32.31;26.87;179.06;71.17;162.11;0.0;977.22;65.472;35.957314;-83.92407;824.23;NaN;;4.46;12.226105;157.5;9 / 17;122072;2022-10-17 16:43:29:336
-1.6615;-13.7818;-8.3004;-0.9958;-9.3829;2.6722;-1.2608;-1.6508;-6.1666;-0.4932;1.1707;-0.019;1.0;11.21;37.78;18.19;324.79;73.09;20.44;0.0;978.01;62.691;35.957314;-83.92407;824.23;NaN;;4.46;12.226105;157.5;9 / 17;122574;2022-10-17 16:43:29:838
-4.2401;-8.6521;0.1412;-0.6706;-9.3788;-2.7854;-3.873;-1.3991;-8.6715;0.217;0.781;-0.5253;0.0;10.97;29.7;28.26;146.23;56.22;168.7;0.0;977.53;61.689;35.9573;-83.924065;823.85;NaN;;4.46;12.226105;155.0;9 / 17;123072;2022-10-17 16:43:30:336
-4.1058;-14.1287;-0.061;-1.029;-9.7358;0.5702;-1.0167;-3.4738;-6.2489;-1.3674;0.4578;0.2114;1.0;10.63;38.36;17.68;328.54;73.22;14.86;0.0;977.92;64.09;35.9573;-83.924065;823.85;NaN;;4.46;12.226105;155.0;9 / 17;123572;2022-10-17 16:43:30:836
-1.9391;-15.3628;-16.5984;-1.6174;-9.0131;-3.5097;-0.9705;4.7475;2.3197;-0.649;-0.4051;-0.3982;1.0;14.49;29.36;29.21;178.18;66.79;155.26;0.0;978.78;65.039;35.95729;-83.92406;824.08;NaN;;4.5;12.226105;144.2;9 / 17;124072;2022-10-17 16:43:31:336
-0.7385;-14.1562;-6.2605;-1.3185;-9.2788;2.8871;0.6775;-0.2089;-0.6052;1.653;0.4392;0.0495;2.0;8.4;38.53;18.77;329.58;71.12;24.54;0.0;978.32;63.417;35.95729;-83.92406;824.08;NaN;;4.5;12.226105;144.2;9 / 17;124573;2022-10-17 16:43:31:837
-0.6476;-9.6948;-12.842;-0.7955;-9.1581;-3.4157;-1.7393;7.3692;2.7975;2.1393;-1.0857;-0.3321;0.0;2.06;37.18;19.99;160.74;66.25;177.74;0.0;978.18;65.18;35.95728;-83.92405;823.13;NaN;;4.54;12.226105;154.2;9 / 17;125072;2022-10-17 16:43:32:336
0.419;-13.0549;-5.3064;-0.8349;-9.6726;1.3832;-0.3051;1.0583;-5.1709;-2.4579;0.399;-0.1467;2.0;6.64;34.2;25.5;204.01;79.66;146.57;0.0;978.09;67.053;35.95728;-83.92405;823.13;NaN;;4.54;12.226105;154.2;9 / 17;125572;2022-10-17 16:43:32:836
-5.1891;-12.332;3.6846;-1.5479;-9.3482;-2.5269;-1.5532;-1.6675;-9.8228;-0.3639;0.0053;-0.4542;0.0;9.04;31.89;26.96;176.41;62.15;162.85;0.0;978.9;65.194;35.95727;-83.92404;820.88;NaN;;4.61;12.226105;142.4;9 / 17;126072;2022-10-17 16:43:33:336
-3.3266;-13.5745;-9.3658;-2.1591;-9.5511;-0.5338;-0.3482;-4.5574;-6.9782;-1.9323;0.7288;0.0672;1.0;9.84;37.33;19.59;251.36;76.89;103.89;0.0;977.71;64.493;35.95727;-83.92404;820.88;NaN;;4.61;12.226105;142.4;9 / 17;126572;2022-10-17 16:43:33:836
-6.4388;-5.6189;3.6619;-1.9778;-9.3797;-2.0688;-0.9978;5.4949;5.4504;1.2261;-0.0682;-0.1674;1.0;11.23;31.16;26.01;204.73;64.15;146.3;0.0;976.3;69.284;35.95726;-83.924034;819.83;NaN;;4.86;12.226105;165.3;9 / 17;127072;2022-10-17 16:43:34:336
2.0818;-11.6486;-0.1172;-1.5221;-9.6606;0.7253;1.1889;-4.4505;-8.0589;-2.2689;1.0885;0.022;1.0;9.83;39.34;15.13;324.35;70.76;25.46;0.0;977.97;63.718;35.95726;-83.924034;819.83;NaN;;4.86;12.226105;165.3;9 / 17;127572;2022-10-17 16:43:34:836
-1.1934;-11.7455;1.3095;-0.0749;-9.5092;-2.3958;-1.3924;-4.4879;2.9949;1.114;-0.8828;0.8488;1.0;8.12;30.02;28.46;160.44;75.85;178.21;0.0;976.42;60.589;35.95725;-83.924034;820.51;NaN;;4.79;12.226105;162.1;9 / 17;128072;2022-10-17 16:43:35:336
-2.9411;-15.5103;4.4758;-1.8398;-9.2956;-2.5254;-0.9504;-5.5907;6.6556;-4.7455;-0.4851;0.8427;1.0;11.74;38.29;15.79;317.96;74.77;24.01;0.0;978.11;62.202;35.95725;-83.924034;820.51;NaN;;4.79;12.226105;162.1;9 / 17;128572;2022-10-17 16:43:35:836
-3.1555;-10.3268;6.087;-0.0799;-9.3948;-2.8109;0.1427;-2.687;3.1874;0.6613;1.3744;0.7298;1.0;12.69;29.12;30.51;150.86;73.34;178.37;0.0;976.29;59.515;35.95724;-83.92403;821.34;NaN;;5.26;12.226105;142.9;9 / 17;129072;2022-10-17 16:43:36:336
-2.6444;-13.3675;6.7358;-1.3129;-9.4173;-2.4001;-3.0623;-3.7842;-4.9664;-4.2979;0.3554;0.7049;2.0;6.88;40.48;16.11;330.27;75.83;21.61;0.0;978.15;59.792;35.95724;-83.92403;821.34;NaN;;5.26;12.226105;142.9;9 / 17;129572;2022-10-17 16:43:36:836
-3.0811;-8.7529;4.27;0.3572;-9.6292;-1.8226;-0.7365;1.1612;-5.2632;1.778;-1.0225;1.3204;1.0;2.59;31.95;29.93;194.68;76.78;163.51;0.0;976.19;62.862;35.95723;-83.92402;823.19;NaN;;4.97;12.226105;146.4;9 / 17;130072;2022-10-17 16:43:37:336
-3.967;-9.8327;-2.4586;-1.7301;-9.634;-0.6028;-2.0139;-4.9753;-2.0486;-2.0539;2.2519;-0.4978;0.0;1.59;40.43;14.61;273.26;79.23;109.21;0.0;977.96;68.299;35.95723;-83.92402;823.19;NaN;;4.97;12.226105;146.4;9 / 17;130572;2022-10-17 16:43:37:836
1.8876;-13.3101;3.1496;-0.4303;-9.6394;-1.7512;-4.885;2.5145;5.8097;1.0704;2.0867;0.0693;1.0;2.25;28.73;32.21;192.5;79.4;166.2;0.0;976.07;67.314;35.957214;-83.92401;823.76;NaN;;5.15;12.226105;161.8;9 / 17;131072;2022-10-17 16:43:38:336
0.2838;-11.2594;-2.0363;-1.4355;-9.411;-2.3545;-0.3449;-3.6522;9.1947;-1.8967;1.4291;-0.1824;1.0;0.28;39.06;17.57;264.36;82.97;111.09;0.0;978.16;57.509;35.957214;-83.92401;823.76;NaN;;5.15;12.226105;161.8;9 / 17;131572;2022-10-17 16:43:38:836
5.1628;-12.0987;-1.7142;-0.6519;-9.1998;-3.333;-4.5893;-0.2233;5.8802;2.3122;-0.2262;0.0845;1.0;3.53;27.39;31.91;186.08;69.74;168.93;0.0;976.14;61.35;35.957203;-83.924;825.74;NaN;;5.0;12.226105;165.8;9 / 17;132072;2022-10-17 16:43:39:336
0.6344;-15.3066;7.9579;-1.4274;-9.6544;0.9617;-1.7969;-4.3616;-10.2846;-2.5385;1.0228;0.4834;1.0;5.01;37.82;17.74;335.09;73.59;22.59;0.0;978.13;59.974;35.957203;-83.924;825.74;NaN;;5.0;12.226105;165.8;9 / 17;132572;2022-10-17 16:43:39:836
-8.1867;-4.7979;2.9722;-0.3348;-9.3947;-2.7924;-8.1591;2.4395;2.4782;2.1086;-1.1204;1.2605;1.0;5.89;26.79;31.82;174.75;73.33;173.16;0.0;976.09;61.2;35.95719;-83.924;827.79;NaN;;5.18;12.226105;181.7;9 / 17;133072;2022-10-17 16:43:40:336
-0.9063;-12.0772;-4.2075;-1.5186;-9.6514;-0.8458;-1.1809;-4.1305;-5.3877;-1.9326;1.6255;-0.1177;1.0;6.6;37.11;17.93;236.74;79.79;119.12;0.0;978.18;57.633;35.95719;-83.924;827.79;NaN;;5.18;12.226105;181.7;9 / 17;133571;2022-10-17 16:43:40:835
-4.8757;-8.5887;2.7652;-0.6204;-9.6011;-1.8983;-5.6166;3.5655;4.3901;1.0754;0.9645;-0.7416;1.0;7.22;26.83;30.69;194.79;70.07;157.59;0.0;975.99;65.764;35.95718;-83.924;828.95;NaN;;5.15;12.226105;166.1;9 / 17;134072;2022-10-17 16:43:41:336
0.504;-12.4528;-0.256;-1.3776;-9.6803;0.7511;-1.4202;-3.9168;-6.7992;-2.1039;1.8049;0.4697;1.0;6.19;38.03;15.54;334.83;72.82;19.98;0.0;977.87;60.731;35.95718;-83.924;828.95;NaN;;5.15;12.226105;166.1;9 / 17;134572;2022-10-17 16:43:41:836
6.1804;-11.415;1.0822;-0.3548;-9.6687;-1.6004;-5.7323;2.7799;3.9409;1.4299;-0.1183;1.2672;1.0;6.24;29.08;29.33;180.99;80.38;167.5;0.0;976.47;67.549;35.95717;-83.92399;829.89;NaN;;4.86;12.226105;164.0;9 / 17;135072;2022-10-17 16:43:42:336
-3.2871;-16.1267;7.6193;-0.5769;-9.7897;-0.0149;-0.7395;-4.9962;-6.6198;-2.3491;-0.1094;-0.4603;2.0;-0.28;38.42;15.54;276.51;86.63;91.48;0.0;977.67;60.678;35.95717;-83.92399;829.89;NaN;;4.86;12.226105;164.0;9 / 17;135572;2022-10-17 16:43:42:836
3.3517;-11.6928;0.8656;-0.5179;-9.6745;-1.5184;2.8643;-7.2768;-8.771;1.7638;-1.0;1.2804;2.0;-1.95;28.61;29.74;206.67;73.86;165.02;0.0;976.95;66.234;35.95716;-83.92399;829.19;NaN;;5.0;12.226105;171.0;9 / 17;136072;2022-10-17 16:43:43:336
-2.8322;-1.6962;2.953;-1.1896;-8.8768;-3.9948;3.5459;-3.185;1.3614;-0.5951;-1.7732;-0.6697;1.0;1.37;36.21;18.77;268.13;80.91;106.5;0.0;977.54;59.84;35.95716;-83.92399;829.19;NaN;;5.0;12.226105;171.0;9 / 17;136572;2022-10-17 16:43:43:836
5.2071;-10.8811;-1.7249;-0.9861;-9.6925;1.12;4.7173;-0.5949;-4.2691;2.5579;0.8879;0.3291;4.0;3.36;28.89;29.63;187.75;79.17;168.07;0.0;978.02;66.508;35.95715;-83.92398;832.33;NaN;;4.97;12.226105;168.1;9 / 17;137072;2022-10-17 16:43:44:336
-2.1775;-3.8737;-1.1109;-1.3637;-8.781;-4.1479;-0.3153;-1.1236;3.6735;-0.2243;-1.4549;-0.4708;0.0;2.03;35.89;18.23;255.11;81.63;115.1;0.0;978.65;67.267;35.95715;-83.92398;832.33;NaN;;4.97;12.226105;168.1;9 / 17;137572;2022-10-17 16:43:44:836
-2.3055;-9.4208;2.4359;-1.0417;-9.6675;1.2743;1.686;-0.691;-3.531;1.5313;0.396;0.4404;4.0;3.9;31.76;26.42;196.58;79.05;158.74;0.0;977.91;61.881;35.957134;-83.92398;834.42;NaN;;4.97;12.226105;165.4;9 / 17;138072;2022-10-17 16:43:45:336
-3.8378;-3.7409;-2.3222;-1.4892;-8.6035;-4.4646;-0.222;5.9675;6.9493;-0.7545;-1.613;-0.8141;1.0;0.92;36.98;18.41;274.51;64.61;157.89;0.0;978.6;60.502;35.957134;-83.92398;834.42;NaN;;4.97;12.226105;165.4;9 / 17;138572;2022-10-17 16:43:45:836
1.5837;-10.2538;-3.2548;-1.2266;-9.7232;-0.3531;-0.3825;-0.5892;3.337;1.466;0.4865;-0.0066;4.0;1.89;29.61;30.47;257.58;82.52;106.06;0.0;977.83;64.793;35.957123;-83.92398;837.43;NaN;;5.04;12.226105;159.8;9 / 17;139072;2022-10-17 16:43:46:336
-3.1089;-3.4175;-2.9686;-0.9537;-8.3017;-5.1324;-0.6484;4.5375;8.18;-1.558;-1.5679;-1.0392;0.0;-1.59;35.33;19.37;271.6;71.41;138.77;0.0;978.51;59.638;35.957123;-83.92398;837.43;NaN;;5.04;12.226105;159.8;9 / 17;139572;2022-10-17 16:43:46:836
-0.4597;-8.5672;1.567;-0.2394;-9.7982;0.3305;3.9692;-0.5964;-2.5957;1.6982;0.2191;-1.1421;3.0;-0.49;28.09;28.86;164.3;77.52;-167.9;0.0;977.87;63.388;35.95711;-83.92398;839.0;NaN;;4.9;12.226105;176.9;9 / 17;140072;2022-10-17 16:43:47:336
-1.4342;-3.7026;-0.9218;-0.8678;-8.0171;-5.5806;0.6108;4.1548;7.8537;0.989;-0.9254;-0.303;1.0;-0.75;32.98;21.39;194.18;64.19;179.61;0.0;978.55;62.998;35.95711;-83.92398;839.0;NaN;;4.9;12.226105;176.9;9 / 17;140572;2022-10-17 16:43:47:836
-0.8871;-9.5106;-2.983;0.3521;-9.7982;0.2052;-0.5484;1.5558;-1.9303;1.5293;0.7058;0.1273;4.0;3.36;33.69;25.67;50.8;87.62;-59.76;0.0;977.51;63.989;35.9571;-83.92397;840.17;NaN;;5.33;12.226105;167.4;9 / 17;141072;2022-10-17 16:43:48:336
-0.0909;-2.8837;3.827;-0.7205;-8.2926;-5.1849;-0.3332;-0.5335;-0.2128;0.6735;-0.3451;-1.232;1.0;-0.26;33.43;24.84;227.62;71.11;152.94;0.0;978.53;63.071;35.9571;-83.92397;840.17;NaN;;5.33;12.226105;167.4;9 / 17;141572;2022-10-17 16:43:48:836
0.8536;-9.6517;1.4833;0.6878;-9.7224;1.0829;2.2247;0.9454;-2.2793;0.9313;2.4984;0.1836;4.0;-2.55;30.86;26.93;34.17;82.48;-32.42;0.0;977.64;65.807;35.95709;-83.92397;841.71;NaN;;4.82;12.226105;176.1;9 / 17;142072;2022-10-17 16:43:49:336
-0.9182;-10.485;-7.9998;-1.1096;-9.2003;-3.2084;-0.2947;4.4316;7.0231;2.6709;-0.2676;-0.3421;0.0;-6.52;29.79;23.57;238.83;69.75;160.92;0.0;978.47;66.146;35.95709;-83.92397;841.71;NaN;;4.82;12.226105;176.1;9 / 17;142572;2022-10-17 16:43:49:836
0.1615;-12.714;-2.9662;-2.0427;-9.1782;2.7853;2.4482;-0.2964;-2.7464;1.2986;0.7937;0.7338;4.0;-2.91;34.2;16.91;339.91;75.67;39.19;0.0;977.64;63.173;35.957077;-83.92397;844.1;NaN;;4.97;12.226105;182.3;9 / 17;143072;2022-10-17 16:43:50:336
-2.1643;-0.772;3.5599;-1.3421;-8.692;-4.338;0.1044;3.6722;6.6948;-0.0855;-1.9678;-0.1154;0.0;-4.37;33.68;16.39;269.51;73.02;143.57;0.0;978.33;66.583;35.957077;-83.92397;844.1;NaN;;4.97;12.226105;182.3;9 / 17;143572;2022-10-17 16:43:50:836
-1.6723;-8.918;-3.4834;-1.7245;-9.4869;1.7874;3.8725;0.0232;-0.7788;1.0137;1.0703;0.143;3.0;-0.22;34.99;17.83;329.71;75.33;43.97;0.0;977.66;62.18;35.957066;-83.92397;845.19;NaN;;4.97;12.226105;184.7;9 / 17;144072;2022-10-17 16:43:51:336
-3.6631;-4.3071;-2.9315;-2.5227;-8.451;-4.2881;1.418;5.5099;7.2624;1.2381;-0.6534;-0.4558;0.0;1.18;35.04;17.74;295.54;59.51;149.53;0.0;978.12;65.535;35.957066;-83.92397;845.19;NaN;;4.97;12.226105;184.7;9 / 17;144572;2022-10-17 16:43:51:836
-3.9084;-9.4519;2.4263;-2.2024;-9.5561;0.0217;2.8874;-3.2597;3.9538;1.8174;1.174;-0.5577;3.0;5.21;31.71;26.74;215.17;71.92;147.91;0.0;977.64;59.398;35.957047;-83.92398;848.27;NaN;;5.04;12.226105;189.7;9 / 17;145072;2022-10-17 16:43:52:336
-1.7668;-2.3043;0.9099;-2.4952;-8.4392;-4.3272;1.7932;0.6458;2.7933;-1.2046;-1.1968;-0.3852;0.0;1.28;38.81;13.88;292.96;71.34;120.74;0.0;978.02;68.068;35.957047;-83.92398;848.27;NaN;;5.04;12.226105;189.7;9 / 17;145572;2022-10-17 16:43:52:836
-1.6998;-8.7111;-5.9961;-2.1261;-9.3149;2.2097;0.5675;1.014;-5.4748;1.3077;1.0335;-0.0467;2.0;0.94;36.45;21.83;281.23;76.31;98.81;0.0;977.74;64.373;35.95704;-83.92398;847.7;NaN;;4.97;12.226105;197.2;9 / 17;146072;2022-10-17 16:43:53:336
-2.8262;-8.1544;-2.691;-2.2466;-8.7579;-3.7977;0.4121;0.1875;2.4649;2.5761;-0.1028;-0.4437;0.0;-0.26;37.29;15.06;303.83;63.26;149.39;0.0;977.91;65.766;35.95704;-83.92398;847.7;NaN;;4.97;12.226105;197.2;9 / 17;146572;2022-10-17 16:43:53:836
-2.1655;-8.4141;-3.1065;-2.0838;-9.5463;0.8346;1.6663;-0.7127;1.4506;1.4027;0.5608;0.151;2.0;4.43;31.33;17.18;299.16;76.77;68.17;0.0;977.79;63.215;35.957027;-83.92399;849.4;NaN;;4.97;12.226105;186.9;10 / 17;147072;2022-10-17 16:43:54:336
-2.8202;-4.4004;-3.2572;-2.0693;-8.5711;-4.2923;0.8513;4.2003;6.9519;2.127;-0.5772;-0.1833;0.0;1.99;33.77;13.91;327.61;71.84;48.96;0.0;978.12;70.301;35.957027;-83.92399;849.4;NaN;;4.97;12.226105;186.9;10 / 17;147571;2022-10-17 16:43:54:835
-2.8047;-10.206;0.7086;-2.0747;-9.1532;2.8434;0.2845;0.2593;-1.0286;1.2957;0.763;-0.1112;2.0;0.96;29.94;25.61;228.49;76.62;141.8;0.0;977.5;58.439;35.957016;-83.92399;850.97;NaN;;4.93;12.226105;174.4;10 / 17;148072;2022-10-17 16:43:55:336
-3.5874;-9.0999;-7.2924;-2.2142;-8.8237;-3.6619;-0.4624;6.7103;6.3054;2.0404;-0.8901;-0.4197;0.0;0.47;34.61;12.98;295.64;67.36;147.64;0.0;978.25;66.89;35.957016;-83.92399;850.97;NaN;;4.93;12.226105;174.4;10 / 17;148572;2022-10-17 16:43:55:836
-3.1926;-9.3969;2.4287;-2.3156;-9.3048;2.0566;3.319;-0.9606;-4.0987;1.3463;0.5771;-0.206;2.0;6.68;33.71;17.4;313.52;71.59;48.39;0.0;977.47;62.935;35.957005;-83.92399;855.2;NaN;;5.26;12.226105;197.5;10 / 17;149071;2022-10-17 16:43:56:335
-2.3773;-2.0076;1.0128;-2.2831;-8.5843;-4.1554;-0.4721;6.9745;7.9693;1.8742;-0.8599;-0.6644;0.0;10.26;47.85;15.54;10.65;65.97;149.32;0.0;978.17;66.145;35.957005;-83.92399;855.2;NaN;;5.26;12.226105;197.5;10 / 17;149572;2022-10-17 16:43:56:836
-3.1531;-11.013;-0.0275;-2.5299;-8.9223;3.188;-0.481;0.1538;-0.4791;1.5548;-0.1542;0.1943;3.0;0.09;47.74;33.09;319.7;72.32;55.87;0.0;977.51;62.135;35.956993;-83.92399;854.01;NaN;;5.08;12.226105;176.0;10 / 17;150072;2022-10-17 16:43:57:336
-2.7162;-3.7756;-2.6755;-1.9502;-8.6169;-4.2562;0.9043;-0.3561;5.2026;0.5355;-1.445;-0.358;0.0;-4.37;34.8;23.08;279.62;74.56;113.97;0.0;978.14;69.024;35.956993;-83.92399;854.01;NaN;;5.08;12.226105;176.0;10 / 17;150572;2022-10-17 16:43:57:836
-4.3801;-9.757;1.0774;-2.2783;-9.3084;2.0816;2.2252;0.7147;-5.6764;1.3316;0.7537;-0.202;3.0;4.41;25.2;13.84;259.52;77.05;108.31;0.0;977.31;61.251;35.956978;-83.92399;856.41;NaN;;4.86;12.226105;180.9;11 / 17;151072;2022-10-17 16:43:58:336
-2.7257;-3.9347;-3.8414;-2.4145;-8.671;-3.8928;1.041;1.7346;5.8611;1.8332;-0.9125;-0.2181;0.0;11.14;35.38;8.79;229.8;70.71;121.07;0.0;978.31;65.347;35.956978;-83.92399;856.41;NaN;;4.86;12.226105;180.9;11 / 17;151572;2022-10-17 16:43:58:836
-2.5184;-11.7479;-0.7253;-2.6609;-9.0747;2.5963;-0.1814;1.4929;-1.8738;1.6581;0.4588;-0.1675;2.0;11.66;45.75;27.41;303.31;71.81;56.24;0.0;977.37;61.244;35.956966;-83.92399;859.89;NaN;;4.82;12.226105;180.7;11 / 17;152072;2022-10-17 16:43:59:336
-2.0363;-4.52;-3.2991;-1.8454;-8.828;-3.8512;0.2578;0.9779;4.1388;1.3048;-1.2282;-0.2535;0.0;-2.94;37.43;21.02;271.12;64.18;154.4;0.0;978.33;59.831;35.956966;-83.92399;859.89;NaN;;4.82;12.226105;180.7;11 / 17;152573;2022-10-17 16:43:59:837
-3.6511;-10.6298;-1.7465;-2.2073;-9.1975;2.5891;1.1823;0.5938;-4.2093;1.473;0.9739;0.0025;18.0;0.69;32.96;14.85;240.3;79.94;135.96;0.0;977.55;60.968;35.95695;-83.92399;860.5;NaN;;4.82;12.226105;180.7;11 / 17;153072;2022-10-17 16:44:00:336
-2.9483;-3.6583;-1.0487;-1.9706;-8.6642;-4.1495;-0.8101;1.5405;5.3608;-1.7996;-1.3067;-0.3965;0.0;9.02;45.19;15.77;14.49;62.07;154.6;0.0;978.09;62.793;35.95695;-83.92399;860.5;NaN;;4.82;12.226105;180.7;11 / 17;153571;2022-10-17 16:44:00:835
-3.9849;-9.3503;0.4561;-2.4367;-9.4375;1.0802;3.0756;-3.1538;1.8456;1.2035;0.3551;-0.0912;19.0;-0.09;40.86;35.23;307.77;74.23;66.09;0.0;977.37;63.094;35.95694;-83.924;859.36;NaN;;6.41;12.226105;218.7;12 / 17;154072;2022-10-17 16:44:01:336
-2.3318;-3.4989;-1.1264;-1.9452;-8.7777;-3.9165;1.0312;3.1143;5.9996;1.6587;-1.1847;-0.1422;0.0;-8.76;32.1;19.52;276.13;63.52;153.59;0.0;978.14;59.703;35.95694;-83.924;859.36;NaN;;6.41;12.226105;218.7;12 / 17;154572;2022-10-17 16:44:01:836
-3.6775;-8.5325;1.4354;-2.4488;-9.1968;2.3648;0.8796;0.5421;-2.9922;1.7532;0.7306;-0.2456;24.0;-2.74;26.36;16.74;301.12;75.66;87.16;0.0;977.38;59.816;35.95693;-83.92401;857.46;NaN;;6.01;12.540443;206.1;12 / 17;155072;2022-10-17 16:44:02:336
-3.4929;-2.6348;1.1587;-2.2231;-8.715;-3.9086;-1.1638;6.6599;6.7403;2.048;-1.4864;0.0581;1.0;3.77;35.74;10.93;354.07;62.75;156.91;0.0;978.42;67.297;35.95693;-83.92401;857.46;NaN;;6.01;12.540443;206.1;12 / 17;155572;2022-10-17 16:44:02:836
-4.3813;-10.6777;-0.6727;-2.552;-9.3901;1.2184;2.9191;-2.1902;2.9621;2.7476;0.0244;0.4513;29.0;1.01;39.38;28.35;225.55;79.67;143.23;0.0;977.66;64.406;35.956917;-83.92403;860.1;NaN;;5.83;13.347475;216.1;12 / 17;156072;2022-10-17 16:44:03:336
-1.9594;-1.4151;3.6078;-1.4844;-8.2883;-5.027;0.6806;2.3255;7.1057;-1.6322;-2.4057;-0.2764;0.0;-10.44;37.05;13.88;296.25;72.95;134.14;0.0;978.27;67.535;35.956917;-83.92403;860.1;NaN;;5.83;13.347475;216.1;12 / 17;156571;2022-10-17 16:44:03:835
1.6615;-10.3208;0.6727;-2.3423;-9.4028;-1.5073;-2.1473;0.9251;4.78;1.4635;1.1365;-0.3715;27.0;-3.92;25.31;20.59;259.28;68.1;139.73;0.0;977.55;59.959;35.956905;-83.924034;860.35;NaN;;5.69;14.209261;211.9;12 / 17;157072;2022-10-17 16:44:04:336
-3.2536;-2.8334;2.8789;-1.7167;-8.5962;-4.3965;-1.308;-1.7856;4.0715;-1.4395;-1.415;-0.5248;2.0;-1.44;39.08;2.72;346.91;76.26;72.78;0.0;977.7;69.986;35.956905;-83.924034;860.35;NaN;;5.69;14.209261;211.9;12 / 17;157572;2022-10-17 16:44:04:836
-2.983;-11.4126;2.7173;-2.1143;-9.5363;-0.8717;3.3631;-1.9614;1.3362;2.1807;0.374;-0.2712;18.0;-2.61;36.98;20.74;259.85;72.63;141.19;0.0;977.56;59.798;35.95689;-83.92404;861.26;NaN;;6.44;14.36278;216.5;12 / 17;158072;2022-10-17 16:44:05:336
-3.4175;-3.2465;2.9052;-2.2108;-9.3658;-1.8878;0.3776;-3.9794;9.152;-0.39;-1.9083;-0.3485;3.0;-0.08;47.1;4.33;345.12;72.76;130.49;0.0;977.4;64.037;35.95689;-83.92404;861.26;NaN;;6.44;14.36278;216.5;12 / 17;158572;2022-10-17 16:44:05:836
-2.7269;-8.2837;0.0215;-2.171;-9.3681;1.9223;3.6933;-0.2356;-3.6612;2.2559;0.0112;0.3771;22.0;-1.41;44.66;23.29;267.26;79.65;116.16;0.0;977.71;63.488;35.95688;-83.92406;861.74;NaN;;5.94;14.02224;214.3;12 / 17;159072;2022-10-17 16:44:06:336
-1.8505;-10.6932;-0.559;-2.5949;-9.2792;-1.8257;-0.9206;-3.5422;9.3557;-0.8218;-1.7715;-0.4124;1.0;-3.32;46.31;13.48;348.02;67.22;40.2;0.0;977.4;64.879;35.95688;-83.92406;861.74;NaN;;5.94;14.02224;214.3;12 / 17;159572;2022-10-17 16:44:06:836
-0.868;-8.627;-1.9487;-2.1496;-9.563;0.315;-3.7034;-2.1746;2.2781;1.6768;0.7574;-0.2485;18.0;-3.92;30.64;24.54;300.56;77.2;81.66;0.0;977.76;62.257;35.956867;-83.924065;860.55;NaN;;5.65;14.054981;201.5;12 / 17;160072;2022-10-17 16:44:07:336
-3.7241;-2.9363;2.2636;-1.6494;-8.8362;-3.9207;-0.8954;-3.077;4.796;-2.2902;1.2118;-0.5265;2.0;0.26;37.59;9.51;309.33;70.82;142.3;0.0;977.36;62.895;35.956867;-83.924065;860.55;NaN;;5.65;14.054981;201.5;12 / 17;160572;2022-10-17 16:44:07:836
-3.0009;-11.3157;4.3238;-1.7162;-9.5938;-1.088;1.8643;-2.409;2.381;1.7395;-0.5192;0.9536;13.0;1.88;40.29;24.41;252.82;78.04;122.37;0.0;977.17;64.075;35.956856;-83.924065;854.49;NaN;;5.08;14.000322;192.9;12 / 17;161071;2022-10-17 16:44:08:335
-4.8494;-12.0541;-6.8219;-2.0585;-9.1138;-2.9785;-0.6977;-2.5929;3.7818;-2.6081;0.705;-0.2285;5.0;-1.78;47.63;10.54;333.28;75.23;65.95;0.0;977.27;64.489;35.956856;-83.924065;854.49;NaN;;5.08;14.000322;192.9;12 / 17;161572;2022-10-17 16:44:08:836
-4.7883;-7.6875;4.7836;-1.6191;-9.4303;-2.1491;-7.2011;1.552;1.6336;2.017;0.0584;0.9943;4.0;-5.53;34.26;27.75;248.09;74.07;143.01;0.0;976.37;61.543;35.95685;-83.924065;852.12;NaN;;5.22;13.101727;210.3;12 / 17;162072;2022-10-17 16:44:09:336
-3.3254;-12.4277;10.5437;-2.652;-9.3208;-1.5033;-3.6478;-4.7017;5.3567;-2.1609;0.9012;-0.4514;6.0;-7.44;47.91;4.28;339.79;71.89;119.55;0.0;978.32;55.948;35.95685;-83.924065;852.12;NaN;;5.22;13.101727;210.3;12 / 17;162572;2022-10-17 16:44:09:836
-4.3717;-9.2495;3.9574;-1.2371;-9.4938;-2.1233;-2.5553;-4.3658;2.9578;1.4404;-0.0852;0.9192;6.0;-12.94;37.65;23.63;277.19;70.32;140.39;0.0;976.61;60.046;35.95684;-83.924065;847.64;NaN;;4.79;12.226105;210.9;12 / 17;163073;2022-10-17 16:44:10:337
-2.8502;-11.4209;-3.1543;-2.7165;-9.3646;-1.047;-2.6591;-3.7174;0.0565;-3.0147;0.137;0.4979;4.0;-14.81;33.58;7.93;13.5;65.07;38.25;0.0;977.55;60.523;35.95684;-83.924065;847.64;NaN;;4.79;12.226105;210.9;12 / 17;163572;2022-10-17 16:44:10:836
-6.6114;-6.5659;3.6787;-1.9293;-9.5987;-0.5594;-3.6883;1.8426;4.5015;0.9799;0.7389;0.2637;7.0;-14.81;31.11;10.63;296.76;75.55;138.63;0.0;976.75;61.769;35.956833;-83.92407;847.07;NaN;;4.79;12.410629;210.2;12 / 17;164072;2022-10-17 16:44:11:336
-1.1468;-8.6593;0.1807;-2.6793;-9.318;-1.472;-2.9386;-4.8738;1.3745;-1.9184;1.3508;-0.5787;7.0;-11.25;40.29;-3.86;29.04;65.47;38.52;0.0;977.51;62.773;35.956833;-83.92407;847.07;NaN;;4.79;12.410629;210.2;12 / 17;164572;2022-10-17 16:44:11:836
2.0483;-11.3073;5.2801;-2.0289;-9.5402;-1.0193;-3.7035;1.5861;3.584;1.0373;1.4173;0.1736;11.0;-15.67;35.76;16.97;288.58;73.81;138.97;0.0;976.93;58.759;35.956825;-83.92408;845.06;NaN;;4.79;12.397167;216.0;12 / 17;165072;2022-10-17 16:44:12:336
-1.4294;-7.509;0.5423;-1.7504;-8.9497;-3.607;0.5002;-1.2953;1.2086;-1.3784;1.8184;-0.7701;7.0;-18.06;37.2;-3.17;355.94;73.5;105.7;0.0;977.49;60.12;35.956825;-83.92408;845.06;NaN;;4.79;12.397167;216.0;12 / 17;165571;2022-10-17 16:44:12:835
1.6424;-11.8771;2.1021;-1.5737;-9.5967;-1.2636;-5.3917;3.3492;4.2039;2.1803;-0.4865;0.5656;14.0;-18.71;35.4;5.46;315.86;72.18;140.85;0.0;976.77;61.346;35.956818;-83.92408;842.52;NaN;;4.75;12.226105;213.9;12 / 17;166072;2022-10-17 16:44:13:336
-3.4008;-9.4843;-4.9032;-2.3322;-9.1838;-2.5275;-2.2191;-4.1791;2.934;-2.9115;-0.2465;-0.1668;9.0;-12.41;39.99;-11.53;44.26;63.18;42.55;0.0;977.6;63.73;35.956818;-83.92408;842.52;NaN;;4.75;12.226105;213.9;12 / 17;166572;2022-10-17 16:44:13:836
-0.4836;-9.993;-3.6607;-1.2854;-9.6303;-1.3322;-2.0129;1.426;4.165;0.9861;0.2715;0.7952;7.0;-13.35;38.51;9.69;313.27;71.08;132.87;0.0;976.78;62.505;35.956814;-83.92409;839.11;NaN;;4.86;12.226105;226.6;12 / 17;167072;2022-10-17 16:44:14:336
-1.6448;-7.5138;0.5937;-2.254;-9.3388;-1.9691;-1.7105;-0.5063;0.6955;-1.1515;1.692;-0.8781;3.0;-11.08;38.34;-8.83;42.46;70.69;50.73;0.0;978.01;57.755;35.956814;-83.92409;839.11;NaN;;4.86;12.226105;226.6;12 / 17;167572;2022-10-17 16:44:14:836
-3.9191;-9.9739;3.8533;-1.4265;-9.481;-2.0605;-4.3611;3.2138;3.8739;2.283;-0.0384;0.3672;3.0;-7.35;41.63;6.56;324.41;70.0;138.43;0.0;976.49;57.381;35.956802;-83.924095;839.1;NaN;;4.93;12.226105;214.6;12 / 17;168072;2022-10-17 16:44:15:336
-6.3036;-14.8182;5.9662;-2.2095;-9.2311;2.4648;1.4452;-5.5551;-6.2817;-3.6021;-0.0054;0.5631;8.0;0.02;47.27;-10.95;42.0;70.27;41.87;0.0;977.75;61.884;35.956802;-83.924095;839.1;NaN;;4.93;12.226105;214.6;12 / 17;168572;2022-10-17 16:44:15:836
1.5574;-10.6968;2.9076;-1.5418;-9.6246;-1.0772;-4.5617;0.9059;3.7463;1.2283;-0.7434;1.2442;6.0;-5.23;47.55;7.37;327.4;73.13;129.03;0.0;976.31;61.377;35.956795;-83.9241;841.79;NaN;;4.79;12.226105;219.7;11 / 17;169071;2022-10-17 16:44:16:335
-2.2289;-11.6055;2.8083;-2.5147;-9.2986;-1.8393;-2.2901;-4.6104;8.104;-4.3436;0.1539;0.0508;3.0;-6.81;52.99;-16.41;46.59;65.76;40.88;0.0;977.72;61.505;35.956795;-83.9241;841.79;NaN;;4.79;12.226105;219.7;11 / 17;169571;2022-10-17 16:44:16:835
-0.9924;-11.8149;4.0364;-1.5687;-9.3882;-2.3604;-1.3813;-5.2019;3.0797;1.1857;0.2296;0.593;2.0;-5.46;64.52;14.4;310.77;73.2;146.39;0.0;976.13;65.719;35.956787;-83.92411;839.42;NaN;;4.97;12.226105;235.8;10 / 17;170072;2022-10-17 16:44:17:336
-4.6624;-12.7068;8.6414;-2.7749;-9.3194;-1.2726;-2.1029;-5.1412;2.0526;-4.3503;-0.1552;-0.2487;8.0;2.19;74.08;-1.07;358.45;63.62;41.34;0.0;977.85;62.365;35.956787;-83.92411;839.42;NaN;;4.97;12.226105;235.8;10 / 17;170572;2022-10-17 16:44:17:836
-4.914;-7.1728;3.1615;-1.856;-9.2052;-2.8268;2.0333;-4.027;-0.5785;1.0381;0.9823;-0.0608;1.0;-6.34;54.81;37.74;260.21;66.85;146.52;0.0;976.49;68.457;35.956783;-83.924126;839.71;NaN;;4.79;12.226105;231.5;11 / 17;171072;2022-10-17 16:44:18:336
-2.6037;-14.3527;8.505;-2.369;-9.4681;0.9559;0.4298;-3.366;-8.1727;-2.3351;0.5272;-0.128;8.0;-9.73;49.8;18.26;355.77;66.28;37.07;0.0;977.68;56.884;35.956783;-83.924126;839.71;NaN;;4.79;12.226105;231.5;11 / 17;171572;2022-10-17 16:44:18:836
-7.485;-13.4225;-1.5263;-1.2516;-9.5103;-2.0392;-5.6333;0.4654;2.1314;0.353;0.4157;-0.6932;3.0;-12.73;39.62;21.08;287.03;61.7;158.01;0.0;976.35;67.557;35.956776;-83.92413;838.16;NaN;;4.64;12.226105;245.1;11 / 17;172072;2022-10-17 16:44:19:336
-0.6703;-14.3058;9.932;-2.2921;-9.5347;0.0741;-1.3924;-4.2258;-7.2597;-4.4711;-0.5176;0.621;2.0;-12.38;41.91;8.51;8.18;66.16;36.37;0.0;977.82;59.648;35.956776;-83.92413;838.16;NaN;;4.64;12.226105;245.1;11 / 17;172571;2022-10-17 16:44:19:835
-6.0248;-7.1345;-0.6846;-2.2322;-9.3393;-1.9914;3.395;-5.3227;-9.0115;0.5049;0.8882;-1.0261;1.0;-13.14;38.74;13.03;303.96;64.12;153.65;0.0;976.72;68.737;35.95677;-83.92415;838.58;NaN;;4.64;12.226105;239.6;11 / 17;173073;2022-10-17 16:44:20:337
-0.8752;-13.6259;-0.5865;-2.4644;-8.9574;3.1403;1.4599;-3.9386;-5.4497;0.6073;0.3323;0.2446;9.0;-12.75;40.91;4.65;14.44;70.33;40.99;0.0;977.52;60.112;35.95677;-83.92415;838.58;NaN;;4.64;12.226105;239.6;11 / 17;173572;2022-10-17 16:44:20:836
-5.7517;-15.2659;1.5718;-2.3564;-9.2353;-2.308;-0.3472;4.4945;0.7602;-0.3729;-0.0649;-0.8558;0.0;-12.9;38.64;10.11;308.07;64.44;160.66;0.0;978.33;67.968;35.956768;-83.92416;837.59;NaN;;4.61;12.543895;243.1;11 / 17;174071;2022-10-17 16:44:21:335
-4.0531;-14.8684;-5.2717;-2.7718;-8.8535;3.1784;1.2004;-1.5122;-5.0987;-2.916;1.1254;-0.9512;8.0;-12.32;40.5;5.93;353.64;73.13;55.0;0.0;977.4;58.317;35.956768;-83.92416;837.59;NaN;;4.61;12.543895;243.1;11 / 17;174572;2022-10-17 16:44:21:836
-3.8581;-12.9365;3.778;-2.0769;-9.3807;-1.9643;1.3461;2.6375;5.3023;-0.0764;-0.8367;-0.1402;0.0;-13.99;39.21;7.13;316.8;64.1;154.96;0.0;978.86;64.552;35.95676;-83.92418;838.96;NaN;;4.68;13.177493;230.3;11 / 17;175072;2022-10-17 16:44:22:336
-0.5112;-12.9209;-6.2426;-2.674;-8.8479;3.2764;-0.3822;0.2987;-1.0099;-0.493;0.837;0.0079;13.0;-13.93;39.75;5.21;351.7;75.58;61.69;0.0;977.46;61.381;35.95676;-83.92418;838.96;NaN;;4.68;13.177493;230.3;11 / 17;175572;2022-10-17 16:44:22:836
-2.5989;-7.5811;-6.0236;-2.147;-9.0311;-3.1621;-0.2;-0.552;-8.4904;2.2255;-1.1538;0.1666;0.0;-13.33;39.45;5.06;318.98;66.74;156.32;0.0;978.41;65.402;35.956753;-83.92418;835.56;NaN;;5.15;13.169218;203.3;11 / 17;176071;2022-10-17 16:44:23:335
-0.4346;-10.5437;-3.1663;-2.4423;-8.9742;3.1096;-0.0649;-0.548;-3.7379;0.6699;0.3784;0.1914;13.0;-13.72;40.2;7.26;294.28;78.28;131.46;0.0;977.42;63.059;35.956753;-83.92418;835.56;NaN;;5.15;13.169218;203.3;11 / 17;176572;2022-10-17 16:44:23:836
-3.0057;-13.8368;-1.6137;-2.1772;-8.5873;-4.2058;0.2011;6.0304;6.5811;1.3439;-1.2616;-0.2771;0.0;-13.61;38.25;9.23;315.71;61.12;152.63;0.0;978.47;66.362;35.956745;-83.92419;834.78;NaN;;4.43;12.967185;218.0;12 / 17;177072;2022-10-17 16:44:24:336
-1.5969;-10.9496;-3.1854;-2.2281;-9.3968;1.7048;0.3666;0.7169;-3.7895;1.7217;0.2024;0.3175;14.0;-11.87;39.19;5.1;8.15;73.38;52.58;0.0;977.6;62.741;35.956745;-83.92419;834.78;NaN;;4.43;12.967185;218.0;12 / 17;177571;2022-10-17 16:44:24:835
-0.285;-14.4473;-7.6971;-2.4891;-9.1032;-2.6657;0.2064;5.2665;4.7661;2.1084;-1.2522;-0.2935;0.0;-12.28;36.81;12.17;309.35;62.45;148.84;0.0;978.34;67.012;35.956738;-83.9242;836.55;NaN;;4.64;12.97804;219.4;12 / 17;178072;2022-10-17 16:44:25:336
-3.906;-9.4412;0.1292;-2.3399;-9.2373;2.3167;3.0593;0.2913;-3.8177;0.5391;0.6075;0.1471;14.0;-11.23;38.42;9.83;336.61;74.07;86.59;0.0;977.7;59.006;35.956738;-83.9242;836.55;NaN;;4.64;12.97804;219.4;12 / 17;178572;2022-10-17 16:44:25:836
-2.7939;-3.979;-1.6184;-2.147;-8.7777;-3.8094;-0.3087;6.6626;5.8204;1.7886;-1.1692;-0.4026;0.0;-13.56;38.4;8.29;316.28;63.52;150.59;0.0;978.11;67.767;35.95673;-83.92421;835.52;NaN;;4.93;13.242096;241.5;12 / 17;179071;2022-10-17 16:44:26:335
-4.1955;-9.7714;0.2249;-1.9844;-9.4107;1.9162;0.4934;1.3511;-4.7778;1.4182;0.2445;0.3659;19.0;-14.4;38.94;5.61;12.38;73.66;46.0;0.0;977.89;64.781;35.95673;-83.92421;835.52;NaN;;4.93;13.242096;241.5;12 / 17;179572;2022-10-17 16:44:26:836
-2.5953;-7.8203;-7.1919;-1.929;-8.7721;-3.9369;0.1739;3.0352;6.5609;1.4925;-1.487;-0.2365;0.0;-14.79;39.41;1.28;335.48;70.82;130.42;0.0;978.06;69.659;35.956722;-83.924225;834.46;NaN;;4.57;13.170364;227.5;12 / 17;180072;2022-10-17 16:44:27:336
-3.6739;-9.4735;1.3047;-2.3596;-8.9617;3.2078;0.4468;1.0996;-3.2331;1.1171;-0.1458;0.2903;16.0;-15.26;37.52;11.03;356.11;74.11;59.66;0.0;977.79;60.852;35.956722;-83.924225;834.46;NaN;;4.57;13.170364;227.5;12 / 17;180571;2022-10-17 16:44:27:835
-2.3366;-9.5142;-9.3383;-1.68;-8.5045;-4.585;0.6227;0.6493;5.1562;1.0458;-1.3724;-0.4093;1.0;-15.88;38.36;3.09;322.05;68.29;148.35;0.0;977.78;71.551;35.956715;-83.92423;834.59;NaN;;4.64;13.057961;220.4;12 / 17;181072;2022-10-17 16:44:28:336
-2.1188;-10.7016;-4.2221;-2.3076;-9.1969;2.5026;0.6702;0.8236;-4.068;1.547;-0.1945;0.1975;16.0;-17.1;36.06;11.68;312.17;76.58;119.41;0.0;977.93;61.052;35.956715;-83.92423;834.59;NaN;;4.64;13.057961;220.4;12 / 17;181572;2022-10-17 16:44:28:836
-2.6515;-1.7704;2.3414;-2.0423;-8.5823;-4.283;-0.2341;6.2806;4.4332;0.3297;-1.3893;-0.1564;0.0;-15.9;37.39;4.16;323.85;67.6;141.17;0.0;977.66;66.577;35.95671;-83.92425;833.97;NaN;;5.0;12.932805;245.4;12 / 17;182071;2022-10-17 16:44:29:335
-2.2074;-10.3101;-2.6061;-2.3301;-9.1829;2.5328;1.8064;0.4639;-4.405;1.4951;0.2109;0.1996;16.0;-17.42;35.53;6.38;0.14;76.28;70.36;0.0;978.03;62.147;35.95671;-83.92425;833.97;NaN;;5.0;12.932805;245.4;12 / 17;182571;2022-10-17 16:44:29:835
-2.077;-14.8974;-13.6606;-1.9823;-8.6454;-4.1831;1.6258;2.0511;5.5468;1.4217;-0.9086;-0.0664;0.0;-16.91;37.61;-4.2;349.03;69.88;121.76;0.0;977.86;69.229;35.956707;-83.92426;832.69;NaN;;4.54;13.307685;239.8;12 / 17;183072;2022-10-17 16:44:30:336
-3.4487;-7.7414;0.0167;-2.2876;-9.435;1.3852;0.867;1.1795;-2.8186;1.4482;0.4955;-0.0628;16.0;-17.53;37.46;6.04;329.6;74.65;116.35;0.0;977.55;61.761;35.956707;-83.92426;832.69;NaN;;4.54;13.307685;239.8;12 / 17;183573;2022-10-17 16:44:30:837
0.5506;-5.5866;1.5706;-2.3465;-9.0651;-2.9134;-2.1995;-2.4166;3.4769;0.3818;-1.1981;-0.1909;2.0;-16.09;38.63;-7.63;346.03;67.58;141.15;0.0;978.08;60.109;35.956703;-83.92427;831.66;NaN;;4.5;13.812316;235.7;12 / 17;184072;2022-10-17 16:44:31:336
-3.5934;-6.3766;-3.3613;-2.5307;-9.3245;1.6793;1.5413;1.097;-2.8063;1.4518;0.262;0.4862;23.0;-17.06;37.65;5.93;319.58;73.43;133.15;0.0;976.51;62.794;35.956703;-83.92427;831.66;NaN;;4.5;13.812316;235.7;12 / 17;184572;2022-10-17 16:44:31:836
0.3724;-5.4467;2.4048;-2.298;-8.6776;-3.9483;-0.7909;0.6155;5.1528;0.8727;-1.6818;-0.202;1.0;-13.09;38.81;-6.56;345.25;62.24;149.8;0.0;977.86;62.961;35.9567;-83.924286;829.36;NaN;;4.57;13.752534;243.8;12 / 17;185072;2022-10-17 16:44:32:336
-7.7318;-18.2767;-0.0837;-2.8843;-9.0837;2.3105;1.249;0.6975;-2.4538;-4.2315;-0.1287;-0.2368;9.0;-13.48;38.57;-2.53;7.65;75.47;89.99;0.0;977.71;64.565;35.9567;-83.924286;829.36;NaN;;4.57;13.752534;243.8;12 / 17;185572;2022-10-17 16:44:32:836
-7.1189;-5.6668;4.2796;-2.3858;-9.3183;-1.91;-0.9249;6.6461;1.5302;-0.3739;0.3987;-0.9538;1.0;-13.5;38.81;5.81;324.7;71.84;128.68;0.0;978.66;68.433;35.956696;-83.9243;826.89;NaN;;4.61;13.39875;239.6;12 / 17;186072;2022-10-17 16:44:33:336
-4.6026;-14.4341;-5.6249;-3.1322;-8.7418;3.1528;3.0208;-5.2289;-7.7087;-4.8293;-1.0713;0.0361;4.0;-13.58;39.04;-7.14;35.94;67.62;47.89;0.0;977.62;65.109;35.956696;-83.9243;826.89;NaN;;4.61;13.39875;239.6;12 / 17;186571;2022-10-17 16:44:33:835
1.063;-10.2574;-4.6134;-2.499;-8.7071;-3.7564;-0.2755;5.7829;8.1616;0.6619;0.9787;-0.9728;2.0;-12.11;37.26;6.3;328.06;54.5;153.22;0.0;977.46;68.239;35.956696;-83.92431;827.71;NaN;;4.64;13.700625;241.1;12 / 17;187071;2022-10-17 16:44:34:335
-5.3521;-14.3707;1.774;-2.5203;-9.4243;1.0003;0.614;-3.8663;-6.3031;-4.4847;-0.2244;0.0042;6.0;-13.97;37.97;-3.17;9.29;71.29;50.76;0.0;977.52;63.693;35.956696;-83.92431;827.71;NaN;;4.64;13.700625;241.1;12 / 17;187572;2022-10-17 16:44:34:836
-8.0847;-8.1891;-2.15;-2.7994;-8.9726;-2.7977;0.4257;-4.9024;1.8283;-0.4008;-0.1678;-0.4206;1.0;-13.59;38.1;2.19;333.91;66.2;134.98;0.0;978.26;66.088;35.956688;-83.92433;829.03;NaN;;5.04;13.938548;228.7;12 / 17;188072;2022-10-17 16:44:35:336
-4.6098;-15.2276;6.4352;-2.79;-9.0179;2.6577;0.7166;-2.0267;-5.4719;-4.1861;0.161;-0.0742;7.0;-13.56;38.29;-4.44;25.28;72.56;62.0;0.0;977.52;62.481;35.956688;-83.92433;829.03;NaN;;5.04;13.938548;228.7;12 / 17;188571;2022-10-17 16:44:35:835
-6.7011;-9.7223;3.3182;-1.6366;-9.4897;-1.8538;0.2949;-6.0254;4.0874;-0.6997;-0.056;-0.6079;7.0;-13.31;38.98;2.08;334.25;71.96;129.63;0.0;976.54;61.876;35.956688;-83.92434;829.0;NaN;;4.97;14.308342;242.0;12 / 17;189071;2022-10-17 16:44:36:335
-3.5324;-10.8751;-3.8139;-2.6882;-9.0587;-2.6238;-1.0603;-4.0034;8.6929;-3.8818;-0.5348;0.6445;4.0;-12.81;38.91;-7.8;38.43;70.01;51.15;0.0;977.97;61.936;35.956688;-83.92434;829.0;NaN;;4.97;14.308342;242.0;12 / 17;189571;2022-10-17 16:44:36:835
-8.6701;-5.6022;0.3245;-1.5401;-9.4355;-2.184;-5.3916;-0.6683;4.3597;1.6846;0.4319;1.176;1.0;-12.34;38.1;8.18;319.81;67.85;135.72;0.0;976.14;58.748;35.95668;-83.924355;827.12;NaN;;4.82;13.984905;249.7;12 / 17;190072;2022-10-17 16:44:37:336
-5.2705;-13.6499;-2.1727;-2.8901;-9.2883;-1.2432;1.1643;-4.6552;-8.7139;-4.4736;-0.1362;0.1356;3.0;-11.16;38.1;-11.51;48.4;64.37;39.12;0.0;978.14;65.101;35.95668;-83.924355;827.12;NaN;;4.82;13.984905;249.7;12 / 17;190573;2022-10-17 16:44:37:837
-6.3203;-7.6289;3.7612;-1.8541;-9.3524;-2.2947;-5.4293;1.5117;2.9878;0.4963;0.3402;-0.662;3.0;-10.76;39.77;2.38;335.62;67.74;136.95;0.0;976.11;61.575;35.956676;-83.92437;827.2;NaN;;4.79;13.722849;250.7;12 / 17;191072;2022-10-17 16:44:38:336
-4.3298;-12.0613;-2.9722;-2.7764;-9.3952;-0.4384;-1.2841;-4.3533;-4.5462;-4.2562;-0.6165;0.5861;6.0;-11.4;39.64;-11.16;44.2;64.83;40.67;0.0;977.97;65.588;35.956676;-83.92437;827.2;NaN;;4.79;13.722849;250.7;12 / 17;191572;2022-10-17 16:44:38:836
-6.1469;-13.3161;0.4753;-1.9387;-9.3047;-2.4156;3.371;-5.8426;-9.2288;-0.0217;-0.1635;-0.9034;2.0;-11.27;40.24;2.78;328.32;71.59;141.25;0.0;976.21;58.555;35.956673;-83.924385;828.26;NaN;;4.82;13.608509;254.3;12 / 17;192072;2022-10-17 16:44:39:336
-0.4872;-16.494;-6.5527;-2.0615;-9.4052;1.8608;1.6235;-5.7038;-7.0418;-4.3427;0.0722;-0.1691;6.0;-12.26;39.08;-12.04;52.73;66.25;33.71;0.0;978.09;60.978;35.956673;-83.924385;828.26;NaN;;4.82;13.608509;254.3;12 / 17;192571;2022-10-17 16:44:39:835
-2.5307;-12.0446;2.8466;-1.2505;-9.4796;-2.1779;-5.3969;2.6027;4.516;1.3092;1.2572;0.381;1.0;-12.83;39.45;6.71;305.11;75.16;150.14;0.0;975.98;63.336;35.956673;-83.92439;828.11;NaN;;4.79;13.37298;244.3;12 / 17;193072;2022-10-17 16:44:40:336
-2.8083;-13.6164;7.6959;-2.3142;-9.3649;1.7646;0.451;-4.4216;-8.1918;-4.0912;0.2001;0.0405;7.0;-11.94;39.73;-10.22;47.05;69.94;42.93;0.0;977.97;62.052;35.956673;-83.92439;828.11;NaN;;4.79;13.37298;244.3;12 / 17;193572;2022-10-17 16:44:40:836
-5.965;-10.1198;2.7185;-1.4827;-9.4433;-2.1899;-5.066;-0.3481;2.8278;0.7883;0.7846;-0.2835;3.0;-11.04;40.35;5.49;328.58;70.22;131.86;0.0;976.39;62.902;35.95667;-83.92441;826.77;NaN;;4.82;13.277535;260.3;12 / 17;194071;2022-10-17 16:44:41:335
-4.9116;-14.1754;-0.2752;-2.728;-8.7661;3.4473;0.9651;-3.3126;-4.6634;-0.3404;0.3619;-0.2654;4.0;-10.26;40.35;-10.89;42.93;63.37;38.36;0.0;977.81;59.806;35.95667;-83.92441;826.77;NaN;;4.82;13.277535;260.3;12 / 17;194572;2022-10-17 16:44:41:836
-10.7267;-11.1793;0.006;-2.8154;-8.7737;-3.3566;-0.3888;1.782;-3.7455;-0.0308;0.1896;-0.6569;0.0;-10.44;38.74;4.89;330.65;59.36;153.4;0.0;978.25;65.445;35.956665;-83.924416;826.43;NaN;;4.86;13.195033;241.9;12 / 17;195072;2022-10-17 16:44:42:336
-4.0878;-14.7284;3.2046;-2.454;-9.0152;2.9791;1.1339;-2.041;-5.661;-0.0566;0.8934;-0.1012;10.0;-10.39;38.36;-3.19;27.27;66.82;39.48;0.0;977.0;63.511;35.956665;-83.924416;826.43;NaN;;4.86;13.195033;241.9;12 / 17;195572;2022-10-17 16:44:42:836
-8.4619;-9.501;-0.7816;-1.8548;-9.3396;-2.3457;5.1053;-5.8912;-6.8274;-0.2227;0.0273;-1.2613;1.0;-10.72;37.84;6.41;323.07;65.33;147.49;0.0;978.91;67.001;35.956657;-83.92442;825.92;NaN;;4.68;12.936875;237.9;12 / 17;196072;2022-10-17 16:44:43:336
-0.6153;-13.6128;-7.2936;-2.3475;-8.939;3.2794;-0.4957;-0.4617;-2.5259;1.3911;0.1978;0.2011;15.0;-11.44;38.21;-1.54;23.42;74.63;56.52;0.0;977.52;59.253;35.956657;-83.92442;825.92;NaN;;4.68;12.936875;237.9;12 / 17;196572;2022-10-17 16:44:43:836
-2.0495;-8.2167;-8.6498;-2.6357;-9.0805;-2.6016;0.3149;-0.2354;-7.453;0.2144;-0.6115;-0.3938;0.0;-11.31;38.36;3.13;330.19;61.5;155.94;0.0;978.78;67.694;35.956654;-83.92444;825.16;NaN;;4.79;12.9773;258.0;12 / 17;197072;2022-10-17 16:44:44:336
0.25;-13.2503;-4.9092;-2.2485;-9.2882;2.2009;-0.859;0.4984;-3.7977;-1.552;0.7427;-0.0971;21.0;-11.76;39.24;-0.97;24.52;71.29;45.61;0.0;977.81;64.015;35.956654;-83.92444;825.16;NaN;;4.79;12.9773;258.0;12 / 17;197572;2022-10-17 16:44:44:836
-1.9582;-18.8429;4.4148;-2.3763;-9.2945;-2.0338;0.0666;4.2181;1.1983;1.8032;-0.7276;-0.1492;1.0;-11.57;39.69;-0.28;332.5;65.48;155.96;0.0;978.45;68.003;35.95665;-83.924446;824.45;NaN;;4.82;12.69534;241.4;12 / 17;198071;2022-10-17 16:44:45:335
-1.8075;-14.3671;-12.4205;-2.4333;-9.2551;2.143;0.4478;0.4824;-2.2253;-4.5497;-0.1364;-0.1513;13.0;-12.19;40.46;-2.46;24.73;70.69;48.63;0.0;977.55;60.553;35.95665;-83.924446;824.45;NaN;;4.82;12.69534;241.4;12 / 17;198572;2022-10-17 16:44:45:836
-2.3617;-12.2794;3.0739;-2.6282;-9.0583;-2.685;0.8682;4.9438;7.1896;-0.1094;-0.6802;-0.3757;0.0;-10.86;38.72;6.49;328.14;58.59;152.28;0.0;978.83;66.037;35.95664;-83.92446;823.04;NaN;;4.5;12.652921;244.7;12 / 17;199072;2022-10-17 16:44:46:336
-0.3269;-13.3639;-9.9057;-2.8623;-8.707;3.488;-0.1559;-0.859;-2.0784;-0.4893;0.7033;-0.1374;12.0;-11.02;39.6;-0.09;16.83;73.57;56.43;0.0;977.54;62.51;35.95664;-83.92446;823.04;NaN;;4.5;12.652921;244.7;12 / 17;199572;2022-10-17 16:44:46:836
-2.0841;-5.4299;-3.8091;-1.9269;-8.8716;-3.7084;0.3439;2.5117;-3.8586;1.2419;-1.6054;-0.331;0.0;-11.42;39.99;-2.32;336.72;67.99;154.46;0.0;978.18;61.249;35.95663;-83.92447;822.57;NaN;;4.79;12.949987;234.0;12 / 17;200072;2022-10-17 16:44:47:336
-3.0703;-10.9086;1.3286;-2.4106;-9.1395;2.6134;0.4032;0.2795;-0.7056;1.5046;0.0576;0.2728;15.0;-12.71;39.0;3.79;294.09;75.32;151.07;0.0;978.29;66.476;35.95663;-83.92447;822.57;NaN;;4.79;12.949987;234.0;12 / 17;200571;2022-10-17 16:44:47:835
-0.7337;-9.6709;-9.6793;-1.5633;-8.8904;-3.8324;0.7821;3.0473;5.6225;-0.7481;-1.7702;-0.2037;0.0;-11.62;40.33;-4.37;345.9;73.94;134.35;0.0;977.96;60.579;35.956623;-83.92448;820.94;NaN;;4.61;13.103107;242.5;12 / 17;201072;2022-10-17 16:44:48:336
-2.0853;-8.9216;0.3808;-2.3626;-9.2403;2.2815;0.142;0.4577;-2.9557;1.4623;0.2207;0.3913;14.0;-13.11;38.96;4.71;342.05;77.58;97.24;0.0;977.92;66.291;35.956623;-83.92448;820.94;NaN;;4.61;13.103107;242.5;12 / 17;201572;2022-10-17 16:44:48:836
-2.8071;-3.3637;1.6735;-1.494;-9.0718;-3.4119;-0.1864;2.6235;4.072;1.2306;-1.2686;-0.2468;0.0;-14.1;35.96;-4.03;333.25;67.68;156.35;0.0;977.91;62.926;35.956615;-83.9245;821.76;NaN;;4.68;12.829355;230.8;12 / 17;202072;2022-10-17 16:44:49:336
-2.7269;-10.0361;0.0072;-2.2106;-9.3721;1.8569;2.0161;0.2075;-6.0672;1.7314;1.4748;-0.0498;18.0;-17.66;33.34;3.99;322.71;77.06;128.24;0.0;977.54;61.165;35.956615;-83.9245;821.76;NaN;;4.68;12.829355;230.8;12 / 17;202572;2022-10-17 16:44:49:836
1.6627;-15.2504;-7.4336;-1.9429;-8.5697;-4.3538;2.2373;4.0887;7.0303;2.2994;-0.8521;-0.4335;0.0;-11.98;38.51;-1.61;337.78;60.91;155.95;0.0;977.83;69.652;35.956608;-83.92451;821.48;NaN;;4.57;12.542138;241.1;12 / 17;203072;2022-10-17 16:44:50:336
-3.5695;-8.5959;1.2532;-2.5214;-9.1361;2.5189;-0.4887;0.6944;-1.6792;1.5889;1.3728;-0.2725;20.0;-12.43;40.22;-1.57;25.1;68.69;45.03;0.0;977.95;60.39;35.956608;-83.92451;821.48;NaN;;4.57;12.542138;241.1;12 / 17;203571;2022-10-17 16:44:50:835
-2.6109;-3.3541;-0.2536;-1.9566;-8.6552;-4.1748;1.1505;4.3913;7.3306;0.0163;-1.7422;-0.1119;0.0;-11.57;40.33;-5.14;342.24;61.96;154.89;0.0;978.04;68.3;35.9566;-83.924515;819.41;NaN;;4.5;12.226105;244.0;12 / 17;204072;2022-10-17 16:44:51:336
-2.3163;-10.3615;0.5124;-2.5523;-9.1479;2.4437;-0.1767;0.8667;-2.3705;1.4298;-0.1719;0.4647;19.0;-12.39;40.86;-0.08;3.37;75.59;83.87;0.0;978.13;62.049;35.9566;-83.924515;819.41;NaN;;4.5;12.226105;244.0;12 / 17;204571;2022-10-17 16:44:51:835
0.6416;-13.4405;0.8907;-2.064;-8.7477;-3.9228;1.7307;2.6253;5.9855;0.0696;-0.3379;-0.5249;1.0;-11.91;40.63;-1.41;337.33;63.13;152.25;0.0;978.06;67.123;35.956593;-83.92453;822.29;NaN;;4.5;12.226105;235.6;12 / 17;205072;2022-10-17 16:44:52:336
-2.0614;-9.9488;0.5686;-2.4222;-9.2538;2.1611;0.7981;0.1251;-1.4959;1.6964;0.185;0.1114;22.0;-12.97;41.53;-2.96;27.23;70.67;48.26;0.0;977.86;61.542;35.956593;-83.92453;822.29;NaN;;4.5;12.226105;235.6;12 / 17;205572;2022-10-17 16:44:52:836
-2.8167;-8.8427;-9.6266;-2.2403;-9.1115;-2.8518;-0.5981;5.4277;1.8763;1.8535;-0.572;-0.0124;0.0;-12.69;40.56;-2.14;335.35;63.75;156.92;0.0;977.84;65.529;35.956585;-83.92454;820.49;NaN;;4.64;12.226105;246.5;12 / 17;206072;2022-10-17 16:44:53:336
-0.6404;-14.0988;-0.8548;-2.1447;-9.4917;1.2159;1.6863;0.513;-4.3802;0.956;0.5847;0.1096;21.0;-14.02;40.26;5.79;321.96;75.07;128.87;0.0;978.14;60.807;35.956585;-83.92454;820.49;NaN;;4.64;12.226105;246.5;12 / 17;206573;2022-10-17 16:44:53:837
-2.0949;-4.1824;-3.1675;-1.7838;-8.69;-4.1799;1.9993;1.4665;5.1356;0.8046;-1.5338;-0.2139;0.0;-11.94;39.68;-3.88;339.97;62.39;156.89;0.0;977.94;68.312;35.956577;-83.92455;819.01;NaN;;4.61;12.226105;242.4;11 / 17;207072;2022-10-17 16:44:54:336
-1.8434;-10.6466;-0.917;-2.2352;-9.5204;0.7319;3.3071;-0.6935;-0.6428;1.2235;0.096;0.3753;22.0;-12.19;38.78;4.76;357.34;76.12;71.87;0.0;978.07;60.537;35.956577;-83.92455;819.01;NaN;;4.61;12.226105;242.4;11 / 17;207571;2022-10-17 16:44:54:835
1.9439;-14.7464;-8.572;-2.272;-8.4467;-4.4341;-0.4328;5.5562;7.0367;0.8129;-1.4225;-0.3814;0.0;-10.93;38.64;5.38;329.27;59.47;152.87;0.0;977.91;68.708;35.95657;-83.92456;819.43;NaN;;4.57;12.226105;244.3;11 / 17;208073;2022-10-17 16:44:55:337
-1.3167;-11.6856;-4.465;-2.4185;-9.2076;2.354;-0.2115;0.8643;-1.761;1.778;0.2511;0.2536;22.0;-12.47;39.06;7.63;343.16;76.03;83.61;0.0;978.1;63.494;35.95657;-83.92456;819.43;NaN;;4.57;12.226105;244.3;11 / 17;208572;2022-10-17 16:44:55:836
-2.8801;-3.7193;-3.1017;-1.9953;-8.6927;-4.0776;0.9644;2.3365;4.8348;1.3637;-1.3052;-0.405;0.0;-12.21;39.77;-1.09;340.45;69.32;136.42;0.0;978.04;68.207;35.956566;-83.924576;819.4;NaN;;4.61;12.226105;250.4;11 / 17;209072;2022-10-17 16:44:56:336
-1.2604;-12.1179;-3.5779;-2.3866;-9.4373;1.188;4.1779;-1.2495;-2.1663;1.6147;0.2673;0.0928;25.0;-13.74;38.66;7.26;304.67;77.33;145.29;0.0;977.84;64.029;35.956566;-83.924576;819.4;NaN;;4.61;12.226105;250.4;11 / 17;209572;2022-10-17 16:44:56:836
-3.2273;-2.4395;-0.1196;-1.2298;-9.2764;-2.9338;-1.6383;-0.2967;1.1729;-0.8737;-2.0512;-0.0571;10.0;-12.84;39.64;-9.36;341.6;71.07;157.26;0.0;978.08;59.577;35.95656;-83.92458;818.79;NaN;;4.57;12.226105;248.4;11 / 17;210072;2022-10-17 16:44:57:336
-2.4658;-7.2254;-0.8186;-2.227;-9.4991;-0.9887;-1.3368;-1.9822;5.515;1.9027;1.1142;0.031;25.0;-14.25;39.26;6.09;330.49;75.61;113.94;0.0;977.0;63.68;35.95656;-83.92458;818.79;NaN;;4.57;12.226105;248.4;11 / 17;210572;2022-10-17 16:44:57:836
-2.2313;-4.7716;3.2512;-1.7232;-9.2129;-2.8849;-0.7005;-0.365;1.545;-1.6961;-0.4493;-0.8723;11.0;-10.87;40.43;-9.06;18.65;74.71;97.48;0.0;978.37;55.686;35.95655;-83.9246;818.3;NaN;;4.57;12.226105;248.1;11 / 17;211071;2022-10-17 16:44:58:335
-2.8502;-7.8957;-2.6025;-2.4915;-9.4603;-0.6816;-0.6211;-2.1251;4.1603;2.0376;0.7497;-0.2076;36.0;-14.04;38.83;9.11;303.28;72.32;150.67;0.0;976.58;60.64;35.95655;-83.9246;818.3;NaN;;4.57;12.226105;248.1;11 / 17;211572;2022-10-17 16:44:58:836
-0.7588;-4.5129;3.1759;-1.9312;-8.6908;-4.1123;0.192;0.021;3.5874;-1.736;1.0446;-0.8401;3.0;-11.25;41.18;-3.22;353.4;68.81;120.02;0.0;978.15;60.67;35.956543;-83.92461;823.69;NaN;;4.5;12.226105;245.9;11 / 17;212071;2022-10-17 16:44:59:335
-2.8119;-7.4779;-0.8883;-2.6011;-9.4536;-0.1849;1.6588;-2.5835;2.2502;2.2242;0.3388;0.2898;38.0;-12.58;40.13;10.35;303.85;72.08;147.38;0.0;976.15;63.445;35.956543;-83.92461;823.69;NaN;;4.5;12.226105;245.9;11 / 17;212572;2022-10-17 16:44:59:836
0.6344;-8.4428;-0.5997;-2.3635;-9.3236;-1.9117;-2.0761;-6.2706;2.2828;-1.165;-1.4023;-0.5605;20.0;-11.79;42.71;-6.71;33.43;67.82;47.67;0.0;978.28;63.938;35.95654;-83.92462;820.89;NaN;;4.5;12.226105;235.7;11 / 17;213072;2022-10-17 16:45:00:336
0.6691;-8.6091;2.2361;-2.1061;-9.5197;-1.0538;-4.2276;1.1138;2.7236;1.281;-0.7277;0.9678;45.0;-14.01;40.46;10.59;308.1;72.07;136.47;0.0;976.34;60.377;35.95654;-83.92462;820.89;NaN;;4.5;12.226105;235.7;11 / 17;213572;2022-10-17 16:45:00:836
-2.7138;-10.5329;-1.3119;-2.5643;-8.8197;-3.4364;-0.5915;-0.8004;2.8841;-1.5388;-0.0801;-0.2547;3.0;-9.86;43.37;-0.36;354.27;73.21;102.62;0.0;978.01;65.213;35.956535;-83.92463;821.83;NaN;;4.57;12.226105;247.8;11 / 17;214072;2022-10-17 16:45:01:336
0.8282;-8.6163;-4.0663;-1.9711;-9.5763;-0.7619;-2.3298;-0.5916;4.0092;1.1673;0.0735;0.5794;36.0;-12.39;38.68;15.62;282.63;74.0;146.74;0.0;976.67;62.755;35.956535;-83.92463;821.83;NaN;;4.57;12.226105;247.8;11 / 17;214572;2022-10-17 16:45:01:836
-5.5017;-12.7929;6.6712;-2.3144;-9.5119;-0.5816;-3.4402;-4.7249;-2.2398;-1.8971;1.5551;-0.1924;5.0;-12.17;41.79;-2.32;24.14;64.5;39.31;0.0;977.59;65.022;35.95653;-83.924644;828.16;NaN;;4.39;12.226105;255.9;11 / 17;215072;2022-10-17 16:45:02:336
-0.0538;-11.281;3.2333;-1.6121;-9.4524;-2.0553;-4.4277;2.792;5.9192;2.5435;-0.669;0.6157;29.0;-13.33;37.61;16.37;293.15;69.72;142.89;0.0;977.96;62.7;35.95653;-83.924644;828.16;NaN;;4.39;12.226105;255.9;11 / 17;215572;2022-10-17 16:45:02:836
-4.7907;-11.5983;-0.5267;-2.745;-9.2907;-1.5226;-3.4206;-5.1436;5.2275;-2.2366;0.9734;-0.0305;5.0;-11.51;41.57;-0.86;20.11;64.89;45.48;0.0;977.32;66.234;35.956528;-83.92466;834.08;NaN;;4.46;12.226105;249.2;11 / 17;216072;2022-10-17 16:45:03:336
-1.5957;-12.3356;1.6831;-1.4853;-9.5346;-1.7478;-5.8235;2.4651;6.5585;2.2355;-0.6277;1.1177;29.0;-13.63;38.34;12.71;295.94;73.05;142.86;0.0;977.39;67.985;35.956528;-83.92466;834.08;NaN;;4.46;12.226105;249.2;11 / 17;216572;2022-10-17 16:45:03:836
-4.1776;-16.2392;8.7218;-2.6911;-9.3781;0.9892;1.1263;-4.297;-8.9963;-2.2081;0.7465;-0.0447;8.0;-11.94;40.16;-2.98;17.95;73.0;69.82;0.0;977.55;61.408;35.956528;-83.924675;835.91;NaN;;4.46;12.226105;244.0;11 / 17;217072;2022-10-17 16:45:04:336
-0.3867;-12.0506;2.1619;-2.1627;-9.4973;-1.1376;-6.4979;1.4649;3.4348;1.9459;-1.353;1.2459;25.0;-15.06;34.13;14.25;307.78;75.57;117.75;0.0;976.95;63.62;35.956528;-83.924675;835.91;NaN;;4.46;12.226105;244.0;11 / 17;217572;2022-10-17 16:45:04:836
-0.7756;-6.8794;0.62;-2.3403;-9.5149;-0.4009;-1.6152;-4.9472;-3.4756;-3.935;-0.5463;-0.1196;4.0;-12.64;36.06;2.06;18.32;64.03;42.32;0.0;977.33;62.273;35.956524;-83.92469;833.73;NaN;;4.64;12.226105;262.1;11 / 17;218072;2022-10-17 16:45:05:336
-4.4243;-10.9723;4.1465;-1.7463;-9.5174;-1.5937;-4.0151;2.7463;5.2811;1.4504;-0.3935;0.9118;29.0;-13.65;30.24;11.72;296.87;70.94;140.9;0.0;977.54;69.3;35.956524;-83.92469;833.73;NaN;;4.64;12.226105;262.1;11 / 17;218572;2022-10-17 16:45:05:836
-6.4364;-14.7739;5.1855;-2.4984;-9.4376;0.9273;0.4366;-4.539;-8.0722;-4.4419;0.0631;-0.0459;4.0;-10.78;32.66;-5.29;26.31;74.23;69.64;0.0;977.22;58.925;35.95652;-83.924706;834.0;NaN;;4.61;12.226105;246.7;11 / 17;219073;2022-10-17 16:45:06:337
-6.3251;-7.654;4.593;-1.2226;-9.4646;-2.2578;-6.5768;3.9775;5.2431;1.8496;-1.7464;1.2134;26.0;-12.64;34.54;6.58;316.85;71.21;135.67;0.0;978.32;66.29;35.95652;-83.924706;834.0;NaN;;4.61;12.226105;246.7;11 / 17;219571;2022-10-17 16:45:06:835
-7.6014;-14.301;3.262;-2.0258;-9.2624;2.505;0.6414;-4.4261;-5.5574;-1.9172;1.7474;-0.4113;5.0;-12.15;36.71;-8.62;47.65;68.96;38.43;0.0;977.14;59.87;35.956516;-83.92471;833.39;NaN;;4.57;12.226105;235.2;11 / 17;220072;2022-10-17 16:45:07:336
-1.6101;-11.0429;4.1381;-1.4041;-9.5077;-1.95;-4.7641;-1.6422;2.8235;0.8308;0.5979;-0.2881;22.0;-13.65;38.7;7.91;315.24;70.86;138.41;0.0;978.04;68.153;35.956516;-83.92471;833.39;NaN;;4.57;12.226105;235.2;11 / 17;220571;2022-10-17 16:45:07:835
-0.3772;-14.9285;7.8012;-2.1111;-9.4895;-1.2893;0.168;-4.8537;9.9001;-1.2422;1.7754;-0.9758;7.0;-13.63;40.95;-9.08;0.83;75.39;121.41;0.0;976.64;59.166;35.956512;-83.92473;834.2;NaN;;4.54;12.226105;239.2;11 / 17;221072;2022-10-17 16:45:08:336
-0.0407;-13.0525;-2.077;-2.3469;-8.7616;-3.728;-0.9672;-1.0377;-1.7204;2.2319;0.458;0.1804;4.0;-13.18;39.75;14.03;306.32;63.31;147.81;0.0;978.77;56.139;35.956512;-83.92473;834.2;NaN;;4.54;12.226105;239.2;11 / 17;221572;2022-10-17 16:45:08:836
-2.3689;-15.7185;-3.3218;-2.2804;-8.6807;3.9517;-0.231;-2.2694;-3.5236;1.9733;0.1656;0.3364;25.0;-13.52;41.66;-3.81;38.79;74.87;39.57;0.0;978.14;60.266;35.956505;-83.924736;836.17;NaN;;4.57;12.226105;246.2;11 / 17;222072;2022-10-17 16:45:09:336
-1.5359;-10.7877;-1.6771;-2.0458;-9.1085;-3.0035;0.9466;3.2734;-0.069;0.9872;-1.1798;-0.6762;0.0;-12.34;42.36;-0.37;336.17;61.4;154.82;0.0;978.28;61.412;35.956505;-83.924736;836.17;NaN;;4.57;12.226105;246.2;11 / 17;222572;2022-10-17 16:45:09:836
-0.1125;-14.665;-2.0052;-2.6562;-8.8528;3.2776;-0.545;-2.8174;-6.4636;-0.0888;0.4668;0.2072;37.0;-13.61;41.74;7.73;6.88;74.94;48.96;0.0;977.59;64.504;35.956505;-83.92475;839.83;NaN;;4.82;12.226105;267.1;11 / 17;223074;2022-10-17 16:45:10:338
-1.4127;-16.5431;-9.5632;-2.8302;-8.4211;-4.1528;-0.1238;7.2651;7.0035;2.1324;-0.9302;0.1461;2.0;-9.23;42.84;0.83;338.63;63.91;153.45;0.0;978.15;69.686;35.956505;-83.92475;839.83;NaN;;4.82;12.226105;267.1;11 / 17;223572;2022-10-17 16:45:10:836
-1.8099;-8.7888;1.2461;-2.6866;-9.093;2.5041;0.3783;-0.2538;-1.4862;1.6424;-0.6225;0.269;33.0;-8.19;44.38;2.59;357.33;74.42;75.7;0.0;977.52;61.828;35.9565;-83.92477;837.35;NaN;;4.64;12.450037;251.5;11 / 17;224071;2022-10-17 16:45:11:335
4.3729;-16.3134;-6.7753;-2.8766;-9.1768;-1.919;-0.1162;-0.467;-6.2299;0.46;-0.7106;-0.4474;0.0;-9.21;41.55;4.5;331.97;61.35;156.61;0.0;978.14;70.393;35.9565;-83.92477;837.35;NaN;;4.64;12.450037;251.5;11 / 17;224571;2022-10-17 16:45:11:835
-2.2588;-10.3591;0.2058;-2.3287;-9.4269;1.3715;1.6787;0.0898;-3.2657;2.1712;-0.2062;-0.0337;23.0;-8.55;42.47;5.94;358.43;74.0;59.5;0.0;977.5;56.131;35.9565;-83.92478;836.65;NaN;;4.36;12.226105;259.1;11 / 16;225072;2022-10-17 16:45:12:336
0.2862;-14.2412;-0.079;-2.4333;-9.1685;-2.4877;-0.765;5.5122;2.8043;2.585;-0.1438;0.1548;1.0;-7.97;40.74;9.43;318.89;69.22;135.63;0.0;977.82;65.313;35.9565;-83.92478;836.65;NaN;;4.36;12.226105;259.1;11 / 16;225572;2022-10-17 16:45:12:836
-2.3103;-9.7367;0.067;-2.6598;-9.2952;1.6418;1.0275;0.6297;-3.6422;-0.3315;0.482;-0.0874;21.0;-7.48;41.4;8.93;350.26;71.41;58.31;0.0;977.91;58.33;35.956497;-83.9248;838.4;NaN;;4.36;12.706711;258.5;11 / 17;226071;2022-10-17 16:45:13:335
-4.0041;-11.0824;-10.3543;-2.2949;-8.9736;-3.2216;-0.8901;5.6598;4.5965;2.4001;-0.5407;-0.1143;1.0;-5.27;38.29;10.61;313.1;66.21;144.54;0.0;977.73;63.065;35.956497;-83.9248;838.4;NaN;;4.36;12.706711;258.5;11 / 17;226574;2022-10-17 16:45:13:838
-1.3107;-10.1342;1.5215;-1.9885;-9.2811;2.4651;0.4408;0.2927;-1.9484;1.9202;0.6235;-0.0579;23.0;-1.11;36.13;11.91;304.45;77.28;93.16;0.0;977.98;62.969;35.95649;-83.924805;836.0;NaN;;4.79;12.424399;234.5;11 / 17;227072;2022-10-17 16:45:14:336
-4.4243;-17.7428;0.7325;-2.1947;-9.3763;-1.8544;0.1811;3.9101;0.1958;1.7363;0.0564;-0.0898;1.0;0.04;37.13;7.33;346.62;61.48;155.83;0.0;977.87;66.565;35.95649;-83.924805;836.0;NaN;;4.79;12.424399;234.5;11 / 17;227572;2022-10-17 16:45:14:836
-0.3568;-14.9704;-3.2788;-2.1014;-9.372;1.9801;-0.7436;1.711;-2.3484;-1.3205;0.4167;-0.453;28.0;-5.94;40.54;8.74;324.85;76.97;97.9;0.0;977.97;61.243;35.95648;-83.92483;836.01;NaN;;4.5;12.362556;232.6;11 / 17;228072;2022-10-17 16:45:15:336
0.8354;-16.6271;-9.3993;-1.9023;-9.2451;-2.6606;-0.4757;5.1692;1.6495;2.1555;-0.3692;0.0056;1.0;-10.58;40.16;8.01;316.64;64.79;158.53;0.0;978.01;66.744;35.95648;-83.92483;836.01;NaN;;4.5;12.362556;232.6;11 / 17;228571;2022-10-17 16:45:15:835
-1.1444;-12.9652;-3.4499;-2.1589;-9.2314;2.5083;4.5384;-2.8805;-1.0153;-0.0195;0.5525;0.1283;24.0;-13.99;40.67;4.07;17.56;70.28;40.72;0.0;977.76;63.32;35.956467;-83.924835;836.67;NaN;;4.57;12.226105;232.8;11 / 17;229072;2022-10-17 16:45:16:336
3.1807;-17.3393;-5.0169;-1.9098;-8.9289;-3.5773;-1.0925;6.9493;6.3818;0.7612;-0.7038;-0.0819;0.0;-13.78;37.84;8.18;313.49;65.57;151.9;0.0;977.98;67.51;35.956467;-83.924835;836.67;NaN;;4.57;12.226105;232.8;11 / 17;229572;2022-10-17 16:45:16:836
-2.4945;-9.6087;0.9075;-1.8814;-9.2679;2.5957;-0.6796;-0.4358;-2.1825;1.3591;0.2209;0.0589;23.0;-13.72;38.1;8.19;358.88;78.32;61.88;0.0;977.69;62.813;35.95646;-83.92485;836.15;NaN;;4.54;12.361399;228.6;11 / 17;230072;2022-10-17 16:45:17:336
-2.0219;-7.9424;-6.6293;-2.4089;-9.2033;-2.3805;-0.4816;4.172;0.4156;1.6394;-5.0E-4;-0.1662;1.0;-11.96;38.93;2.89;328.78;64.69;150.46;0.0;977.92;66.462;35.95646;-83.92485;836.15;NaN;;4.54;12.361399;228.6;11 / 17;230572;2022-10-17 16:45:17:836
-3.3194;-10.1366;-2.4586;-2.06;-9.4202;1.7853;1.7555;0.1167;-2.789;1.229;0.7022;-0.257;16.0;-11.34;39.73;0.71;18.1;73.86;49.09;0.0;977.54;64.45;35.956448;-83.924866;835.83;NaN;;4.46;12.356272;228.8;11 / 17;231072;2022-10-17 16:45:18:336
-3.0069;-11.0656;-11.9788;-1.9804;-8.9116;-3.5822;-1.404;7.4147;6.4608;1.7442;-1.0073;0.1285;1.0;-11.91;40.31;0.3;334.45;65.33;151.06;0.0;978.21;68.784;35.956448;-83.924866;835.83;NaN;;4.46;12.356272;228.8;11 / 17;231572;2022-10-17 16:45:18:836
-3.3529;-7.552;0.626;-2.424;-9.4532;0.9653;5.4651;-1.6602;-2.8815;1.2212;0.051;0.4194;32.0;-13.33;41.34;3.53;321.05;75.71;139.21;0.0;977.43;61.339;35.95644;-83.92488;836.22;NaN;;4.82;12.394184;252.3;11 / 17;232072;2022-10-17 16:45:19:336
3.7708;-17.63;-9.5501;-1.9246;-8.86;-3.7372;-0.3505;5.1106;5.9541;0.0505;-1.5121;-0.207;1.0;-11.68;42.13;-3.24;339.88;64.62;152.75;0.0;978.12;60.688;35.95644;-83.92488;836.22;NaN;;4.82;12.394184;252.3;11 / 17;232572;2022-10-17 16:45:19:836
-2.7568;-7.8263;-1.6651;-2.1311;-9.3705;1.9553;-0.1301;1.8369;-2.9341;1.8392;0.6794;-0.1193;33.0;-13.22;40.99;6.73;338.86;76.93;95.47;0.0;977.67;60.845;35.956436;-83.9249;836.12;NaN;;4.39;12.356014;230.0;11 / 17;233072;2022-10-17 16:45:20:336
-3.6437;-2.0183;2.6695;-1.8475;-9.4047;-2.0758;-1.8659;5.7527;2.5192;0.9469;-1.3322;0.118;1.0;-12.38;41.19;-4.69;336.97;67.54;162.55;0.0;978.04;61.612;35.956436;-83.9249;836.12;NaN;;4.39;12.356014;230.0;11 / 17;233572;2022-10-17 16:45:20:836
-2.2181;-7.7976;1.2221;-2.1688;-9.3835;1.8487;1.7474;0.0802;-4.1332;2.2789;1.2193;-0.108;36.0;-12.97;42.15;0.84;342.43;79.0;113.57;0.0;977.59;61.221;35.956432;-83.924904;837.36;NaN;;4.61;12.619438;254.3;11 / 17;234072;2022-10-17 16:45:21:336
-3.1089;-4.8637;-3.0811;-2.3374;-8.7457;-3.7709;0.0884;6.1142;6.2785;-0.6972;-1.5244;-0.1882;0.0;-8.38;43.11;-3.04;346.88;66.52;149.81;0.0;978.19;60.83;35.956432;-83.924904;837.36;NaN;;4.61;12.619438;254.3;11 / 17;234571;2022-10-17 16:45:21:835
-1.7118;-8.6653;0.9505;-2.3852;-9.4874;-0.6856;-1.4479;-1.0967;4.1915;1.4313;0.366;0.273;35.0;-8.61;44.55;9.28;316.4;70.48;143.77;0.0;977.95;60.896;35.956425;-83.92492;836.14;NaN;;4.68;12.599528;235.1;11 / 17;235072;2022-10-17 16:45:22:336
-2.1966;-1.2879;3.5001;-1.8913;-8.6975;-4.1167;0.3474;-1.3349;2.5873;-1.9893;-1.3126;-0.8104;0.0;-6.66;46.44;-5.57;5.6;71.44;116.38;0.0;978.48;70.953;35.956425;-83.92492;836.14;NaN;;4.68;12.599528;235.1;11 / 17;235572;2022-10-17 16:45:22:836
-3.0715;-6.7322;1.13;-2.3124;-9.4839;0.9377;1.301;0.2226;-4.2686;1.5618;0.4516;-0.0192;32.0;-10.31;46.88;11.04;311.86;73.42;132.63;0.0;977.83;57.612;35.956417;-83.924934;836.7;NaN;;4.54;12.779607;251.5;11 / 17;236071;2022-10-17 16:45:23:335
0.2237;-6.4774;1.3047;-2.0029;-8.7964;-3.8448;-1.6422;-1.4137;2.8065;-1.6558;0.0928;-0.4594;1.0;-9.92;46.71;4.78;331.91;63.76;152.48;0.0;978.37;68.561;35.956417;-83.924934;836.7;NaN;;4.54;12.779607;251.5;11 / 17;236571;2022-10-17 16:45:23:835
-2.1272;-8.6043;-0.8067;-2.5057;-9.4591;0.646;4.4655;-1.5816;-1.8287;1.1811;0.4182;0.9064;39.0;-12.24;39.24;13.84;336.99;74.7;75.54;0.0;978.33;57.297;35.956417;-83.92495;837.2;NaN;;4.61;12.706394;266.5;11 / 17;237072;2022-10-17 16:45:24:336
0.0359;-6.7011;1.896;-2.0807;-8.4915;-4.4424;0.9157;3.8159;7.1488;-1.9375;-1.1385;-0.8179;1.0;-11.51;40.05;1.16;336.81;68.62;135.78;0.0;977.85;62.404;35.956417;-83.92495;837.2;NaN;;4.61;12.706394;266.5;11 / 17;237572;2022-10-17 16:45:24:836
1.6723;-12.1059;-3.1053;-2.4829;-9.4844;0.2257;0.7653;-2.1858;3.5177;1.5351;0.7154;-0.2895;36.0;-12.02;36.92;15.47;291.38;71.49;142.83;0.0;978.09;63.274;35.956417;-83.924965;839.04;NaN;;4.61;12.804404;255.2;11 / 17;238072;2022-10-17 16:45:25:336
-3.4989;-2.4467;3.2824;-0.8461;-8.996;-3.8115;0.0837;2.457;5.0403;-2.1379;-0.4626;-0.8118;0.0;-12.6;40.07;-5.31;350.98;74.71;126.57;0.0;978.03;68.697;35.956417;-83.924965;839.04;NaN;;4.61;12.804404;255.2;11 / 17;238572;2022-10-17 16:45:25:836
2.6838;-9.6494;0.7086;-2.0951;-9.5697;-0.4494;-1.1744;-1.482;4.012;2.2117;1.0104;-0.0328;24.0;-14.87;38.83;6.0;337.36;77.38;102.11;0.0;977.92;60.541;35.95641;-83.92499;839.14;NaN;;4.43;12.938236;253.2;11 / 17;239071;2022-10-17 16:45:26:335
-2.3258;-6.7633;-7.8072;-1.9451;-8.6655;-4.1588;2.508;2.6707;5.77;2.5156;-0.9389;-0.1949;1.0;-10.95;40.56;-4.91;354.93;69.65;125.18;0.0;977.89;67.458;35.95641;-83.92499;839.14;NaN;;4.43;12.938236;253.2;11 / 17;239572;2022-10-17 16:45:26:836
-2.3306;-7.5006;0.0574;-2.5421;-9.4712;-0.0721;0.1238;-2.1715;1.9781;1.3781;-0.0774;-0.0202;41.0;-12.04;41.33;-1.39;1.7;74.97;91.62;0.0;977.91;59.562;35.956406;-83.925;838.99;NaN;;4.57;13.170779;244.0;11 / 17;240071;2022-10-17 16:45:27:335
-2.2804;-3.4068;0.5411;-1.9918;-8.6719;-4.1233;2.0393;2.002;5.5525;1.8047;-1.1918;-0.2674;0.0;-10.52;40.97;-4.59;353.89;69.52;127.43;0.0;978.25;64.768;35.956406;-83.925;838.99;NaN;;4.57;13.170779;244.0;11 / 17;240572;2022-10-17 16:45:27:836
-1.7249;-7.7521;0.2249;-2.2551;-9.5253;-0.5946;-1.672;-1.1299;3.741;1.994;0.9114;-0.2636;48.0;-12.17;40.22;6.26;335.34;76.24;104.77;0.0;977.93;62.436;35.956394;-83.92502;839.2;NaN;;4.46;13.0405;245.5;11 / 17;241071;2022-10-17 16:45:28:335
-2.7233;-3.8067;-2.0243;-1.4901;-8.8284;-4.0011;1.3343;0.6;2.109;-1.4289;-2.169;-0.151;1.0;-11.77;40.5;-2.36;335.65;64.19;159.57;0.0;978.53;65.142;35.956394;-83.92502;839.2;NaN;;4.46;13.0405;245.5;11 / 17;241573;2022-10-17 16:45:28:837
-2.0806;-8.0728;-3.134;-2.4106;-9.2646;2.1277;0.4944;1.3987;-3.0187;1.5867;0.5727;0.0139;42.0;-13.41;40.84;6.84;337.08;75.56;99.68;0.0;977.79;65.051;35.95639;-83.92503;838.41;NaN;;4.97;12.761833;252.5;11 / 17;242072;2022-10-17 16:45:29:336
-2.9351;-13.2431;-16.0083;-1.7809;-8.5311;-4.4966;0.2757;5.0251;9.4782;1.8148;-0.9318;-0.5028;0.0;-13.67;41.16;-6.0;337.37;71.92;153.7;0.0;978.44;66.911;35.95639;-83.92503;838.41;NaN;;4.97;12.761833;252.5;11 / 17;242572;2022-10-17 16:45:29:836
-1.4557;-11.0943;-1.1874;-1.4273;-9.3154;2.7122;-1.0586;0.6811;-2.5316;1.361;0.1695;0.4954;12.0;-17.01;39.84;2.7;11.64;81.94;64.7;0.0;977.79;61.951;35.956387;-83.92505;837.4;NaN;;4.61;12.79609;254.6;11 / 17;243071;2022-10-17 16:45:30:335
-1.6687;-2.6157;2.91;-1.8364;-8.3123;-4.8687;1.2728;3.9663;7.1685;0.7229;-1.227;-0.3329;0.0;-15.73;39.11;1.84;318.85;68.49;158.97;0.0;978.17;61.542;35.956387;-83.92505;837.4;NaN;;4.61;12.79609;254.6;11 / 17;243572;2022-10-17 16:45:30:836
-1.0726;-9.8219;2.0076;-0.7405;-9.7784;0.0672;3.362;-1.2043;-0.0422;1.7489;0.7179;-0.0819;12.0;-17.59;39.09;10.56;336.85;85.65;84.82;0.0;977.68;62.685;35.956383;-83.92506;836.52;NaN;;4.68;12.667821;249.8;11 / 17;244071;2022-10-17 16:45:31:335
-2.0219;-8.9527;-9.8698;-1.3549;-8.5736;-4.5637;1.5673;2.998;6.484;-0.4438;-1.496;-0.2201;0.0;-16.67;39.34;6.17;315.2;60.96;163.46;0.0;978.16;62.014;35.956383;-83.92506;836.52;NaN;;4.68;12.667821;249.8;11 / 17;244572;2022-10-17 16:45:31:836
-2.0363;-9.6649;0.6033;-1.4436;-9.5011;1.9534;-0.0542;1.4323;-2.3533;1.5948;-0.1071;-0.097;20.0;-16.74;38.33;11.44;329.68;80.32;96.25;0.0;977.76;62.133;35.95638;-83.92507;837.11;NaN;;4.68;12.59168;244.5;11 / 17;245072;2022-10-17 16:45:32:336
-2.7138;-3.0885;1.1228;-0.9002;-8.9833;-3.829;0.2952;2.1015;4.7085;1.4635;-1.0676;-0.2155;1.0;-16.76;41.04;1.16;318.73;66.35;166.77;0.0;978.12;64.016;35.95638;-83.92507;837.11;NaN;;4.68;12.59168;244.5;11 / 17;245574;2022-10-17 16:45:32:838
-0.2309;-8.2633;-0.827;-1.1305;-9.7341;0.3744;3.2607;-1.2656;-1.063;1.7009;0.0582;-0.1293;23.0;-19.43;38.12;11.25;350.23;83.03;71.67;0.0;977.83;61.604;35.95637;-83.92509;839.06;NaN;;4.72;13.277683;236.1;11 / 17;246073;2022-10-17 16:45:33:337
-2.892;-3.7899;-3.1244;-1.2632;-8.7691;-4.2044;1.0764;1.8715;5.2457;-0.8201;-1.508;-0.088;1.0;-18.73;40.52;-0.88;328.56;73.89;141.82;0.0;978.12;60.437;35.95637;-83.92509;839.06;NaN;;4.72;13.277683;236.1;11 / 17;246571;2022-10-17 16:45:33:835
-1.0798;-8.7123;-0.8258;-1.6082;-9.6326;0.8925;3.076;-0.3219;-1.9914;1.3204;0.0435;0.1626;39.0;-19.03;39.15;9.68;287.05;77.07;158.22;0.0;977.97;62.157;35.956364;-83.9251;838.71;NaN;;4.72;13.510272;244.0;11 / 17;247073;2022-10-17 16:45:34:337
