sep=;
ACCELEROMETER X (m/s²);ACCELEROMETER Y (m/s²);ACCELEROMETER Z (m/s²);GRAVITY X (m/s²);GRAVITY Y (m/s²);GRAVITY Z (m/s²);LINEAR ACCELERATION X (m/s²);LINEAR ACCELERATION Y (m/s²);LINEAR ACCELERATION Z (m/s²);GYROSCOPE X (rad/s);GYROSCOPE Y (rad/s);GYROSCOPE Z (rad/s);LIGHT (lux);MAGNETIC FIELD X (μT);MAGNETIC FIELD Y (μT);MAGNETIC FIELD Z (μT);ORIENTATION Z (azimuth °);ORIENTATION X (pitch °);ORIENTATION Y (roll °);PROXIMITY (i);ATMOSPHERIC PRESSURE (hPa);SOUND LEVEL (dB);LOCATION Latitude : ;LOCATION Longitude : ;LOCATION Altitude ( m);LOCATION Altitude-google ( m);LOCATION Altitude-atmospheric pressure ( m);LOCATION Speed ( Kmh);LOCATION Accuracy ( m);LOCATION ORIENTATION (°);Satellites in range;Time since start in ms ;YYYY-MO-DD HH-MI-SS_SSS
-0.9529;3.5288;8.2801;-0.9066;3.431;9.1421;0.1186;-0.0157;0.1934;-0.115;-0.5701;-0.1979;295.0;21.09;5.4;-11.31;298.66;-22.26;10.56;2.0;990.11;56.806;35.958614;-83.92503;825.32;NaN;;1.3;44.881344;338.0;4 / 16;16;2022-10-02 18:09:00:359
-0.9135;2.6551;9.4173;-0.5874;3.1217;9.278;0.2225;0.6603;0.274;-0.1562;0.0926;0.0551;422.0;14.23;9.17;-19.59;320.04;-18.56;3.62;2.0;990.15;55.65;35.958584;-83.92501;787.11;NaN;;1.08;20.767517;5.5;4 / 16;516;2022-10-02 18:09:00:859
-3.3087;1.8338;8.645;-1.3748;0.2013;9.7077;-1.5254;1.8165;-1.5307;-1.1456;0.2594;0.417;465.0;15.23;11.81;-20.19;318.71;-10.56;3.58;2.0;990.11;55.434;35.958584;-83.92501;787.11;NaN;;1.08;20.767517;5.5;4 / 16;1016;2022-10-02 18:09:01:359
-0.0479;3.4056;9.7211;0.2295;2.1338;9.5689;-0.9965;0.6317;-1.2216;0.5267;-0.281;-0.3638;614.0;18.81;14.68;-19.54;314.13;-12.57;-1.37;2.0;990.17;55.899;35.9586;-83.925;782.11;NaN;;1.3;17.349142;326.3;10 / 16;1514;2022-10-02 18:09:01:857
-0.1089;2.455;9.2243;0.8803;2.0919;9.5404;-0.8964;0.4704;-0.7624;-0.1119;0.1676;0.8423;606.0;14.29;12.23;-26.83;316.9;-13.54;-5.48;2.0;990.12;62.303;35.9586;-83.925;782.11;NaN;;1.3;17.349142;326.3;10 / 16;2015;2022-10-02 18:09:02:358
-0.5495;0.51;11.2403;0.4352;1.5811;9.6686;-2.0884;-0.6927;-1.6953;-0.7778;0.1778;1.0284;662.0;22.31;4.09;-29.59;290.28;-9.28;-2.58;2.0;990.1;57.198;35.9586;-83.925;782.11;NaN;;1.3;17.349142;326.3;10 / 16;2516;2022-10-02 18:09:02:859
-1.1515;1.3334;8.6019;-0.2678;1.5663;9.6771;1.4246;-0.2878;1.1129;0.0525;1.0278;0.4862;741.0;26.36;-4.56;-28.93;268.76;-9.12;-3.52;2.0;990.13;58.371;35.9586;-83.925;782.11;NaN;;1.3;17.349142;326.3;10 / 16;3015;2022-10-02 18:09:03:358
-1.3095;0.705;10.9496;-0.4664;2.6035;9.4432;-2.2018;-0.3632;-2.0414;-0.2606;-0.2433;1.5233;846.0;24.75;-18.58;-23.61;243.95;-15.4;2.83;2.0;990.06;61.687;35.9586;-83.92501;786.08;NaN;;1.15;13.361929;114.8;11 / 16;3515;2022-10-02 18:09:03:858
-1.5443;1.9956;9.2172;-0.0187;2.7831;9.4034;-0.2642;0.4882;0.9867;0.2004;-0.1919;0.3179;888.0;14.79;-29.76;-21.04;210.98;-15.44;2.99;2.0;990.1;59.432;35.9586;-83.92501;786.08;NaN;;1.15;13.361929;114.8;11 / 16;4015;2022-10-02 18:09:04:358
0.0048;3.8306;8.5732;-0.2586;3.3622;9.2087;0.3701;0.2875;0.5749;0.3793;0.3394;0.5436;847.0;7.73;-32.03;-21.21;198.01;-20.05;1.61;2.0;990.11;58.337;35.95859;-83.92501;789.42;NaN;;2.56;12.226105;148.3;11 / 16;4516;2022-10-02 18:09:04:859
0.8198;4.1237;9.489;-0.3115;3.4388;9.1787;-0.1229;-0.3152;-0.6292;0.1312;-0.542;-0.0938;797.0;4.91;-32.98;-20.19;190.27;-20.53;1.94;2.0;990.09;58.836;35.95859;-83.92501;789.42;NaN;;2.56;12.226105;148.3;11 / 16;5015;2022-10-02 18:09:05:358
-0.0311;3.4558;9.4149;0.0031;3.187;9.2743;0.7035;0.641;-1.3097;-0.2259;-0.0234;-0.2572;737.0;0.79;-33.45;-20.59;182.37;-18.96;-0.02;2.0;990.12;55.846;35.958584;-83.92501;792.79;NaN;;4.61;12.226105;170.8;11 / 16;5515;2022-10-02 18:09:05:858
-0.3628;2.4694;8.6019;0.2755;2.5911;9.4541;-0.7667;-0.0986;-0.7249;0.2509;-0.3447;0.3234;715.0;2.1;-31.48;-23.04;183.43;-13.59;1.29;2.0;990.07;55.482;35.958584;-83.92501;792.79;NaN;;4.61;12.226105;170.8;11 / 16;6015;2022-10-02 18:09:06:358
-0.2596;2.7855;7.0519;0.1848;2.3247;9.5253;1.7148;0.6106;-0.1392;-0.0907;0.5847;-0.3462;587.0;-2.16;-29.89;-25.69;176.28;-13.71;-1.11;2.0;990.07;56.17;35.958576;-83.925;790.16;NaN;;2.84;12.226105;170.7;11 / 16;6515;2022-10-02 18:09:06:858
0.0479;2.1942;7.5425;-0.0036;3.099;9.3041;0.6934;-0.9073;0.3584;0.3197;0.2534;0.1631;554.0;-1.28;-30.34;-25.65;178.24;-17.26;-0.79;2.0;990.07;57.035;35.958576;-83.925;790.16;NaN;;2.84;12.226105;170.7;11 / 16;7015;2022-10-02 18:09:07:358
-0.0526;2.715;6.6772;0.7647;3.5742;9.1001;-0.1519;-2.1794;3.5187;0.1984;0.0613;-0.1363;547.0;-1.88;-33.69;-23.78;180.04;-21.37;-4.8;2.0;990.07;54.61;35.95857;-83.925;789.98;NaN;;2.99;12.226105;170.6;11 / 16;7516;2022-10-02 18:09:07:859
-0.0215;2.4778;8.4272;0.0944;3.1072;9.3009;-1.7151;-1.6378;0.4975;-0.2278;0.0158;0.6732;592.0;-0.53;-34.16;-23.96;179.9;-18.27;-2.28;2.0;990.11;56.117;35.95857;-83.925;789.98;NaN;;2.99;12.226105;170.6;11 / 16;8016;2022-10-02 18:09:08:359
0.7217;4.2903;6.7669;0.2098;3.154;9.2832;-0.6474;-1.0085;-0.4545;-0.4841;0.1025;0.2742;623.0;-2.4;-35.21;-23.79;178.53;-20.94;-3.3;2.0;990.06;56.148;35.95856;-83.925;791.59;NaN;;3.2;12.478565;170.7;11 / 16;8515;2022-10-02 18:09:08:858
-3.1831;1.8912;6.8542;-0.2049;2.4721;9.4877;1.2804;3.1988;1.3786;-1.09;-0.6468;-0.1395;662.0;-1.91;-34.61;-25.28;174.08;-17.62;1.55;2.0;990.07;55.66;35.95856;-83.925;791.59;NaN;;3.2;12.478565;170.7;11 / 16;9015;2022-10-02 18:09:09:358
-1.6101;-0.431;10.1617;0.1125;3.4936;9.1626;1.6231;1.0804;2.1908;-0.3217;-0.2194;-1.1675;646.0;-3.32;-34.07;-25.72;173.2;-20.87;-0.7;2.0;990.09;56.317;35.958553;-83.925;789.15;NaN;;3.35;12.413289;170.7;10 / 16;9515;2022-10-02 18:09:09:858
0.0885;1.3454;14.0593;-0.0056;3.6071;9.1192;1.4044;1.7935;0.672;0.2784;0.2433;0.0873;629.0;-4.43;-35.38;-24.3;172.47;-20.32;-1.83;2.0;990.1;55.417;35.958553;-83.925;789.15;NaN;;3.35;12.413289;170.7;10 / 16;10015;2022-10-02 18:09:10:358
1.2843;3.6066;11.348;-0.1213;2.5283;9.4744;0.7751;2.5626;1.1268;-0.0962;-0.046;-0.0729;594.0;-3.02;-34.09;-26.12;172.05;-16.78;1.1;2.0;990.08;56.125;35.958546;-83.924995;789.16;NaN;;3.6;12.286196;162.0;10 / 16;10516;2022-10-02 18:09:10:859
-0.4657;4.2293;11.4269;-0.714;2.4408;9.4712;0.345;0.7558;-1.0787;0.0176;0.7159;0.2276;576.0;-2.7;-33.23;-27.41;168.78;-14.41;4.31;2.0;990.1;54.066;35.958546;-83.924995;789.16;NaN;;3.6;12.286196;162.0;10 / 16;11015;2022-10-02 18:09:11:358
0.9147;5.0827;9.7965;-3.175;0.2668;9.2746;1.2782;1.0933;-0.5182;-0.2112;1.3227;0.2685;557.0;8.31;-30.13;-26.81;177.7;-1.56;18.9;2.0;990.07;57.906;35.95853;-83.924995;784.91;NaN;;3.49;12.226105;156.4;11 / 16;11515;2022-10-02 18:09:11:858
-1.276;-0.4645;9.5812;1.7899;-0.3857;9.6342;-3.8484;-0.675;-3.5318;-1.3364;-1.2131;0.3955;561.0;18.15;-19.59;-30.64;228.09;-6.25;-0.77;2.0;990.03;57.418;35.95853;-83.924995;784.91;NaN;;3.49;12.226105;156.4;11 / 16;12014;2022-10-02 18:09:12:357
2.8968;0.364;-0.2142;4.9361;5.7152;6.2564;-1.935;-5.0144;-1.0862;3.6485;-1.4918;0.9562;484.0;8.59;-19.8;-32.61;238.51;-15.98;-17.38;2.0;990.02;57.795;35.958527;-83.92499;785.15;NaN;;4.46;12.226105;140.4;11 / 16;12516;2022-10-02 18:09:12:859
10.4958;-2.3761;-0.5506;6.0978;-6.5571;-3.999;5.5767;2.2899;6.6272;0.0935;-0.7921;1.4055;217.0;-26.68;-27.92;2.96;192.95;32.76;-114.84;2.0;990.13;58.587;35.958527;-83.92499;785.15;NaN;;4.46;12.226105;140.4;11 / 16;13015;2022-10-02 18:09:13:358
7.2613;-6.3156;-1.6256;9.7937;0.121;-0.4897;4.9434;-10.4891;-1.178;1.9537;0.419;-3.3807;20.0;-39.54;0.13;11.72;87.13;-0.71;-92.86;2.0;990.07;62.446;35.95852;-83.92497;783.31;NaN;;2.48;12.226105;137.1;11 / 16;13515;2022-10-02 18:09:13:858
14.4233;-3.1244;-0.3604;8.4976;-4.1998;-2.5144;3.0782;-0.496;0.6164;-2.6402;-0.048;3.5318;17.0;-31.71;-31.18;6.13;184.54;25.36;-106.48;2.0;990.09;62.777;35.95852;-83.92497;783.31;NaN;;2.48;12.226105;137.1;11 / 16;14015;2022-10-02 18:09:14:358
12.1609;-7.6804;0.8572;9.3614;2.8619;0.5875;2.9477;-10.5761;0.2972;2.139;0.5579;-3.6885;13.0;-38.19;-2.29;10.41;137.45;11.97;-91.39;2.0;990.09;58.177;35.95851;-83.924965;782.72;NaN;;5.72;12.226105;143.0;11 / 16;14515;2022-10-02 18:09:14:858
11.0333;-0.201;1.0869;9.7298;-0.1357;-1.2177;5.0406;-3.5948;-1.1159;-2.0552;-0.9829;2.8916;13.0;-30.07;-31.07;6.54;158.76;-22.75;-90.79;2.0;990.06;59.384;35.95851;-83.924965;782.72;NaN;;5.72;12.226105;143.0;11 / 16;15015;2022-10-02 18:09:15:358
14.2161;-5.0683;-3.0069;9.6545;1.178;-1.2547;5.1808;-6.1007;-1.2374;0.7268;1.3936;-3.7219;13.0;-40.33;-9.13;13.03;183.68;19.33;-109.97;2.0;990.08;59.153;35.9585;-83.92496;783.03;NaN;;5.58;12.226105;155.2;12 / 16;15516;2022-10-02 18:09:15:859
0.9745;3.1065;8.6198;2.4425;2.9452;9.0294;-0.171;1.6272;-4.2788;-3.2851;4.3255;1.6201;17.0;-15.41;-33.54;-7.11;156.59;-17.48;-15.14;2.0;990.05;60.805;35.9585;-83.92496;783.03;NaN;;5.58;12.226105;155.2;12 / 16;16014;2022-10-02 18:09:16:357
1.0283;3.2094;8.9228;0.3864;3.3922;9.1932;-0.6856;-0.0107;-0.9608;0.0899;0.1643;0.8738;258.0;4.31;-27.75;-28.14;198.83;-19.4;-3.85;2.0;990.03;59.95;35.958485;-83.92496;783.1;NaN;;5.44;12.226105;158.6;12 / 16;16515;2022-10-02 18:09:16:858
2.1727;4.0125;7.1106;0.7139;3.0924;9.2789;-0.1025;1.1996;0.4913;-0.3097;0.1805;-0.2042;479.0;3.86;-31.22;-24.71;195.26;-18.38;-4.4;2.0;990.02;60.07;35.958485;-83.92496;783.1;NaN;;5.44;12.226105;158.6;12 / 16;17016;2022-10-02 18:09:17:359
0.352;2.2516;9.8387;0.1401;2.7038;9.4255;0.6633;-0.7775;4.1456;0.2634;0.7153;0.5621;483.0;1.93;-29.79;-26.55;186.4;-16.0;-0.85;2.0;990.04;58.126;35.958473;-83.92494;783.14;NaN;;5.54;12.437414;145.1;12 / 16;17515;2022-10-02 18:09:17:858
0.9135;1.3896;13.1988;0.6544;2.7379;9.3939;0.9465;0.1892;1.5057;-0.4671;0.2367;-0.0117;465.0;-1.44;-30.36;-26.12;181.57;-18.16;-3.43;2.0;990.01;58.166;35.958473;-83.92494;783.14;NaN;;5.54;12.437414;145.1;12 / 16;18015;2022-10-02 18:09:18:358
0.0371;3.5228;9.8734;0.3247;2.6648;9.4321;-0.4685;1.0585;0.5021;0.0957;0.2075;0.1886;382.0;-2.59;-29.57;-26.51;176.12;-14.94;-3.19;2.0;989.99;58.913;35.95847;-83.92494;785.73;NaN;;3.2;13.01865;146.6;12 / 16;18516;2022-10-02 18:09:18:859
3.2632;5.2753;7.7677;4.433;5.3402;6.9283;-2.6957;-0.261;0.8468;1.5572;-2.864;0.4387;315.0;-3.99;-29.89;-25.8;177.72;-22.06;-7.19;2.0;990.02;58.364;35.95847;-83.92494;785.73;NaN;;3.2;13.01865;146.6;12 / 16;19015;2022-10-02 18:09:19:358
5.115;6.3383;6.6927;5.9007;4.9764;6.0488;-0.2524;0.8242;-1.8851;-0.4616;1.553;-0.0935;100.0;-20.66;-34.46;-7.03;152.29;-30.49;-44.29;2.0;990.02;57.737;35.95846;-83.924934;785.97;NaN;;3.67;12.906568;160.2;12 / 16;19515;2022-10-02 18:09:19:858
-0.0275;3.4558;8.5552;0.3653;2.6171;9.4439;0.3914;0.8738;-1.4915;-0.5376;1.049;0.0227;61.0;-13.52;-30.9;-20.51;151.36;-15.48;-2.21;2.0;990.02;58.959;35.95846;-83.924934;785.97;NaN;;3.67;12.906568;160.2;12 / 16;20015;2022-10-02 18:09:20:358
-0.1184;3.4702;8.3794;0.7767;2.8486;9.3516;1.8274;0.6015;0.0564;-0.0777;0.0223;-0.3008;192.0;-7.35;-27.22;-27.53;167.28;-16.89;-6.15;2.0;990.0;60.758;35.95845;-83.924934;784.09;NaN;;3.17;13.093122;167.6;11 / 16;20515;2022-10-02 18:09:20:858
0.4394;3.7421;6.2498;0.5412;3.262;9.2324;-0.4467;-0.5913;-0.3378;0.2939;-0.1636;0.048;211.0;-4.86;-29.06;-26.74;168.65;-17.54;-2.31;2.0;990.01;59.134;35.95845;-83.924934;784.09;NaN;;3.17;13.093122;167.6;11 / 16;21016;2022-10-02 18:09:21:359
1.1779;3.8378;7.5652;5.5117;4.9005;6.4635;-3.9257;-0.4678;-0.4309;-0.7204;-1.3559;-0.3438;257.0;-6.38;-33.79;-21.43;196.96;-30.38;-31.05;2.0;990.05;59.085;35.958443;-83.92493;785.96;NaN;;3.78;12.742426;150.1;9 / 16;21515;2022-10-02 18:09:21:858
1.4701;2.3067;-2.1727;4.2129;8.2027;3.3373;2.7185;-2.1842;2.5338;3.2412;0.0432;-1.3236;320.0;-9.0;-38.19;-10.46;193.02;-56.77;-51.62;2.0;990.04;58.871;35.958443;-83.92493;785.96;NaN;;3.78;12.742426;150.1;9 / 16;22015;2022-10-02 18:09:22:358
14.0426;-3.5276;5.5938;6.9039;-6.1635;-3.2431;11.0635;0.2478;2.7288;-2.4903;0.7106;5.5577;129.0;-11.25;-36.88;16.11;162.62;6.21;-107.21;2.0;990.06;59.625;35.958435;-83.92492;785.47;NaN;;4.36;12.272494;153.6;11 / 16;22516;2022-10-02 18:09:22:859
10.0397;-6.5372;-1.2736;8.8166;-3.4481;-2.559;5.8535;-1.6927;0.9766;1.9362;0.5399;-3.5258;41.0;-36.19;5.63;17.68;138.87;20.59;-106.19;2.0;990.04;61.28;35.958435;-83.92492;785.47;NaN;;4.36;12.272494;153.6;11 / 16;23016;2022-10-02 18:09:23:359
9.6422;-2.9363;-0.5818;9.0083;-2.3819;-3.0573;2.9361;-1.7901;-2.4549;-1.0103;0.4855;3.018;44.0;-27.94;-21.26;25.14;152.97;14.06;-108.75;2.0;990.04;62.193;35.958424;-83.92492;785.78;NaN;;3.78;12.263775;164.4;12 / 16;23515;2022-10-02 18:09:23:858
9.1729;-4.7764;-0.2838;9.4241;-2.206;-1.578;1.5827;-4.0782;1.7393;1.9139;-0.4316;-2.5217;23.0;-37.44;-1.63;21.08;153.19;30.75;-103.96;2.0;990.07;59.324;35.958424;-83.92492;785.78;NaN;;3.78;12.263775;164.4;12 / 16;24016;2022-10-02 18:09:24:359
8.0524;-3.1926;-3.0811;9.2493;-1.871;-2.6684;-3.1118;-2.5528;-0.1365;-0.9276;0.4849;2.1088;47.0;-34.37;-14.53;23.49;140.16;-2.16;-108.15;2.0;990.02;61.211;35.958416;-83.92491;789.34;NaN;;4.32;12.226105;168.0;12 / 16;24515;2022-10-02 18:09:24:858
8.7422;-6.7035;-1.5993;8.5637;-4.5076;-1.5858;1.8109;0.7066;0.8762;1.0753;0.0328;-2.1877;43.0;-36.15;-3.79;23.25;160.25;41.36;-107.82;2.0;990.08;59.544;35.958416;-83.92491;789.34;NaN;;4.32;12.226105;168.0;12 / 16;25016;2022-10-02 18:09:25:359
10.3196;-3.4475;-3.5695;9.2351;-2.0935;-2.5497;-0.8824;-4.6255;-0.7378;-0.5518;0.4724;1.0881;53.0;-35.36;-11.4;23.31;146.27;12.33;-105.43;2.0;990.12;62.478;35.958405;-83.924904;787.1;NaN;;4.36;12.226105;158.6;12 / 16;25516;2022-10-02 18:09:25:859
9.8363;-6.475;0.8776;7.2695;-6.42;-1.4524;3.7037;0.5676;1.2198;-0.0905;0.9441;-0.9657;50.0;-37.5;2.7;17.78;156.39;40.89;-101.3;2.0;990.06;57.602;35.958405;-83.924904;787.1;NaN;;4.36;12.226105;158.6;12 / 16;26016;2022-10-02 18:09:26:359
10.7375;-3.5049;-2.563;9.0944;-3.2308;-1.7391;0.397;0.0832;0.6654;-0.7387;0.1305;1.7062;76.0;-39.26;-15.3;11.87;164.92;6.41;-99.73;2.0;990.05;60.243;35.958405;-83.924904;787.1;NaN;;4.36;12.226105;158.6;12 / 16;26515;2022-10-02 18:09:26:858
12.4193;-4.1405;-0.7792;7.7596;-5.7129;-1.8225;8.4213;1.0796;0.7978;-0.1311;0.6523;-0.1765;98.0;-41.04;-9.47;10.41;185.74;37.61;-108.19;2.0;990.03;58.843;35.958405;-83.924904;787.1;NaN;;4.36;12.226105;158.6;12 / 16;27015;2022-10-02 18:09:27:358
9.3096;-2.5319;-2.1356;9.1405;-3.1721;-1.6;0.8256;-4.3239;-0.8107;-0.6979;-0.0189;1.8267;90.0;-38.87;-14.57;7.16;167.35;5.68;-94.05;2.0;990.03;58.127;35.958405;-83.924904;787.1;NaN;;4.36;12.226105;158.6;12 / 16;27515;2022-10-02 18:09:27:858
12.7989;-2.2863;2.26;7.3228;-5.9286;-2.7202;4.4303;3.5885;2.1253;-0.6439;-0.1222;0.9277;96.0;-39.86;-5.62;9.94;188.76;37.2;-110.38;2.0;990.03;57.688;35.958405;-83.924904;787.1;NaN;;4.36;12.226105;158.6;12 / 16;28015;2022-10-02 18:09:28:358
8.1867;-3.2788;-2.0112;9.6702;1.1511;1.1545;-1.5752;-5.446;-3.4757;0.3284;0.0939;-0.2553;78.0;-38.14;-9.51;6.58;119.39;-5.19;-82.7;2.0;990.02;59.449;35.95838;-83.92489;782.29;NaN;;3.56;12.226105;169.0;12 / 16;28515;2022-10-02 18:09:28:858
15.041;-2.1715;4.1836;7.9223;-4.7114;-3.3483;2.4247;-1.1892;5.49;-1.0181;0.6436;0.481;167.0;-36.07;-17.01;2.93;199.71;28.71;-112.91;2.0;990.02;55.861;35.95838;-83.92489;782.29;NaN;;3.56;12.226105;169.0;12 / 16;29015;2022-10-02 18:09:29:358
4.9199;-4.8314;-3.7516;9.4339;2.6642;-0.2712;-1.6059;-6.7872;-1.6075;0.9967;-0.0907;-1.9201;120.0;-37.07;-9.62;2.36;64.84;-15.76;-91.65;2.0;990.01;60.084;35.95837;-83.92489;783.01;NaN;;3.56;12.226105;162.5;10 / 16;29515;2022-10-02 18:09:29:858
14.0079;0.5411;1.2269;8.1775;-4.1897;-3.4272;3.9601;4.6276;4.04;-1.4632;2.0E-4;0.8136;113.0;-35.59;-17.46;7.71;185.52;24.21;-107.12;2.0;990.03;56.469;35.95837;-83.92489;783.01;NaN;;3.56;12.226105;162.5;10 / 16;30015;2022-10-02 18:09:30:358
7.5918;-5.1317;-3.4367;9.4787;2.4567;-0.5371;-0.9276;-7.112;-0.7674;2.3576;0.2496;-2.1399;71.0;-38.4;-11.14;4.18;162.45;0.04;-90.77;2.0;990.01;58.732;35.958363;-83.92488;783.3;NaN;;3.74;12.226105;161.2;10 / 16;30515;2022-10-02 18:09:30:858
13.0083;1.0128;0.2213;7.17;-5.8702;-3.2096;3.568;5.1667;2.9598;-0.4398;-0.5855;1.8714;76.0;-34.67;-19.58;9.51;178.77;25.74;-104.8;2.0;990.0;57.205;35.958363;-83.92488;783.3;NaN;;3.74;12.226105;161.2;10 / 16;31015;2022-10-02 18:09:31:358
8.9635;-3.7528;-1.6699;9.6575;1.5122;-0.7847;1.2787;-5.8948;-0.3838;-0.5622;0.8879;-1.7147;39.0;-38.4;-8.08;11.68;102.16;-8.87;-94.65;2.0;990.03;57.104;35.95835;-83.92487;782.51;NaN;;3.85;12.226105;154.5;11 / 16;31516;2022-10-02 18:09:31:859
4.7139;3.6138;7.0938;6.25;2.7188;7.051;-0.5517;1.1604;-1.3043;-0.5148;1.4637;-0.4362;99.0;-25.99;-33.6;-1.59;146.58;-16.1;-41.55;2.0;990.01;55.08;35.95835;-83.92487;782.51;NaN;;3.85;12.226105;154.5;11 / 16;32015;2022-10-02 18:09:32:358
6.3885;-1.3178;2.7317;7.2032;3.0707;5.9038;-2.7132;-1.061;-4.6763;-0.5049;-0.9289;0.6381;244.0;-18.96;-34.76;-16.28;169.38;-22.67;-39.96;2.0;989.99;54.209;35.958344;-83.924866;780.81;NaN;;4.18;12.226105;161.2;12 / 16;32515;2022-10-02 18:09:32:858
10.3735;-0.0024;5.0874;8.6233;-4.3462;1.7085;-1.4061;2.9706;4.8815;-1.8726;-0.6496;0.6081;198.0;-32.1;-25.84;-8.81;176.81;16.96;-70.97;2.0;990.01;56.21;35.958344;-83.924866;780.81;NaN;;4.18;12.226105;161.2;12 / 16;33016;2022-10-02 18:09:33:359
7.6588;-4.7438;0.2082;9.593;1.9275;-0.655;-0.396;-6.9646;0.7146;1.6039;-0.9468;-2.4085;53.0;-40.5;-8.1;-3.06;185.54;6.98;-87.49;2.0;989.97;58.559;35.958344;-83.924866;780.81;NaN;;4.18;12.226105;161.2;12 / 16;33515;2022-10-02 18:09:33:858
9.0987;0.5925;-2.278;9.2064;-1.1651;-3.1709;1.0936;2.3397;2.6741;-0.7684;-0.0751;1.2477;32.0;-30.13;-25.63;20.18;163.03;6.82;-109.0;2.0;989.97;58.046;35.958344;-83.924866;780.81;NaN;;4.18;12.226105;161.2;12 / 16;34016;2022-10-02 18:09:34:359
6.6999;-2.697;-2.0554;9.5721;0.9513;-1.9079;-0.7025;-2.9078;-0.4538;0.0869;0.3241;-1.8729;24.0;-35.49;-16.12;18.88;154.82;8.08;-103.96;2.0;990.0;56.809;35.958336;-83.924866;773.77;NaN;;3.71;12.226105;182.9;12 / 16;34515;2022-10-02 18:09:34:858
7.5942;-1.4677;-0.3281;8.8505;-2.7986;-3.1633;3.2204;0.6875;-0.8889;-1.4646;1.0126;1.7265;40.0;-33.24;-23.19;16.63;171.43;16.58;-109.67;2.0;989.97;55.172;35.958336;-83.924866;773.77;NaN;;3.71;12.226105;182.9;12 / 16;35015;2022-10-02 18:09:35:358
7.2888;-4.1058;-1.7058;9.6884;-1.1656;-0.9735;2.2526;-3.9663;0.429;1.6721;0.1349;-2.7698;33.0;-41.44;-6.94;9.53;153.85;6.83;-95.74;2.0;990.0;54.97;35.95833;-83.92486;773.8;NaN;;3.53;12.226105;154.7;12 / 16;35515;2022-10-02 18:09:35:858
7.6134;-1.7082;-0.4573;9.0481;-3.5261;-1.3674;0.2563;2.1951;1.0004;-1.6464;0.7246;1.2437;64.0;-37.5;-23.31;6.69;176.62;12.4;-97.97;2.0;989.98;54.695;35.95833;-83.92486;773.8;NaN;;3.53;12.226105;154.7;12 / 16;36015;2022-10-02 18:09:36:358
9.3108;-3.3075;-0.8366;9.3527;-2.8578;-0.7279;3.1131;-1.093;1.7786;2.1922;-0.3868;-1.9727;32.0;-41.93;-9.37;6.36;185.48;30.59;-101.93;2.0;989.98;55.972;35.95832;-83.924866;772.65;NaN;;3.78;12.226105;182.1;12 / 16;36515;2022-10-02 18:09:36:858
9.3359;-1.0654;-0.4789;9.1389;-2.56;-2.4692;3.6499;0.0611;-0.771;-1.4014;-0.3115;1.6435;46.0;-35.57;-23.51;14.57;162.41;4.39;-100.02;2.0;989.97;56.011;35.95832;-83.924866;772.65;NaN;;3.78;12.226105;182.1;12 / 16;37015;2022-10-02 18:09:37:358
12.8719;-1.6412;-0.3592;8.7132;-3.8585;-2.3156;3.2956;3.3653;1.8881;0.6517;1.0564;-2.4451;25.0;-39.39;-12.04;16.33;168.79;23.17;-104.88;2.0;989.99;55.374;35.958313;-83.924866;770.4;NaN;;3.46;12.290949;198.0;11 / 16;37515;2022-10-02 18:09:37:858
10.8476;-2.1918;-3.7385;9.441;-1.2958;-2.3149;-0.4259;-0.4948;0.055;-0.3971;-0.0202;1.3334;33.0;-34.43;-24.15;17.51;161.9;7.59;-103.78;2.0;989.97;54.528;35.958313;-83.924866;770.4;NaN;;3.46;12.290949;198.0;11 / 16;38015;2022-10-02 18:09:38:358
9.379;-1.6496;-2.1081;9.484;-1.6893;-1.836;4.1636;-1.0422;0.7102;0.7695;0.5621;-1.7876;24.0;-38.23;-15.96;16.84;176.76;26.84;-111.52;2.0;989.96;57.159;35.958305;-83.924866;772.35;NaN;;3.53;12.226105;162.5;10 / 16;38516;2022-10-02 18:09:38:859
9.1083;-2.9818;-4.2437;9.2501;-1.0056;-3.0976;-1.7001;-3.4021;-1.5258;-0.6902;-0.1994;1.8609;21.0;-36.15;-22.65;14.49;169.13;-6.34;-105.94;2.0;989.98;55.998;35.958305;-83.924866;772.35;NaN;;3.53;12.226105;162.5;10 / 16;39015;2022-10-02 18:09:39:358
12.9808;-3.8904;-0.4286;8.6384;-4.1986;-1.9801;4.081;4.4615;0.8212;0.7598;0.4047;-1.7582;21.0;-40.69;-8.89;11.46;190.19;37.04;-112.93;2.0;989.98;56.191;35.958298;-83.92486;772.81;NaN;;4.25;12.226105;156.5;10 / 16;39515;2022-10-02 18:09:39:858
11.4042;-4.2162;-5.9698;9.5042;-0.4185;-2.3801;-1.7722;-6.4625;-0.6947;-0.5903;0.1002;1.0707;19.0;-37.97;-17.51;12.53;170.26;2.45;-104.06;2.0;989.95;55.654;35.958298;-83.92486;772.81;NaN;;4.25;12.226105;156.5;10 / 16;40015;2022-10-02 18:09:40:358
13.5733;-3.5527;-0.9745;7.7276;-5.3396;-2.8184;6.6678;3.576;1.8352;0.2957;0.6562;-0.6274;18.0;-39.34;-10.12;12.73;190.64;36.91;-116.95;2.0;989.95;56.327;35.95828;-83.92485;774.12;NaN;;5.0;12.226105;158.4;10 / 16;40515;2022-10-02 18:09:40:858
8.6294;-5.0276;-4.2365;9.7077;0.1739;-1.3786;-2.3321;-6.2998;-0.6968;-0.6535;-0.1669;2.0725;20.0;-40.05;-10.11;7.78;166.09;-1.02;-98.08;2.0;989.91;55.261;35.95828;-83.92485;774.12;NaN;;5.0;12.226105;158.4;10 / 16;41016;2022-10-02 18:09:41:359
15.8034;-1.5933;-1.1994;7.1415;-5.8327;-3.339;7.0284;4.9468;1.7371;-0.1603;0.0428;0.2333;17.0;-40.28;-4.65;12.47;191.99;36.5;-115.06;2.0;989.93;54.6;35.958267;-83.92484;775.47;NaN;;4.86;12.226105;151.3;10 / 16;41516;2022-10-02 18:09:41:859
7.806;-5.1389;-3.8617;9.5257;-0.6667;-2.2331;-0.6234;-5.7346;-1.6442;-0.6196;0.0089;1.4623;18.0;-40.28;-13.46;14.19;149.06;-6.65;-102.76;2.0;989.91;56.288;35.958267;-83.92484;775.47;NaN;;4.86;12.226105;151.3;10 / 16;42015;2022-10-02 18:09:42:358
17.441;-4.0615;-0.1125;6.684;-6.3426;-3.3564;4.5369;5.2482;0.9151;-0.6544;-1.0E-4;1.6455;16.0;-41.29;-9.79;19.09;173.25;31.66;-110.04;2.0;989.93;56.399;35.958256;-83.92484;776.16;NaN;;5.04;12.226105;169.0;10 / 16;42515;2022-10-02 18:09:42:858
6.5695;-4.8817;-2.3067;9.2669;1.7985;-2.6572;-3.272;-6.7517;0.7209;0.068;0.142;0.0097;19.0;-43.48;-4.78;22.59;69.34;-10.76;-105.66;2.0;989.91;56.81;35.958256;-83.92484;776.16;NaN;;5.04;12.226105;169.0;10 / 16;43014;2022-10-02 18:09:43:357
10.2873;-0.1878;0.1113;7.4051;-5.019;-4.018;2.4287;2.5557;3.7066;-0.9222;0.2187;0.8872;32.0;-46.59;-11.98;24.32;182.03;30.78;-118.48;2.0;989.92;57.219;35.95824;-83.92484;777.48;NaN;;5.0;12.226105;169.7;10 / 16;43515;2022-10-02 18:09:43:858
6.0248;-4.3035;-2.3617;9.3404;2.0801;-2.145;-1.723;-6.8812;-0.3694;1.1529;-0.3046;-2.2072;41.0;-46.35;-8.04;17.72;70.64;-12.25;-102.93;2.0;989.93;57.897;35.95824;-83.92484;777.48;NaN;;5.0;12.226105;169.7;10 / 16;44015;2022-10-02 18:09:44:358
12.3272;1.2939;-1.203;6.5168;-5.7981;-4.4815;5.623;5.0339;2.8755;-1.211;-0.336;2.098;45.0;-37.16;-20.03;20.1;174.13;27.65;-113.18;2.0;989.93;56.898;35.958233;-83.924835;776.89;NaN;;5.08;12.226105;149.7;10 / 16;44515;2022-10-02 18:09:44:858
6.2342;-4.8613;-2.1344;9.5025;1.9737;-1.4063;-0.4873;-7.8846;-0.9135;1.8573;0.0275;-3.2216;40.0;-40.35;-0.69;19.86;123.69;10.73;-99.14;2.0;989.93;56.565;35.958233;-83.924835;776.89;NaN;;5.08;12.226105;149.7;10 / 16;45015;2022-10-02 18:09:45:358
10.6478;-1.2305;-0.1005;7.3567;-5.207;-3.8647;2.6201;3.6954;4.3239;0.11;-0.6899;1.8957;39.0;-43.27;-17.38;23.1;170.27;19.76;-111.61;2.0;989.91;57.42;35.958218;-83.92483;779.36;NaN;;4.79;12.226105;152.5;10 / 16;45516;2022-10-02 18:09:45:859
6.8183;-3.7313;-1.1982;9.7344;0.6005;-1.0249;1.7402;-5.8511;-0.494;1.6252;0.7159;-3.2392;33.0;-44.14;-3.9;19.71;94.43;-3.51;-96.01;2.0;989.91;56.68;35.958218;-83.92483;779.36;NaN;;4.79;12.226105;152.5;10 / 16;46016;2022-10-02 18:09:46:359
5.31;4.6193;2.709;7.5785;4.3591;4.4423;-1.2587;-0.1441;-2.2208;0.4416;0.6026;-0.4575;37.0;-31.93;-33.51;4.54;133.29;-26.39;-59.62;2.0;989.85;56.324;35.958202;-83.92483;782.38;NaN;;4.72;12.226105;144.1;10 / 16;46515;2022-10-02 18:09:46:858
1.6448;2.4622;6.6162;3.1489;2.3896;8.9747;0.2366;-0.2951;2.5118;0.6706;0.2275;0.2233;60.0;-22.76;-34.11;-14.7;148.83;-14.1;-19.33;2.0;989.88;57.73;35.958202;-83.92483;782.38;NaN;;4.72;12.226105;144.1;10 / 16;47015;2022-10-02 18:09:47:358
1.1503;2.8513;7.2111;2.0229;3.2558;9.0265;0.6703;0.2555;-1.261;0.3643;-0.2062;-0.1062;360.0;-11.98;-31.78;-27.38;164.24;-19.39;-12.63;2.0;989.87;57.465;35.95819;-83.92481;785.0;NaN;;4.79;12.226105;143.9;10 / 16;47516;2022-10-02 18:09:47:859
0.9972;3.5791;7.7761;1.2764;3.4962;9.0729;-0.1322;0.3133;-0.3974;0.1894;-0.1235;0.0983;414.0;-8.23;-32.25;-27.09;166.64;-19.28;-6.28;2.0;989.85;56.962;35.95819;-83.92481;785.0;NaN;;4.79;12.226105;143.9;10 / 16;48016;2022-10-02 18:09:48:359
0.6918;3.2213;9.1047;1.699;3.5997;8.9625;1.5877;-0.1316;2.7655;-0.125;-0.2091;-0.5427;432.0;-9.15;-33.06;-25.57;165.71;-23.74;-8.8;2.0;989.84;56.537;35.95818;-83.924805;784.96;NaN;;4.86;12.226105;148.9;10 / 16;48515;2022-10-02 18:09:48:858
-2.0602;2.0064;8.2298;-0.0108;1.639;9.6687;-1.5101;-1.0848;1.9641;-0.0731;-0.1641;0.366;432.0;-3.96;-31.56;-27.39;172.14;-10.88;-0.78;2.0;989.84;58.058;35.95818;-83.924805;784.96;NaN;;4.86;12.226105;148.9;10 / 16;49016;2022-10-02 18:09:49:359
2.764;2.9423;8.79;1.0319;1.9647;9.5523;-0.4275;0.4947;1.1459;-0.1849;-0.0611;-0.2139;572.0;-4.33;-28.93;-30.62;178.33;-11.56;-6.17;2.0;989.83;57.191;35.958168;-83.9248;785.24;NaN;;4.9;12.226105;140.3;10 / 16;49516;2022-10-02 18:09:49:859
-0.2536;1.5443;12.2411;1.1039;3.4021;9.1311;0.1193;1.475;0.1815;-0.6302;0.0615;-0.1034;546.0;-7.13;-32.59;-27.94;170.31;-20.3;-6.89;2.0;989.84;56.104;35.958168;-83.9248;785.24;NaN;;4.9;12.226105;140.3;10 / 16;50015;2022-10-02 18:09:50:358
-0.5674;0.7816;12.0063;0.4349;2.928;9.3492;0.2562;-0.7934;2.0597;0.3493;-0.0612;-0.5003;489.0;-9.73;-34.01;-27.24;163.0;-13.85;-4.05;2.0;989.86;56.018;35.958157;-83.9248;786.77;NaN;;4.61;13.062386;158.4;10 / 16;50515;2022-10-02 18:09:50:858
0.0467;2.782;10.7148;-0.1149;2.1877;9.5588;-0.7729;0.894;0.1289;-0.3577;0.1442;0.187;532.0;-5.92;-34.26;-28.33;166.69;-15.17;0.06;2.0;989.85;56.566;35.958157;-83.9248;786.77;NaN;;4.61;13.062386;158.4;10 / 16;51015;2022-10-02 18:09:51:358
0.2417;2.4467;11.4233;0.1656;1.9876;9.6017;-0.8774;0.4774;0.2783;0.0415;-0.4423;0.0941;558.0;-5.98;-33.58;-28.95;166.29;-11.97;1.3;2.0;989.83;56.247;35.958145;-83.92479;785.97;NaN;;4.25;13.846104;155.6;10 / 16;51515;2022-10-02 18:09:51:858
-0.5554;3.1436;9.0784;0.0311;2.2162;9.5529;-0.0203;1.2227;-1.9618;-0.0517;0.006;-0.1185;557.0;-6.41;-34.16;-27.22;167.66;-13.06;-0.19;2.0;989.87;58.2;35.958145;-83.92479;785.97;NaN;;4.25;13.846104;155.6;10 / 16;52015;2022-10-02 18:09:52:358
-0.4705;3.1603;8.129;-0.0115;2.2147;9.5533;-0.558;0.1398;-1.034;0.2969;0.0154;0.2811;559.0;-3.66;-33.54;-26.78;171.51;-13.05;0.07;2.0;989.84;55.664;35.958138;-83.92479;784.3;NaN;;4.1;14.461034;162.3;10 / 16;52516;2022-10-02 18:09:52:859
-3.4989;0.1819;7.6732;-2.2027;0.0154;9.5561;1.4905;1.8189;-0.7655;-1.9853;0.2614;0.0348;550.0;-1.99;-31.59;-26.4;166.3;-0.09;12.98;2.0;989.82;54.9;35.958138;-83.92479;784.3;NaN;;4.1;14.461034;162.3;10 / 16;53015;2022-10-02 18:09:53:358
-2.2744;-0.0239;6.9416;-1.363;1.2712;9.6279;-2.6811;-1.7641;-2.6407;1.0536;-1.9985;-0.7794;720.0;13.24;-22.01;-30.66;205.85;-7.45;8.06;2.0;989.82;57.331;35.958122;-83.92479;782.61;NaN;;4.07;15.256345;163.3;10 / 16;53515;2022-10-02 18:09:53:858
-0.1149;5.4084;5.5017;-0.6621;5.2767;8.2395;0.5667;0.012;-2.0069;0.9141;-0.1106;-0.092;709.0;5.83;-31.24;-22.01;192.69;-24.91;4.63;2.0;989.81;56.119;35.958122;-83.92479;782.61;NaN;;4.07;15.256345;163.3;10 / 16;54015;2022-10-02 18:09:54:358
-1.3549;4.9618;7.3044;-1.3539;5.7392;7.8358;0.3602;-0.3571;0.1919;0.1145;0.0089;-0.1384;510.0;-0.37;-37.28;-12.6;174.95;-35.31;8.91;2.0;989.8;57.53;35.95811;-83.92479;780.62;NaN;;4.0;15.367634;164.4;10 / 16;54515;2022-10-02 18:09:54:858
-0.8501;4.2485;9.2136;-0.2452;4.8648;8.5114;-0.592;-0.7694;0.7243;-0.0021;-0.3388;0.2672;494.0;1.35;-37.63;-9.24;180.43;-31.73;5.02;2.0;989.8;55.804;35.95811;-83.92479;780.62;NaN;;4.0;15.367634;164.4;10 / 16;55016;2022-10-02 18:09:55:359
-0.3927;3.603;9.3287;-0.2338;3.8192;9.0294;-0.1193;0.3133;-0.0605;0.1125;0.1119;0.5251;505.0;-1.07;-33.6;-13.37;177.09;-22.92;1.48;2.0;989.83;56.095;35.9581;-83.92478;779.22;NaN;;4.1;15.364327;164.5;10 / 16;55515;2022-10-02 18:09:55:858
1.0247;3.2955;9.204;1.331;3.5407;9.0478;0.3086;0.7791;-1.0034;-0.2813;-0.0967;-0.3648;519.0;-5.61;-28.29;-13.61;169.38;-21.16;-8.37;2.0;989.82;57.116;35.9581;-83.92478;779.22;NaN;;4.1;15.364327;164.5;10 / 16;56015;2022-10-02 18:09:56:358
2.2205;5.243;7.4779;0.9838;4.8875;8.4448;2.2805;1.6698;0.0291;-0.1045;0.2843;-0.5811;425.0;-4.29;-25.76;-11.94;172.66;-29.29;-8.72;2.0;989.83;57.756;35.958088;-83.92478;777.16;NaN;;4.07;16.044762;159.8;10 / 16;56516;2022-10-02 18:09:56:859
2.9411;5.5424;6.9296;0.5542;4.7556;8.5585;-0.9007;-1.7913;2.7136;0.396;-0.7326;-0.1079;374.0;-4.41;-25.09;-14.64;164.27;-30.11;-0.11;2.0;989.8;57.263;35.958088;-83.92478;777.16;NaN;;4.07;16.044762;159.8;10 / 16;57015;2022-10-02 18:09:57:358
-0.1579;5.3136;9.8169;0.8145;5.1357;8.3146;-2.2294;-1.5766;4.7455;0.4844;-0.3679;0.1998;351.0;-2.27;-29.17;-17.83;175.06;-30.95;-2.07;2.0;989.81;55.744;35.958076;-83.92478;775.22;NaN;;4.18;15.062492;168.4;10 / 16;57515;2022-10-02 18:09:57:858
1.3406;4.4423;11.0166;1.6551;4.222;8.6952;-0.2668;-0.2611;2.3808;0.1479;-0.4203;-0.1394;333.0;-0.13;-33.07;-20.29;189.95;-25.5;-10.78;2.0;989.78;56.344;35.958076;-83.92478;775.22;NaN;;4.18;15.062492;168.4;10 / 16;58015;2022-10-02 18:09:58:358
2.581;3.6114;9.9045;2.6551;3.8781;8.607;0.124;1.4713;-0.6026;-0.805;-0.2229;-0.573;305.0;1.07;-34.74;-23.47;198.17;-23.29;-17.14;2.0;989.8;55.274;35.958065;-83.92479;771.24;NaN;;2.99;13.51454;153.5;10 / 16;58515;2022-10-02 18:09:58:858
4.1859;3.8174;9.8961;3.1369;3.4174;8.6401;0.2571;0.8682;-1.2286;-0.4221;-0.6971;-0.7886;327.0;1.61;-33.19;-27.9;207.47;-20.39;-19.95;2.0;989.79;57.912;35.958065;-83.92479;771.24;NaN;;2.99;13.51454;153.5;10 / 16;59015;2022-10-02 18:09:59:358
4.8063;3.9311;10.783;3.859;3.6391;8.2484;-3.1167;-0.1104;-0.7746;0.3893;-0.263;0.5149;401.0;1.22;-30.6;-33.34;219.83;-21.78;-25.07;2.0;989.8;56.955;35.95805;-83.9248;771.28;NaN;;5.83;12.232242;205.6;10 / 16;59515;2022-10-02 18:09:59:858
3.3027;3.9838;7.0388;3.5575;4.4728;7.9692;-1.6617;-2.7063;1.118;1.0123;-0.0939;0.0722;418.0;1.07;-31.59;-34.65;218.88;-21.39;-23.15;2.0;989.76;56.294;35.95805;-83.9248;771.28;NaN;;5.83;12.232242;205.6;10 / 16;60015;2022-10-02 18:10:00:358
2.5845;4.5643;7.0699;6.1132;5.7484;5.075;-0.5954;-0.7357;1.8258;1.0546;-0.5317;0.4658;291.0;0.21;-36.39;-30.0;229.22;-34.69;-39.27;2.0;989.76;57.656;35.958035;-83.924805;770.61;NaN;;4.54;12.226105;175.5;10 / 16;60515;2022-10-02 18:10:00:858
16.8903;2.9435;7.1489;8.4009;4.687;1.9044;9.5031;1.2084;-1.6838;0.9901;1.2199;-2.672;109.0;-23.03;-39.58;-4.03;181.55;-12.0;-82.41;2.0;989.7;58.216;35.958035;-83.924805;770.61;NaN;;4.54;12.226105;175.5;10 / 16;61016;2022-10-02 18:10:01:359
2.8848;7.4731;5.5747;2.0451;7.7851;5.6018;-0.4018;-0.7477;-2.8692;-0.3436;0.6335;-0.1958;100.0;-18.9;-43.16;3.39;140.88;-52.55;-20.06;2.0;989.76;56.432;35.95802;-83.92483;769.68;NaN;;8.21;12.226105;227.0;10 / 16;61516;2022-10-02 18:10:01:859
-0.6188;5.9746;7.1393;-0.158;6.8099;7.0548;-0.5002;0.6737;0.7781;-0.2559;-0.0741;0.0195;221.0;-6.81;-41.49;-10.58;161.75;-43.98;1.28;2.0;989.72;57.18;35.95802;-83.92483;769.68;NaN;;8.21;12.226105;227.0;10 / 16;62016;2022-10-02 18:10:02:359
-3.1316;5.3844;7.1716;-1.6638;6.5414;7.1143;-0.8965;-0.873;2.0004;0.0631;0.6991;-0.2787;292.0;-5.66;-37.61;-13.74;158.79;-40.22;8.54;2.0;989.75;58.797;35.958008;-83.924835;768.08;NaN;;4.18;12.226105;169.8;10 / 16;62516;2022-10-02 18:10:02:859
-3.9227;6.7155;6.1828;-1.8517;7.1193;6.4851;-1.5545;2.106;0.6407;-0.5488;-0.336;0.0998;385.0;1.88;-41.66;-12.54;171.84;-49.52;19.71;2.0;989.76;56.352;35.958008;-83.924835;768.08;NaN;;4.18;12.226105;169.8;10 / 16;63017;2022-10-02 18:10:03:360
-1.1001;1.3298;11.1805;-1.3385;2.7892;9.3059;0.3385;-0.6016;0.8285;-0.3864;-0.4454;0.1448;445.0;5.72;-34.73;-18.21;183.77;-18.07;12.97;2.0;989.76;58.762;35.95799;-83.92477;771.9;NaN;;4.54;13.199952;171.7;10 / 16;63515;2022-10-02 18:10:03:858
0.0096;3.2979;12.4421;-0.427;3.8397;9.0136;0.0631;0.6234;0.6759;0.5146;-0.1143;0.2888;546.0;5.94;-27.94;-25.97;192.97;-19.7;4.32;2.0;989.74;56.112;35.95799;-83.92477;771.9;NaN;;4.54;13.199952;171.7;10 / 16;64016;2022-10-02 18:10:04:359
0.917;5.0408;6.9703;1.6446;4.6316;8.4861;1.2842;0.799;0.7523;0.0815;0.1568;-0.5393;427.0;-5.7;-33.62;-21.56;175.51;-27.96;-11.43;2.0;989.74;56.996;35.957977;-83.92476;769.99;NaN;;3.49;13.191097;156.9;10 / 16;64515;2022-10-02 18:10:04:858
1.8757;4.8458;8.2765;1.54;3.9067;8.8621;-0.7529;-0.3033;-0.9999;0.2747;0.4976;0.1632;321.0;-7.59;-33.98;-22.24;172.9;-21.15;-12.85;2.0;989.76;57.871;35.957977;-83.92476;769.99;NaN;;3.49;13.191097;156.9;10 / 16;65015;2022-10-02 18:10:05:358
0.9218;4.7581;8.2585;1.5945;5.0919;8.228;-0.6818;-0.1806;-1.0039;0.2625;-0.2279;0.3381;335.0;-5.72;-30.96;-19.99;172.44;-31.28;-10.97;2.0;989.73;58.137;35.957966;-83.92476;769.45;NaN;;2.84;12.226105;172.3;10 / 16;65515;2022-10-02 18:10:05:858
0.1161;4.7282;7.7581;1.2808;4.8969;8.3994;-0.6667;0.3839;-1.0492;0.046;-0.1804;-0.0662;305.0;-8.57;-30.22;-17.29;161.46;-28.83;-10.19;2.0;989.72;56.87;35.957966;-83.92476;769.45;NaN;;2.84;12.226105;172.3;10 / 16;66015;2022-10-02 18:10:06:358
1.0056;4.5739;8.7194;0.7382;3.9826;8.9311;-0.6185;-0.7851;-0.786;0.1171;0.1329;0.4245;345.0;-7.86;-30.49;-15.81;162.15;-23.96;-4.73;2.0;989.72;58.104;35.95795;-83.92475;769.87;NaN;;2.92;12.226105;160.9;10 / 16;66515;2022-10-02 18:10:06:858
0.3867;4.5763;6.7549;0.6615;4.0528;8.9055;-0.2391;0.2142;-1.918;0.1584;0.235;-0.2114;407.0;-8.16;-30.22;-17.76;163.89;-22.65;-6.51;2.0;989.72;55.897;35.95795;-83.92475;769.87;NaN;;2.92;12.226105;160.9;10 / 16;67016;2022-10-02 18:10:07:359
-0.4131;3.9287;6.8782;0.4564;3.9706;8.9552;0.4464;-0.2858;0.194;0.1792;-0.405;0.1095;454.0;-9.39;-32.12;-16.18;160.12;-23.88;-2.92;2.0;989.72;56.193;35.957947;-83.92473;768.41;NaN;;3.53;12.226105;157.2;10 / 16;67514;2022-10-02 18:10:07:857
1.3729;5.2262;9.1202;1.5438;4.3016;8.6766;-2.0556;-1.2049;0.1938;0.4298;0.3162;0.3676;485.0;-11.08;-33.58;-16.09;161.58;-24.89;-10.89;2.0;989.75;55.837;35.957947;-83.92473;768.41;NaN;;3.53;12.226105;157.2;10 / 16;68016;2022-10-02 18:10:08:359
-1.3633;4.7486;6.1564;-0.5063;4.502;8.6975;-0.5104;-0.1942;-2.6533;0.3346;0.1279;0.1173;548.0;-9.54;-36.81;-18.45;157.95;-24.86;1.9;2.0;989.7;55.986;35.957947;-83.92472;768.11;NaN;;3.89;12.654037;358.9;10 / 16;68515;2022-10-02 18:10:08:858
-0.7636;4.2317;8.9312;0.2608;4.6061;8.6537;0.4655;0.7575;1.7742;-0.4778;0.3173;-0.1668;651.0;-10.35;-39.34;-15.64;160.44;-28.01;-1.73;2.0;989.7;56.241;35.957947;-83.92472;768.11;NaN;;3.89;12.654037;358.9;10 / 16;69016;2022-10-02 18:10:09:359
-0.0419;3.3721;8.1544;1.0082;4.0838;8.8587;-0.1189;-0.8549;0.4638;0.2853;0.1865;0.4043;643.0;-12.3;-39.21;-14.74;160.65;-23.05;-5.95;2.0;989.72;56.761;35.957943;-83.92471;768.17;NaN;;2.77;12.871663;162.6;10 / 16;69516;2022-10-02 18:10:09:859
4.1501;3.4044;9.5668;3.1983;4.3793;8.1708;-1.527;-0.8806;2.6077;0.032;1.0081;-0.0479;682.0;-16.86;-37.59;-14.81;157.48;-26.52;-21.38;2.0;989.73;55.788;35.957943;-83.92471;768.17;NaN;;2.77;12.871663;162.6;10 / 16;70015;2022-10-02 18:10:10:358
3.2154;4.9211;9.3108;2.3994;4.5357;8.3571;0.4813;-1.6936;4.8556;0.5551;0.5474;0.4717;668.0;-16.93;-40.57;-12.75;155.82;-27.55;-16.02;2.0;989.7;56.744;35.957935;-83.9247;772.47;NaN;;4.39;12.446576;142.0;10 / 16;70515;2022-10-02 18:10:10:858
3.8079;4.7967;10.4946;2.1459;5.5208;7.8158;0.2121;2.012;-0.9606;0.6326;-0.6905;-0.0501;621.0;-19.41;-41.94;-9.23;149.44;-34.26;-15.35;2.0;989.74;55.141;35.957935;-83.9247;772.47;NaN;;4.39;12.446576;142.0;10 / 16;71014;2022-10-02 18:10:11:357
-2.8178;6.6628;7.6983;0.2738;5.7735;7.9223;1.1545;0.4915;0.9281;0.223;1.3229;-0.2694;585.0;-16.39;-43.65;-7.26;155.24;-34.39;-12.84;2.0;989.69;56.926;35.95793;-83.92468;773.44;NaN;;3.64;12.38254;142.7;10 / 16;71517;2022-10-02 18:10:11:860
-1.2676;8.7972;6.0799;-0.3736;7.0006;6.8573;1.017;1.464;2.2017;0.137;1.2889;-0.2882;586.0;-13.13;-44.49;-6.67;154.64;-44.64;-7.64;2.0;989.68;55.782;35.95793;-83.92468;773.44;NaN;;3.64;12.38254;142.7;10 / 16;72015;2022-10-02 18:10:12:358
-0.0455;7.6289;6.6341;-0.2064;7.0795;6.783;-0.789;-1.3095;-1.569;0.364;-0.1669;0.2043;536.0;-13.5;-44.79;-4.03;153.7;-46.21;1.74;2.0;989.69;56.211;35.957928;-83.92467;776.19;NaN;;3.85;12.226105;155.8;10 / 16;72515;2022-10-02 18:10:12:858
1.4198;6.2761;7.4192;1.2073;6.2009;7.5007;-0.0691;0.6442;-0.2378;-0.2617;-0.0107;-0.3299;489.0;-18.73;-43.09;-1.84;148.55;-39.22;-9.14;2.0;989.67;55.426;35.957928;-83.92467;776.19;NaN;;3.85;12.226105;155.8;10 / 16;73015;2022-10-02 18:10:13:358
-0.0909;5.3148;8.1748;1.116;5.1049;8.2985;1.4568;0.6057;-0.8514;0.3691;0.4472;-0.1266;469.0;-15.67;-42.34;-6.54;154.39;-31.37;-7.66;2.0;989.68;56.447;35.95792;-83.924644;777.88;NaN;;3.78;12.226105;156.3;10 / 16;73516;2022-10-02 18:10:13:859
0.5698;5.0109;9.4244;0.961;4.9759;8.3957;-2.3154;-0.5436;0.5108;-0.0027;-0.4236;0.4471;502.0;-10.33;-41.49;-8.31;162.65;-31.73;-3.59;2.0;989.68;56.93;35.95792;-83.924644;777.88;NaN;;3.78;12.226105;156.3;10 / 16;74016;2022-10-02 18:10:14:359
0.012;3.2812;9.0449;1.0301;3.8736;8.9501;0.6506;0.4939;-2.0951;-0.8586;0.0279;-0.5563;492.0;-10.71;-40.41;-12.28;162.35;-26.46;-6.72;2.0;989.7;56.569;35.95792;-83.92463;776.78;NaN;;3.56;12.226105;154.9;10 / 16;74516;2022-10-02 18:10:14:859
-2.2684;0.6416;12.7702;0.1648;2.8016;9.3965;0.2298;2.3332;-0.1094;-0.8554;-0.1175;-0.1977;498.0;-4.24;-37.5;-18.41;173.07;-16.6;-1.0;2.0;989.66;56.278;35.95792;-83.92463;776.78;NaN;;3.56;12.226105;154.9;10 / 16;75015;2022-10-02 18:10:15:358
0.6571;4.0184;9.2124;1.1161;4.1574;8.8114;-0.6434;-0.1297;0.3453;0.2475;-0.1829;0.1804;569.0;-3.47;-37.24;-20.23;176.74;-23.29;-4.33;2.0;989.67;57.283;35.957916;-83.92462;776.44;NaN;;3.49;12.226105;150.5;10 / 16;75514;2022-10-02 18:10:15:857
-0.6057;3.6437;9.7056;0.3246;2.8842;9.3673;-0.5137;0.8348;-2.4694;0.7894;-0.3533;0.1557;571.0;-5.77;-37.16;-19.69;169.78;-17.1;-1.98;2.0;989.66;56.292;35.957916;-83.92462;776.44;NaN;;3.49;12.226105;150.5;10 / 16;76016;2022-10-02 18:10:16:359
1.1025;4.9857;7.3427;2.0082;4.3809;8.5408;-0.6955;0.3211;-1.5283;0.4054;-0.3127;0.2052;691.0;-8.08;-36.9;-20.33;172.25;-26.53;-13.23;2.0;989.67;55.581;35.957912;-83.92461;775.75;NaN;;3.64;12.226105;150.0;10 / 16;76516;2022-10-02 18:10:16:859
0.8967;4.3131;5.9495;1.8267;3.4565;8.9937;-0.8679;-0.909;0.6691;-0.4025;-0.0786;0.1327;687.0;-10.44;-37.8;-20.47;168.24;-20.64;-11.48;2.0;989.66;57.71;35.957912;-83.92461;775.75;NaN;;3.64;12.226105;150.0;10 / 16;77015;2022-10-02 18:10:17:358
3.5145;4.0914;7.5174;2.9571;3.0437;8.8409;-0.1092;-0.053;0.1844;0.4125;0.0036;0.5276;829.0;-13.29;-35.78;-23.62;168.04;-16.28;-16.32;2.0;989.7;58.112;35.957905;-83.9246;775.13;NaN;;3.74;12.226105;152.0;10 / 16;77516;2022-10-02 18:10:17:859
1.2281;4.1991;6.6365;2.2083;4.095;8.6328;-0.4355;-0.0509;-1.481;0.1935;0.0732;-0.2017;824.0;-20.61;-36.34;-20.62;147.85;-23.09;-15.97;2.0;989.65;57.318;35.957905;-83.9246;775.13;NaN;;3.74;12.226105;152.0;10 / 16;78015;2022-10-02 18:10:18:358
0.4214;2.9483;8.0513;2.0977;3.9405;8.7317;-0.4033;0.8612;-0.5097;-0.0318;-0.3141;0.1293;868.0;-17.42;-38.94;-20.29;155.73;-23.69;-13.51;2.0;989.65;58.359;35.957905;-83.92459;775.82;NaN;;3.64;12.226105;152.4;10 / 16;78515;2022-10-02 18:10:18:858
1.1169;4.3825;8.2741;2.052;4.0094;8.7112;-0.3105;-0.4275;-0.1386;-0.3989;-0.2496;-0.4291;869.0;-17.72;-39.34;-19.52;153.5;-24.13;-13.25;2.0;989.66;57.002;35.957905;-83.92459;775.82;NaN;;3.64;12.226105;152.4;10 / 16;79015;2022-10-02 18:10:19:358
0.0837;4.7222;9.6529;-0.626;4.6979;8.5853;-0.1952;0.0457;-0.14;0.7863;0.2997;-1.0229;898.0;-8.1;-41.12;-21.06;160.08;-28.62;4.17;2.0;989.65;57.917;35.9579;-83.924576;776.87;NaN;;3.74;12.226105;154.7;10 / 16;79516;2022-10-02 18:10:19:859
-3.6643;6.3778;6.8901;-2.5215;6.8923;6.5045;1.0903;1.1387;0.7923;0.4803;-0.5388;-0.8398;871.0;11.4;-43.74;-9.98;195.65;-41.87;20.96;2.0;989.66;58.213;35.9579;-83.924576;776.87;NaN;;3.74;12.226105;154.7;10 / 16;80016;2022-10-02 18:10:20:359
2.6013;8.5193;11.5313;0.3564;7.5747;6.2183;1.4393;1.4914;4.085;0.5618;-0.3424;0.2843;537.0;17.83;-43.95;-0.11;212.86;-48.23;7.09;2.0;989.63;56.951;35.957897;-83.92457;778.82;NaN;;3.71;12.226105;158.5;10 / 16;80515;2022-10-02 18:10:20:858
2.715;9.9535;4.9822;1.4679;8.1086;5.3166;0.2676;0.5139;0.2515;-0.2534;0.1219;0.0153;407.0;11.57;-45.02;2.46;200.48;-55.78;-15.43;2.0;989.65;56.803;35.957897;-83.92457;778.82;NaN;;3.71;12.226105;158.5;10 / 16;81015;2022-10-02 18:10:21:358
1.634;9.3766;7.0579;1.3696;6.5543;7.1648;-0.3747;1.6518;-0.2043;-0.3289;0.8169;0.7639;199.0;6.77;-45.39;1.31;191.61;-47.76;-12.88;2.0;989.68;56.581;35.957893;-83.92455;780.96;NaN;;4.0;12.226105;148.5;10 / 16;81515;2022-10-02 18:10:21:858
0.0024;7.3941;7.4456;0.5626;6.6246;7.2089;0.0795;0.0429;-1.7536;-0.4229;-2.6185;-0.984;299.0;-2.68;-44.68;-7.09;175.06;-42.49;-4.46;2.0;989.64;56.976;35.957893;-83.92455;780.96;NaN;;4.0;12.226105;148.5;10 / 16;82015;2022-10-02 18:10:22:358
2.2457;3.9969;8.9324;4.6912;4.5137;7.3341;-1.907;0.2843;0.5122;-0.4472;0.5881;1.7718;214.0;3.68;-43.39;-10.14;193.94;-27.4;-32.6;2.0;989.65;57.493;35.957886;-83.924545;782.75;NaN;;3.71;12.226105;153.4;10 / 16;82515;2022-10-02 18:10:22:858
-1.2879;4.8601;4.6816;-0.7127;6.9096;6.9224;2.7906;-2.9005;-2.6199;0.3417;1.87;0.7541;154.0;-14.21;-41.85;-10.31;147.87;-44.8;5.88;2.0;989.64;57.943;35.957886;-83.924545;782.75;NaN;;3.71;12.226105;153.4;10 / 16;83016;2022-10-02 18:10:23:359
0.2405;6.8949;7.9543;1.4766;6.9945;6.7132;-0.4756;-0.6856;0.5673;0.3782;-0.5327;0.2352;375.0;-13.05;-42.84;-8.55;153.63;-43.55;-6.51;2.0;989.7;57.431;35.957874;-83.92453;783.31;NaN;;4.0;12.226105;146.3;11 / 16;83516;2022-10-02 18:10:23:859
5.4718;7.1656;4.7776;4.7311;7.1296;4.7912;0.5279;0.0652;-0.3635;-0.8843;-1.5028;-0.9661;352.0;-26.49;-38.7;-0.28;126.96;-46.04;-44.4;2.0;989.67;58.189;35.957874;-83.92453;783.31;NaN;;4.0;12.226105;146.3;11 / 16;84015;2022-10-02 18:10:24:358
3.0858;7.2805;6.4352;2.79;5.8868;7.3302;-3.3055;-0.4004;-0.026;0.2632;-0.9335;-0.1229;326.0;-4.89;-43.31;-6.21;175.16;-36.89;-20.84;2.0;989.69;57.817;35.957867;-83.92452;783.19;NaN;;4.28;12.226105;159.9;11 / 16;84516;2022-10-02 18:10:24:859
1.555;-2.7843;9.6458;3.9413;2.9405;8.4847;-1.8715;-4.7054;0.8709;0.4399;-0.4687;0.301;681.0;13.35;-31.56;-29.08;224.67;-17.45;-24.92;2.0;989.68;52.336;35.957867;-83.92452;783.19;NaN;;4.28;12.226105;159.9;11 / 16;85016;2022-10-02 18:10:25:359
3.329;4.0196;7.8742;2.668;2.5629;9.0821;3.5875;1.7966;-4.0765;0.6304;1.001;0.4875;626.0;0.79;-30.66;-31.18;203.57;-15.15;-16.37;2.0;989.67;53.006;35.957855;-83.924515;784.12;NaN;;4.03;12.226105;155.3;11 / 16;85516;2022-10-02 18:10:25:859
1.8733;5.4694;6.9691;1.8813;3.8;8.8426;-1.4386;0.2268;-1.1375;0.3533;0.2479;0.6409;781.0;-8.17;-37.97;-19.67;172.73;-21.16;-12.33;2.0;989.65;58.388;35.957855;-83.924515;784.12;NaN;;4.03;12.226105;155.3;11 / 16;86016;2022-10-02 18:10:26:359
1.2425;3.5575;7.8383;2.3888;2.4153;9.1995;-0.7959;1.0939;-1.1335;-0.0794;-0.1139;-0.1801;686.0;-11.85;-33.86;-20.76;166.85;-14.54;-14.6;2.0;989.67;58.364;35.957848;-83.92451;786.7;NaN;;3.78;12.226105;159.5;11 / 16;86515;2022-10-02 18:10:26:858
2.6025;1.9872;8.9264;2.9637;1.2639;9.2623;0.0928;0.9182;-0.7825;-0.2308;0.3059;-0.1108;620.0;-15.36;-29.17;-23.89;164.55;-7.41;-17.74;2.0;989.64;57.686;35.957848;-83.92451;786.7;NaN;;3.78;12.226105;159.5;11 / 16;87015;2022-10-02 18:10:27:358
1.5622;1.7764;8.7829;1.7073;1.0196;9.6029;-0.4669;0.3051;-1.2856;0.1535;0.1817;-0.4135;523.0;-13.95;-27.39;-28.37;162.53;-3.92;-12.09;2.0;989.66;57.305;35.95784;-83.9245;786.8;NaN;;3.64;12.226105;160.5;11 / 16;87515;2022-10-02 18:10:27:858
-0.7349;0.7361;7.4504;0.06;-0.246;9.8034;0.8747;-0.2801;0.0324;-0.037;-0.2245;0.3628;422.0;-1.41;-26.12;-34.56;178.33;1.44;-0.35;2.0;989.65;57.321;35.95784;-83.9245;786.8;NaN;;3.64;12.226105;160.5;11 / 16;88015;2022-10-02 18:10:28:358
-0.0502;1.0534;7.7414;0.8562;-0.0391;9.7691;-0.4641;0.102;-0.3464;-0.2505;0.0079;-0.2872;290.0;-1.48;-26.81;-35.81;184.52;0.23;-5.01;2.0;989.63;61.212;35.957832;-83.9245;786.94;NaN;;3.67;12.226105;159.0;11 / 16;88515;2022-10-02 18:10:28:858
-0.2441;-4.3621;8.9683;1.2088;-3.3475;9.138;-0.3655;-1.9899;3.7763;-0.5191;-0.2459;0.0628;252.0;1.01;-19.18;-40.39;191.25;19.96;-7.54;2.0;989.69;54.431;35.957832;-83.9245;786.94;NaN;;3.67;12.226105;159.0;11 / 16;89015;2022-10-02 18:10:29:358
0.687;-4.6253;7.9771;2.2584;-4.6398;8.3392;-0.3696;-0.7206;0.8192;0.0909;0.2437;-0.0599;157.0;-0.28;-9.75;-43.31;201.95;28.64;-15.57;2.0;989.64;55.132;35.95783;-83.924484;785.9;NaN;;3.17;12.226105;164.8;10 / 16;89515;2022-10-02 18:10:29:858
1.4246;-3.9538;7.5918;1.1978;-4.4775;8.6422;0.1559;-2.8211;0.6132;0.2879;-0.0484;0.2445;155.0;0.38;-7.13;-42.37;193.26;29.49;-8.56;2.0;989.66;55.701;35.95783;-83.924484;785.9;NaN;;3.17;12.226105;164.8;10 / 16;90015;2022-10-02 18:10:30:358
2.4503;-4.5176;9.1741;2.0861;-3.6196;8.8722;2.3657;0.2842;-0.8183;-0.9648;-0.1377;-0.733;161.0;-0.11;-10.95;-39.81;200.42;21.66;-13.23;2.0;989.69;60.455;35.95782;-83.924484;785.4;NaN;;3.64;12.226105;161.4;10 / 16;90515;2022-10-02 18:10:30:858
1.1013;-1.7453;10.2335;0.451;-0.5878;9.7786;0.252;-3.7992;5.65;1.147;0.3016;1.3354;173.0;8.7;-15.24;-36.13;211.91;3.44;-2.64;2.0;989.66;51.046;35.95782;-83.924484;785.4;NaN;;3.64;12.226105;161.4;10 / 16;91015;2022-10-02 18:10:31:358
1.0558;3.9419;9.4795;0.8149;3.6609;9.0611;2.4867;2.8571;0.0858;-0.431;-0.8698;-0.7522;170.0;-1.67;-31.84;-22.61;180.19;-21.92;-5.14;2.0;989.65;37.336;35.957813;-83.92448;786.63;NaN;;4.07;12.226105;167.9;10 / 16;91515;2022-10-02 18:10:31:858
1.0032;1.4115;10.4145;0.0758;1.3939;9.7068;-1.6911;0.8978;2.7401;-1.1432;0.0907;-0.2131;145.0;-1.54;-33.17;-24.15;177.15;-15.36;-1.74;2.0;989.69;49.131;35.957813;-83.92448;786.63;NaN;;4.07;12.226105;167.9;10 / 16;92016;2022-10-02 18:10:32:359
5.2059;3.2261;5.9495;2.977;3.2534;8.7592;1.4584;-1.0039;4.2397;1.748;0.3389;0.2377;133.0;-4.97;-30.54;-28.41;191.42;-10.19;-20.59;2.0;989.64;53.316;35.957806;-83.92447;788.42;NaN;;3.46;12.226105;158.9;10 / 16;92515;2022-10-02 18:10:32:858
2.0674;3.8916;8.3794;1.7318;3.483;9.0022;-0.8352;2.0969;-0.3152;-0.8837;-0.8096;0.0457;108.0;-10.18;-36.56;-22.18;167.82;-20.8;-10.89;2.0;989.65;54.169;35.957806;-83.92447;788.42;NaN;;3.46;12.226105;158.9;10 / 16;93015;2022-10-02 18:10:33:358
7.6397;2.1452;8.0632;4.5815;1.6612;8.51;1.4645;0.7903;0.1436;-1.2344;-0.912;-0.3414;114.0;-9.09;-35.59;-25.01;181.11;-14.59;-20.98;2.0;989.65;52.213;35.95779;-83.92447;788.33;NaN;;3.49;12.226105;152.1;10 / 16;93516;2022-10-02 18:10:33:859
5.7087;0.8728;14.7583;4.7848;-0.1811;8.5582;-2.9833;1.4306;0.6042;1.6534;-0.0271;0.1985;141.0;-14.64;-30.21;-29.1;181.98;1.06;-29.21;2.0;989.66;52.95;35.95779;-83.92447;788.33;NaN;;3.49;12.226105;152.1;10 / 16;94015;2022-10-02 18:10:34:358
4.465;3.2704;7.9496;3.6914;3.1211;8.5325;-0.1608;0.1781;-2.3644;-0.7478;-0.7668;0.3549;185.0;-13.72;-34.48;-25.24;172.81;-18.56;-23.39;2.0;989.62;53.009;35.957787;-83.92446;788.41;NaN;;3.89;12.226105;143.4;10 / 16;94515;2022-10-02 18:10:34:858
2.764;2.6779;11.5241;4.136;1.9932;8.6655;-2.1778;0.996;-2.3573;-0.5931;-0.5918;0.3693;182.0;-14.02;-35.51;-25.14;176.37;-11.73;-25.52;2.0;989.61;54.914;35.957787;-83.92446;788.41;NaN;;3.89;12.226105;143.4;10 / 16;95015;2022-10-02 18:10:35:358
4.3609;3.3386;8.2035;3.1247;3.4897;8.6156;-0.4047;-0.4117;-2.8922;0.151;0.3593;5.0E-4;210.0;-15.17;-35.44;-25.09;169.46;-19.54;-22.4;2.0;989.58;53.019;35.957775;-83.92445;788.58;NaN;;4.75;12.226105;147.0;10 / 16;95515;2022-10-02 18:10:35:858
2.7987;2.8777;9.4244;3.6496;2.5233;8.7455;-0.6534;0.4528;-0.2409;0.0121;0.1597;0.1153;210.0;-13.44;-36.37;-24.97;175.5;-14.58;-23.03;2.0;989.59;51.819;35.957775;-83.92445;788.58;NaN;;4.75;12.226105;147.0;10 / 16;96015;2022-10-02 18:10:36:358
1.2939;3.1819;7.9531;2.5011;2.7387;9.0782;-0.8642;-0.0267;-1.5212;0.1423;0.4119;0.2374;264.0;-10.54;-35.81;-26.31;172.13;-16.22;-15.4;2.0;989.58;51.311;35.957767;-83.924446;789.18;NaN;;4.54;12.226105;143.9;10 / 16;96515;2022-10-02 18:10:36:858
1.9307;2.6264;6.7131;3.2526;1.7298;9.0884;-0.9312;0.753;-2.2006;-0.3247;-0.3961;-0.1111;296.0;-13.48;-33.45;-26.59;173.42;-10.16;-19.69;2.0;989.6;53.479;35.957767;-83.924446;789.18;NaN;;4.54;12.226105;143.9;10 / 16;97016;2022-10-02 18:10:37:359
1.081;1.2305;8.2657;3.2372;1.9669;9.0456;-0.3159;0.3222;-0.9814;-0.3223;1.1197;0.818;381.0;-13.91;-32.36;-27.54;171.52;-11.57;-19.69;2.0;989.56;52.154;35.95776;-83.92443;790.09;NaN;;4.68;12.226105;140.2;10 / 16;97515;2022-10-02 18:10:37:858
-1.0295;-1.4091;9.2701;0.3046;-0.9515;9.7556;-0.3335;-1.3957;0.3027;0.7715;-0.6753;0.434;441.0;-8.79;-22.89;-35.89;162.79;10.28;0.0;2.0;989.57;53.309;35.95776;-83.92443;790.09;NaN;;4.68;12.226105;140.2;10 / 16;98015;2022-10-02 18:10:38:358
-0.0275;1.0762;11.0094;-0.1087;1.9575;9.6087;-0.3131;-0.5586;0.5133;-0.2243;0.3037;0.5082;796.0;-4.71;-27.54;-33.43;165.97;-12.19;0.17;2.0;989.58;52.73;35.957752;-83.92442;789.77;NaN;;4.39;12.226105;146.8;10 / 16;98516;2022-10-02 18:10:38:859
-0.1711;3.2273;9.2112;0.6084;1.9844;9.5845;0.1094;-0.5809;0.9487;0.2498;-0.5325;-0.7245;733.0;-7.59;-29.31;-31.31;164.72;-11.67;-3.63;2.0;989.59;64.73;35.957752;-83.92442;789.77;NaN;;4.39;12.226105;146.8;10 / 16;99014;2022-10-02 18:10:39:357
-3.5755;3.1543;3.7062;-3.4032;2.8254;8.7525;-0.0042;0.4719;1.9475;-0.0908;1.3008;0.1704;835.0;-2.06;-31.5;-29.29;156.73;-17.59;15.23;2.0;989.59;53.003;35.957745;-83.924416;791.4;NaN;;4.25;12.226105;146.9;10 / 16;99515;2022-10-02 18:10:39:858
-2.0351;0.6978;12.0601;-1.8304;1.1236;9.5686;-0.1022;1.2801;0.1957;-1.3568;-0.5485;-0.5188;797.0;6.06;-31.2;-28.46;181.32;-6.58;10.83;2.0;989.59;51.73;35.957745;-83.924416;791.4;NaN;;4.25;12.226105;146.9;10 / 16;100015;2022-10-02 18:10:40:358
1.5742;-0.917;11.2319;0.0093;0.3819;9.7992;-0.6071;-1.0867;1.1153;0.9913;-0.7973;-0.7056;1014.0;0.41;-19.91;-37.8;180.11;-2.23;-0.05;2.0;989.57;52.96;35.957737;-83.92441;790.77;NaN;;4.28;12.226105;154.0;10 / 16;100514;2022-10-02 18:10:40:857
1.9271;2.0112;8.2681;0.0785;1.5828;9.6778;-0.442;0.2769;-0.5266;-0.5865;-0.305;-0.9063;1173.0;-0.83;-27.39;-33.07;178.03;-9.29;-0.46;2.0;989.61;52.862;35.957737;-83.92441;790.77;NaN;;4.28;12.226105;154.0;10 / 16;101015;2022-10-02 18:10:41:358
-1.8206;3.1555;9.1131;-0.9037;2.1116;9.5339;-0.1389;-0.1341;0.9658;0.5966;0.4609;0.2882;1152.0;-0.15;-29.25;-31.2;177.03;-9.31;2.26;2.0;989.57;51.586;35.95773;-83.9244;792.33;NaN;;4.43;12.226105;152.1;10 / 16;101515;2022-10-02 18:10:41:858
-0.1974;2.3246;11.1266;-0.3144;2.7911;9.3958;0.5116;-0.0647;1.0697;0.1655;0.6088;0.057;1130.0;0.69;-30.22;-28.57;180.8;-16.37;1.41;2.0;989.57;55.536;35.95773;-83.9244;792.33;NaN;;4.43;12.226105;152.1;10 / 16;102015;2022-10-02 18:10:42:358
-5.5388;3.6377;6.5779;-4.5848;2.0198;8.4303;1.1109;-1.0896;1.794;0.7658;1.808;-0.0782;1078.0;8.55;-28.29;-28.46;165.69;-11.89;28.54;2.0;989.59;52.819;35.95772;-83.92439;792.14;NaN;;4.25;12.226105;151.4;10 / 16;102518;2022-10-02 18:10:42:861
-3.4822;3.195;8.0883;-3.6015;2.7769;8.6884;-0.2435;0.6531;-0.9003;-0.0665;-0.0958;0.068;683.0;20.61;-31.33;-22.93;206.29;-16.45;22.52;2.0;989.57;51.636;35.95772;-83.92439;792.14;NaN;;4.25;12.226105;151.4;10 / 16;103015;2022-10-02 18:10:43:358
-5.0061;2.7927;7.66;-3.9631;2.6308;8.5758;1.1396;0.5612;-1.072;0.04;0.7249;0.1356;151.0;18.0;-31.97;-24.54;194.45;-15.56;24.8;2.0;989.57;50.235;35.95771;-83.924385;791.33;NaN;;3.85;12.226105;153.7;10 / 16;103516;2022-10-02 18:10:43:859
-3.2285;2.6049;9.0114;-3.1301;1.6786;9.1409;-0.2811;0.1232;-1.0055;-0.4034;-0.412;0.3701;831.0;22.07;-30.66;-23.78;205.05;-11.57;22.14;2.0;989.58;50.396;35.95771;-83.924385;791.33;NaN;;3.85;12.226105;153.7;10 / 16;104015;2022-10-02 18:10:44:358
-1.8003;1.2329;8.3518;-1.1082;1.0566;9.6864;-0.6958;0.225;-1.0895;1.0E-4;-0.0704;0.2494;958.0;13.89;-28.48;-31.33;200.96;-4.29;7.63;2.0;989.55;50.524;35.957703;-83.924385;792.17;NaN;;4.18;12.226105;157.7;10 / 16;104515;2022-10-02 18:10:44:858
-1.2891;1.2162;8.2956;-1.1862;0.4991;9.7218;0.202;-0.18;0.8399;0.1739;-0.1459;-0.37;1168.0;9.28;-27.36;-33.94;190.82;-2.92;6.96;2.0;989.55;49.968;35.957703;-83.924385;792.17;NaN;;4.18;12.226105;157.7;10 / 16;105014;2022-10-02 18:10:45:357
-1.6472;0.0969;9.0138;-1.5753;-0.2057;9.6771;-0.1704;-0.6511;-0.4359;-0.0787;-0.069;0.0362;1205.0;11.96;-21.69;-37.16;194.95;0.9;9.04;2.0;989.55;50.662;35.95769;-83.924385;794.0;NaN;;4.0;12.226105;168.5;10 / 16;105515;2022-10-02 18:10:45:858
-1.3107;0.7469;9.9607;-1.3699;1.132;9.6443;-0.4231;-1.7834;3.0366;0.1207;0.1672;0.1258;1202.0;12.36;-23.66;-35.74;199.24;-6.63;8.08;2.0;989.54;49.519;35.95769;-83.924385;794.0;NaN;;4.0;12.226105;168.5;10 / 16;106015;2022-10-02 18:10:46:358
-2.4562;0.4681;10.9866;-1.5575;1.0202;9.6283;-0.0123;0.2249;1.2965;-0.0637;0.0093;-0.4087;1183.0;9.92;-28.37;-33.17;190.73;-5.97;9.19;2.0;989.57;50.406;35.95768;-83.92438;795.46;NaN;;4.28;12.226105;169.4;10 / 16;106517;2022-10-02 18:10:46:860
-2.8681;0.1795;10.2574;-2.2114;1.461;9.4417;0.3633;0.2323;1.4393;0.1822;-0.3678;0.1305;1180.0;9.09;-28.07;-34.22;182.57;-8.57;13.18;2.0;989.55;63.227;35.95768;-83.92438;795.46;NaN;;4.28;12.226105;169.4;10 / 16;107015;2022-10-02 18:10:47:358
-2.7867;-0.3461;9.8626;-1.9776;-0.2045;9.603;1.4308;2.025;0.6195;-1.0155;0.5514;-1.4078;1166.0;8.94;-27.88;-33.75;187.51;-7.78;9.88;2.0;989.58;49.884;35.957672;-83.92437;794.77;NaN;;4.25;12.226105;161.4;10 / 16;107516;2022-10-02 18:10:47:859
-3.7277;-1.488;8.694;-2.0157;0.3515;9.5908;-0.4293;0.1416;1.0212;-0.5269;-0.2159;0.4704;1204.0;15.06;-22.01;-35.76;197.51;-2.25;13.09;2.0;989.58;46.522;35.957672;-83.92437;794.77;NaN;;4.25;12.226105;161.4;10 / 16;108015;2022-10-02 18:10:48:358
0.2838;3.4439;7.9783;-0.6331;3.2787;9.2206;0.9904;-0.7649;-0.9455;0.5049;-0.3867;-0.3877;1202.0;4.03;-29.03;-31.41;186.3;-19.53;3.93;2.0;989.56;47.114;35.957664;-83.92437;794.11;NaN;;4.14;12.226105;163.3;10 / 16;108515;2022-10-02 18:10:48:858
-1.701;2.7365;11.2283;-1.4141;2.252;9.4392;-0.7755;0.3071;-0.368;0.2382;-0.618;0.2101;1189.0;5.66;-31.41;-28.37;184.32;-13.28;8.52;2.0;989.56;50.663;35.957664;-83.92437;794.11;NaN;;4.14;12.226105;163.3;10 / 16;109015;2022-10-02 18:10:49:358
-0.5195;2.8286;9.192;-0.7363;2.3423;9.4943;-0.376;-0.1021;-1.3209;0.2341;-0.4453;-0.2505;1171.0;7.65;-30.02;-28.63;194.56;-13.82;4.43;2.0;989.54;50.136;35.957657;-83.92436;794.09;NaN;;3.96;12.226105;158.1;10 / 16;109516;2022-10-02 18:10:49:859
-3.5743;-0.8222;7.8826;-2.9454;-1.0267;9.2974;0.7872;1.8479;-1.8406;-0.6493;0.3607;-1.1687;1194.0;13.58;-26.23;-30.39;194.33;-0.9;13.67;2.0;989.54;50.159;35.957657;-83.92436;794.09;NaN;;3.96;12.226105;158.1;10 / 16;110015;2022-10-02 18:10:50:358
-2.5786;1.063;7.5954;-1.9413;2.3959;9.3092;-0.7093;-0.6104;-0.2603;0.1009;-0.8346;-0.0393;1113.0;26.66;-17.87;-29.29;236.23;-11.2;19.37;2.0;989.53;49.494;35.95765;-83.92436;793.82;NaN;;4.21;12.226105;179.6;10 / 16;110515;2022-10-02 18:10:50:858
-4.1034;2.8537;5.6824;-2.2152;2.3101;9.2697;1.2088;0.5678;0.7882;0.0692;-0.5269;-1.3796;1139.0;17.78;-29.59;-26.76;207.06;-13.62;13.44;2.0;989.51;50.267;35.95765;-83.92436;793.82;NaN;;4.21;12.226105;179.6;10 / 16;111015;2022-10-02 18:10:51:358
-1.7752;2.0698;9.2375;-1.8746;2.0751;9.3995;-0.8004;-0.1034;-1.066;0.0656;-0.6097;0.7017;1208.0;24.71;-26.87;-26.59;219.31;-11.04;16.07;2.0;989.56;50.739;35.957638;-83.92436;794.83;NaN;;4.39;12.226105;202.1;10 / 16;111514;2022-10-02 18:10:51:857
-0.7935;2.6755;7.4312;-0.3709;2.3672;9.5094;-0.4378;-0.6427;1.2688;0.0657;0.1494;-0.1751;1230.0;21.17;-26.68;-30.56;226.87;-13.97;2.23;2.0;989.59;51.185;35.957638;-83.92436;794.83;NaN;;4.39;12.226105;202.1;10 / 16;112015;2022-10-02 18:10:52:358
-4.0256;2.2241;4.0149;-3.7125;1.9424;8.8665;3.3083;0.8552;-0.6365;-0.489;2.1859;-0.5443;1225.0;20.87;-29.36;-28.95;200.79;-11.42;22.72;2.0;989.56;50.276;35.957623;-83.92436;797.1;NaN;;4.61;12.226105;196.2;10 / 16;112515;2022-10-02 18:10:52:858
-0.7935;1.2197;5.7386;-0.4856;1.2512;9.7144;-0.387;-0.2922;0.882;-0.0545;-0.3373;-1.0393;1196.0;34.56;-16.11;-27.99;250.21;-7.33;2.86;2.0;989.5;50.54;35.957623;-83.92436;797.1;NaN;;4.61;12.226105;196.2;10 / 16;113015;2022-10-02 18:10:53:358
9.5788;-0.3748;-3.5372;8.7796;2.3343;-3.6934;2.954;-1.1855;0.8811;0.0035;-3.0944;-0.6393;1061.0;3.21;-21.09;-28.76;234.42;-12.69;-87.17;2.0;989.58;50.346;35.95761;-83.92437;797.61;NaN;;4.25;12.226105;215.7;10 / 16;113515;2022-10-02 18:10:53:858
6.4364;0.8692;-2.6276;8.5253;-0.9635;-4.7499;-2.0536;1.9288;2.0787;0.1477;-0.0125;0.7132;524.0;-36.94;-24.58;3.56;208.88;1.91;-118.95;2.0;989.57;57.213;35.95761;-83.92437;797.61;NaN;;4.25;12.226105;215.7;10 / 16;114016;2022-10-02 18:10:54:359
7.3187;-1.5215;-3.3829;8.8704;1.2178;-4.0004;-1.5123;-2.3666;0.4768;0.8956;0.12;-1.735;64.0;-36.54;-18.06;-0.58;229.6;-7.13;-114.27;2.0;989.56;51.878;35.957603;-83.92437;797.99;NaN;;4.14;12.226105;221.2;10 / 16;114515;2022-10-02 18:10:54:858
8.1832;0.5818;-3.7732;8.2897;-1.1577;-5.1099;-0.9994;1.0749;2.0978;1.8516;-0.3679;0.1838;111.0;-27.22;-23.74;8.76;193.5;6.78;-121.65;2.0;989.62;50.092;35.957603;-83.92437;797.99;NaN;;4.14;12.226105;221.2;10 / 16;115015;2022-10-02 18:10:55:358
9.5046;-1.3848;-2.1069;8.7949;-0.2293;-4.3322;5.1089;-1.9646;2.0446;1.9918;0.1268;-2.5864;76.0;-31.48;-19.91;18.92;170.88;1.34;-116.22;2.0;989.58;48.796;35.957592;-83.92438;799.53;NaN;;4.21;12.226105;207.4;10 / 16;115517;2022-10-02 18:10:55:860
3.8593;1.337;-3.3912;8.4921;2.2136;-4.3766;-3.2182;-2.0082;0.6564;0.5795;0.3102;0.7461;98.0;-20.74;-28.09;30.21;133.13;-20.39;-119.6;2.0;989.57;48.925;35.957592;-83.92438;799.53;NaN;;4.21;12.226105;207.4;10 / 16;116016;2022-10-02 18:10:56:359
6.428;-1.7824;-5.9112;8.2049;2.1051;-4.9416;-0.1138;-4.2785;-1.7225;0.6344;0.0125;-2.6253;82.0;-23.98;-16.52;35.53;128.39;-0.53;-117.25;2.0;989.61;49.137;35.95758;-83.924385;798.38;NaN;;4.61;12.226105;193.0;10 / 16;116516;2022-10-02 18:10:56:859
6.5312;1.0786;-3.4487;8.3674;-0.0756;-5.1138;2.4164;-0.8251;-3.0221;0.032;-0.422;1.2563;97.0;-16.56;-10.01;42.84;110.28;0.44;-121.43;2.0;989.56;49.837;35.95758;-83.924385;798.38;NaN;;4.61;12.226105;193.0;10 / 16;117016;2022-10-02 18:10:57:359
5.851;-1.8685;-4.3143;8.2541;2.3203;-4.7599;0.9762;-3.9455;-0.96;-0.9311;0.5921;-2.1272;59.0;-17.06;-0.08;43.11;94.56;3.26;-122.99;2.0;989.61;49.851;35.957577;-83.92436;788.93;NaN;;3.53;12.226105;117.7;10 / 16;117515;2022-10-02 18:10:57:858
6.3849;3.3015;0.8692;8.9841;1.7539;-3.5184;5.0895;1.7192;-3.4162;-0.3502;-0.0108;0.5582;90.0;-19.09;-11.34;41.31;99.06;-10.3;-111.39;2.0;989.63;50.694;35.957577;-83.92436;788.93;NaN;;3.53;12.226105;117.7;10 / 16;118015;2022-10-02 18:10:58:358
7.1154;-0.7887;-3.0873;9.1824;2.5136;-2.3529;0.0014;-2.8679;0.1425;2.4723;0.3686;-2.0192;127.0;-28.89;-19.31;31.88;110.98;-14.85;-104.37;2.0;989.57;49.413;35.957577;-83.92435;787.48;NaN;;4.57;12.226105;105.0;10 / 16;118515;2022-10-02 18:10:58:858
4.8242;2.4849;-2.6456;8.0567;2.8848;-4.7894;3.6011;0.0032;0.6667;-0.2404;0.2827;1.0297;127.0;-19.01;-16.74;40.39;102.41;-17.11;-120.73;2.0;989.57;49.192;35.957577;-83.92435;787.48;NaN;;4.57;12.226105;105.0;10 / 16;119015;2022-10-02 18:10:59:358
6.9093;1.2748;-3.3589;8.4975;3.3443;-3.5747;0.5106;-1.2686;0.7651;0.682;0.3454;-1.5254;82.0;-21.82;-18.28;38.93;111.98;-10.84;-113.12;2.0;989.59;49.671;35.95758;-83.92433;786.0;NaN;;4.1;12.226105;99.7;10 / 16;119515;2022-10-02 18:10:59:858
5.6776;1.5634;-3.5456;7.6443;-0.3457;-6.1331;-1.8002;2.306;2.28;0.8282;-1.5273;1.7498;106.0;-18.66;-22.63;37.97;127.05;-8.79;-120.89;2.0;989.59;49.664;35.95758;-83.92433;786.0;NaN;;4.1;12.226105;99.7;10 / 16;120015;2022-10-02 18:11:00:358
5.2059;-1.0798;-5.4108;8.3564;1.8547;-4.7856;0.8514;-1.6681;-0.6374;0.498;0.5966;-2.4478;73.0;-18.81;-15.0;41.1;106.53;-10.9;-119.8;2.0;989.62;50.143;35.957577;-83.92431;785.3;NaN;;4.32;12.226105;105.9;10 / 16;120515;2022-10-02 18:11:00:858
8.5983;0.2886;-4.6792;7.9053;-1.3524;-5.6434;-2.0421;1.7831;1.8172;-1.9969;-0.3302;2.6249;86.0;-19.67;-20.79;37.73;143.5;7.93;-125.52;2.0;989.62;48.384;35.957577;-83.92431;785.3;NaN;;4.32;12.226105;105.9;10 / 16;121015;2022-10-02 18:11:01:358
6.2928;-1.4725;-4.981;9.4052;1.3621;-2.4203;1.0792;-3.0264;-2.6623;-0.1813;0.5391;-1.0331;82.0;-30.51;-21.64;28.48;130.65;-7.98;-104.43;2.0;989.58;49.301;35.957573;-83.92429;788.46;NaN;;5.18;12.226105;112.9;10 / 16;121515;2022-10-02 18:11:01:858
10.0373;2.4885;-1.6627;7.7346;-1.5137;-5.8357;0.8139;2.7261;2.9422;-0.3486;-0.731;1.5674;101.0;-27.45;-29.36;23.83;166.74;0.94;-120.51;2.0;989.57;49.116;35.957573;-83.92429;788.46;NaN;;5.18;12.226105;112.9;10 / 16;122015;2022-10-02 18:11:02:358
6.1959;-3.0368;-4.6505;8.2435;4.2091;-3.2402;-1.3105;-5.6544;-0.4892;2.3237;-0.1427;-2.8943;71.0;-29.55;-22.87;26.96;130.72;-9.99;-103.65;2.0;989.58;48.352;35.95757;-83.92428;790.84;NaN;;5.15;12.226105;126.5;10 / 16;122515;2022-10-02 18:11:02:858
6.6341;1.6567;-2.3545;8.6778;-0.0602;-4.5676;0.1883;0.3705;0.5822;-1.8656;0.215;1.2626;80.0;-21.82;-22.59;33.64;139.48;0.35;-117.76;2.0;989.56;47.758;35.95757;-83.92428;790.84;NaN;;5.15;12.226105;126.5;10 / 16;123016;2022-10-02 18:11:03:359
4.8123;-0.9673;-5.3605;8.3299;2.4223;-4.5734;1.7064;-1.5962;-0.2532;1.1827;0.789;-3.1422;68.0;-26.92;-21.64;31.74;156.6;3.04;-125.41;2.0;989.58;48.271;35.957558;-83.92426;796.37;NaN;;4.86;12.226105;130.1;10 / 16;123515;2022-10-02 18:11:03:858
6.597;2.1081;-3.6918;8.3916;0.4174;-5.0574;1.2328;1.654;0.5474;-0.3247;-0.284;0.6706;62.0;-22.99;-28.99;33.02;149.12;-2.44;-121.08;2.0;989.56;47.999;35.957558;-83.92426;796.37;NaN;;4.86;12.226105;130.1;10 / 16;124016;2022-10-02 18:11:04:359
9.5716;-0.2142;-4.4124;8.6293;1.6069;-4.373;3.1449;-1.2871;0.1383;0.747;0.7407;-2.6642;48.0;-29.49;-24.15;33.0;136.14;-9.43;-116.87;2.0;989.58;49.701;35.957542;-83.924255;797.09;NaN;;4.64;12.226105;142.3;10 / 16;124515;2022-10-02 18:11:04:858
6.2282;0.8895;-2.776;8.5214;-0.368;-4.8394;-2.014;1.3084;1.9649;-0.7926;-0.0367;1.7291;53.0;-21.62;-30.69;32.85;146.22;-6.99;-119.81;2.0;989.56;46.731;35.957542;-83.924255;797.09;NaN;;4.64;12.226105;142.3;10 / 16;125015;2022-10-02 18:11:05:358
8.9013;-1.567;-3.8581;9.1283;0.9248;-3.4626;5.0341;-1.8985;0.1233;1.4214;0.7059;-3.0887;43.0;-31.59;-21.21;32.44;155.01;11.77;-117.4;2.0;989.59;47.289;35.95753;-83.924255;797.98;NaN;;4.86;12.226105;156.9;11 / 16;125517;2022-10-02 18:11:05:860
8.9934;-2.2445;-1.1444;8.5774;-4.2651;-2.0995;1.1776;1.7527;0.3706;-2.3396;0.8982;2.2139;43.0;-32.51;-26.1;25.95;150.49;11.6;-101.81;2.0;989.54;49.858;35.95753;-83.924255;797.98;NaN;;4.86;12.226105;156.9;11 / 16;126015;2022-10-02 18:11:06:358
8.0369;-5.3438;-0.6858;9.3129;-2.9211;-0.9527;5.4378;-2.7444;1.2431;1.9496;0.3287;-3.1839;45.0;-43.74;-5.04;16.13;147.99;17.33;-95.84;2.0;989.55;48.457;35.95752;-83.924255;796.72;NaN;;4.75;12.226105;164.0;11 / 16;126515;2022-10-02 18:11:06:858
7.9807;-3.3876;0.1735;9.0499;-3.6791;-0.856;0.9131;-0.4592;-0.1469;-2.94;0.175;1.6316;52.0;-40.12;-20.49;8.44;172.91;22.03;-95.4;2.0;989.58;48.25;35.95752;-83.924255;796.72;NaN;;4.75;12.226105;164.0;11 / 16;127016;2022-10-02 18:11:07:359
10.765;-4.392;-2.5953;9.1005;-3.3517;-1.4551;7.8571;-0.81;1.9962;2.6345;-0.3929;-3.6184;51.0;-40.54;-4.69;14.76;156.68;19.99;-99.08;2.0;989.54;49.185;35.957504;-83.92425;794.35;NaN;;4.9;12.226105;169.5;11 / 16;127515;2022-10-02 18:11:07:858
7.599;0.2213;-3.6739;8.6782;0.2192;-4.5619;-0.9882;-0.6036;-1.2855;-0.7639;0.0512;2.696;40.0;-26.38;-26.06;25.35;147.04;-17.26;-118.77;2.0;989.55;48.228;35.957504;-83.92425;794.35;NaN;;4.9;12.226105;169.5;11 / 16;128015;2022-10-02 18:11:08:358
9.641;-2.3282;-2.8334;9.3218;2.9668;-0.6878;0.1409;-5.4363;-1.9836;1.5476;1.7271;-2.5991;38.0;-33.96;-17.7;25.89;137.43;-0.11;-104.78;2.0;989.54;47.116;35.957493;-83.92423;793.85;NaN;;5.26;12.226105;146.2;11 / 16;128515;2022-10-02 18:11:08:858
9.3419;-0.2381;1.5885;9.1969;-2.7765;-1.9695;5.5552;0.999;-0.4577;-1.9128;-0.2877;2.3592;70.0;-34.09;-26.03;16.71;164.96;16.45;-102.09;2.0;989.53;47.504;35.957493;-83.92423;793.85;NaN;;5.26;12.226105;146.2;11 / 16;129015;2022-10-02 18:11:09:358
9.5704;-3.5719;-1.0451;9.7644;0.899;-0.1343;1.1517;-4.5214;-0.8072;1.3402;0.8311;-2.7984;72.0;-42.24;-9.04;17.79;149.67;15.57;-97.98;2.0;989.53;46.692;35.95748;-83.92423;792.9;NaN;;5.36;12.297954;171.7;12 / 16;129515;2022-10-02 18:11:09:858
8.2848;0.4525;0.0335;9.7121;-0.1418;-1.351;3.6722;-1.0085;-0.6194;-0.3048;-0.942;2.1996;84.0;-34.69;-27.15;17.01;156.42;0.83;-97.92;2.0;989.54;46.599;35.95748;-83.92423;792.9;NaN;;5.36;12.297954;171.7;12 / 16;130015;2022-10-02 18:11:10:358
10.5185;-3.0595;-1.4653;9.6833;1.1986;-0.9832;2.4621;-3.9915;-0.0165;1.1741;0.7778;-2.9832;91.0;-41.06;-13.31;18.04;119.2;-7.02;-95.8;2.0;989.55;47.817;35.957462;-83.924225;792.02;NaN;;5.83;12.449852;144.5;12 / 16;130514;2022-10-02 18:11:10:857
8.4882;0.9505;1.0845;9.5613;-2.087;-0.6298;-0.7593;2.8552;1.8721;-3.0519;0.843;1.33;103.0;-33.58;-27.0;16.58;156.11;4.24;-96.41;2.0;989.55;48.069;35.957462;-83.924225;792.02;NaN;;5.83;12.449852;144.5;12 / 16;131015;2022-10-02 18:11:11:358
9.871;-1.713;-0.5124;9.7826;-0.2225;0.6489;2.8733;-2.4537;2.2147;3.0642;0.0234;-1.4962;262.0;-43.01;-16.56;2.31;173.97;13.67;-88.91;2.0;989.54;53.051;35.95745;-83.92421;789.63;NaN;;5.11;12.400022;146.7;11 / 16;131515;2022-10-02 18:11:11:858
7.5221;-2.1787;2.5005;9.5247;-2.3332;-0.0786;-0.6014;2.2163;0.431;-1.7603;0.2495;0.9574;267.0;-37.18;-25.71;9.84;161.14;5.62;-89.89;2.0;989.5;49.413;35.95745;-83.92421;789.63;NaN;;5.11;12.400022;146.7;11 / 16;132015;2022-10-02 18:11:12:358
8.8104;-3.4953;1.2736;9.5055;-1.8693;1.5238;2.9263;-2.238;2.4108;2.4313;-0.5617;-1.9599;282.0;-44.02;-8.4;-1.52;162.88;10.99;-80.89;2.0;989.54;49.034;35.95744;-83.9242;790.97;NaN;;5.26;12.73752;136.4;11 / 16;132516;2022-10-02 18:11:12:859
9.0305;-0.7074;0.073;9.0321;-1.7138;-3.4139;2.6808;-0.3793;2.7151;-2.1789;-0.6113;1.9023;245.0;-36.56;-23.51;14.46;179.97;10.06;-110.71;2.0;989.54;47.224;35.95744;-83.9242;790.97;NaN;;5.26;12.73752;136.4;11 / 16;133015;2022-10-02 18:11:13:358
8.9025;-3.7672;-1.4653;9.4283;-2.0495;-1.7541;4.4235;2.1572;1.5431;2.1099;-0.0295;-2.9176;134.0;-40.82;-14.14;13.8;164.54;12.06;-100.54;2.0;989.53;50.099;35.957428;-83.924194;791.05;NaN;;5.29;12.576756;150.6;11 / 16;133516;2022-10-02 18:11:13:859
11.33;-0.0849;-0.0479;9.3485;-1.561;-2.5178;1.9713;-1.2781;-0.6613;-1.6161;-0.2256;2.1826;167.0;-33.13;-26.57;14.44;162.84;-5.32;-101.25;2.0;989.51;48.704;35.957428;-83.924194;791.05;NaN;;5.29;12.576756;150.6;11 / 16;134015;2022-10-02 18:11:14:358
9.1956;-2.9052;-2.2002;9.5902;1.4584;-1.4392;1.5778;-4.2903;-0.7364;1.7734;0.0179;-2.5059;175.0;-39.73;-15.0;12.84;162.79;8.46;-99.13;2.0;989.54;54.345;35.957417;-83.92419;790.73;NaN;;5.15;13.003531;148.5;12 / 16;134515;2022-10-02 18:11:14:858
7.1273;-1.5467;0.6739;9.7238;0.6225;1.1095;1.0205;-1.2262;-5.6621;-4.8516;1.8183;1.5407;193.0;-31.59;-28.44;9.36;154.19;-3.64;-83.49;2.0;989.51;53.47;35.957417;-83.92419;790.73;NaN;;5.15;13.003531;148.5;12 / 16;135014;2022-10-02 18:11:15:357
6.379;-0.4992;-1.646;8.8388;2.8696;3.1323;0.7117;-2.6543;-3.4426;1.8047;1.5289;-0.9973;564.0;-34.22;-24.26;-14.61;203.28;-6.39;-79.46;2.0;989.44;57.495;35.957405;-83.92418;789.51;NaN;;5.08;13.00386;168.8;12 / 16;135515;2022-10-02 18:11:15:858
8.3471;1.3214;-0.0718;9.6221;-1.0952;-1.5445;5.0513;1.9616;1.064;-0.5971;-1.1873;1.0229;667.0;-32.44;-31.56;-5.7;197.34;6.41;-99.12;2.0;989.49;57.424;35.957405;-83.92418;789.51;NaN;;5.08;13.00386;168.8;12 / 16;136015;2022-10-02 18:11:16:358
10.3137;-1.2305;-1.264;9.4851;2.2241;1.1212;3.2317;-3.3166;-2.2215;1.8561;2.1429;-2.3738;365.0;-41.23;-19.84;2.14;146.56;-13.11;-83.26;2.0;989.43;58.939;35.957394;-83.92418;787.6;NaN;;5.44;13.098974;144.6;12 / 16;136515;2022-10-02 18:11:16:858
11.7981;1.1109;-0.0491;8.3434;-3.3714;-3.8977;1.8528;2.9738;4.8162;-0.211;-1.6362;2.2012;404.0;-32.4;-30.69;2.91;185.91;4.77;-101.55;2.0;989.5;57.54;35.957394;-83.92418;787.6;NaN;;5.44;13.098974;144.6;12 / 16;137015;2022-10-02 18:11:17:358
7.8048;-3.7457;-3.1208;9.5217;2.243;-0.6904;3.9265;-6.0508;-0.7553;3.2516;1.0999;-3.4291;309.0;-40.93;-15.3;7.52;182.27;8.84;-102.2;2.0;989.44;56.95;35.95738;-83.92417;787.77;NaN;;5.0;13.847393;153.6;11 / 16;137514;2022-10-02 18:11:17:857
10.9914;0.6715;-0.2524;8.5581;-3.2426;-3.5234;2.1284;3.7335;3.1062;-0.678;-0.9717;2.2919;321.0;-29.21;-33.49;9.58;175.6;3.7;-104.0;2.0;989.5;62.743;35.95738;-83.92417;787.77;NaN;;5.0;13.847393;153.6;11 / 16;138014;2022-10-02 18:11:18:357
7.7868;-2.5499;-2.8083;9.6329;1.3356;-1.2621;3.317;-4.6723;0.4705;2.4018;0.8866;-2.8652;236.0;-40.69;-15.43;9.58;153.36;-7.83;-97.46;2.0;989.47;50.19;35.957367;-83.92417;788.39;NaN;;5.11;13.012478;161.6;11 / 16;138515;2022-10-02 18:11:18:858
11.9082;-0.2189;-1.3944;8.3833;-3.2907;-3.881;0.7246;2.6875;2.439;-0.8562;-0.7213;2.6011;274.0;-33.21;-27.3;14.27;181.77;19.61;-114.84;2.0;989.5;54.464;35.957367;-83.92417;788.39;NaN;;5.11;13.012478;161.6;11 / 16;139015;2022-10-02 18:11:19:358
7.2015;-3.0897;-3.2812;9.5509;0.3328;-2.1999;4.1818;-2.8728;0.6792;0.457;0.6403;-2.2843;167.0;-40.56;-12.02;16.13;148.72;-1.94;-102.97;2.0;989.43;51.005;35.95735;-83.92416;787.87;NaN;;5.0;12.372648;154.4;11 / 16;139516;2022-10-02 18:11:19:859
6.7071;4.4782;4.6983;9.1273;1.202;-3.379;-0.905;2.1713;-2.2793;-3.8121;-0.1083;2.1102;234.0;-31.56;-32.4;14.06;175.09;-12.26;-110.26;2.0;989.49;48.594;35.95735;-83.92416;787.87;NaN;;5.0;12.372648;154.4;11 / 16;140015;2022-10-02 18:11:20:358
7.8239;-0.3126;-3.481;9.0819;2.9443;-2.2406;-1.2541;-2.94;0.2356;1.6326;0.4712;-1.625;291.0;-37.33;-28.39;9.92;179.84;-8.87;-105.04;2.0;989.47;47.949;35.95734;-83.92415;784.93;NaN;;5.04;12.226105;157.3;10 / 16;140515;2022-10-02 18:11:20:858
9.1932;1.3717;-1.3418;8.9648;-0.327;-3.9619;-0.4623;1.768;0.8209;-0.6444;-0.502;1.4095;301.0;-32.49;-31.16;16.07;176.98;1.91;-113.84;2.0;989.46;49.592;35.95734;-83.92415;784.93;NaN;;5.04;12.226105;157.3;10 / 16;141016;2022-10-02 18:11:21:359
5.5101;-2.4251;-3.1376;9.1328;3.2462;-1.4913;0.142;-5.0997;-1.722;0.9278;0.9276;-2.4091;193.0;-38.57;-21.37;18.56;155.4;-3.31;-104.71;2.0;989.47;46.851;35.95733;-83.92415;783.69;NaN;;5.0;12.226105;168.2;11 / 16;141515;2022-10-02 18:11:21:858
10.2586;2.2899;-2.2146;8.8206;-1.4408;-4.0363;2.0855;1.9789;-0.1096;-0.1134;-0.7402;1.8143;211.0;-32.36;-30.84;17.49;176.59;8.45;-114.59;2.0;989.47;48.292;35.95733;-83.92415;783.69;NaN;;5.0;12.226105;168.2;11 / 16;142016;2022-10-02 18:11:22:359
6.7717;-2.5029;-2.9614;9.0366;2.8408;-2.5378;0.7904;-5.8039;-0.6928;1.957;0.4329;-3.0544;163.0;-39.75;-17.91;19.44;121.51;-16.84;-105.69;2.0;989.45;54.965;35.95732;-83.92414;787.34;NaN;;5.0;12.226105;150.8;11 / 16;142515;2022-10-02 18:11:22:858
11.9967;2.9219;-3.4451;8.0754;-3.063;-4.645;3.8855;5.7944;0.4674;-1.0482;-0.5278;1.6168;201.0;-30.94;-27.53;24.08;164.0;10.13;-113.24;2.0;989.47;48.432;35.95732;-83.92414;787.34;NaN;;5.0;12.226105;150.8;11 / 16;143015;2022-10-02 18:11:23:358
7.7043;-2.3115;-2.8597;9.461;1.6766;-1.9617;2.7477;-3.626;-0.8203;0.3005;1.6024;-2.8241;151.0;-39.73;-14.08;23.53;162.67;9.63;-112.68;2.0;989.47;53.099;35.95731;-83.92413;790.42;NaN;;5.36;12.226105;148.7;10 / 16;143516;2022-10-02 18:11:23:859
7.7892;-0.0227;-1.7297;8.6778;-2.2262;-3.9887;0.1619;2.295;2.9726;-1.0397;-0.3615;1.5696;211.0;-34.52;-30.77;15.51;175.92;4.77;-110.95;2.0;989.44;54.701;35.95731;-83.92413;790.42;NaN;;5.36;12.226105;148.7;10 / 16;144015;2022-10-02 18:11:24:358
7.2948;-3.2297;-3.5779;9.6701;0.4751;-1.5603;4.297;-2.9016;0.5528;2.438;1.63;-3.069;211.0;-43.63;-14.16;12.02;157.69;-2.78;-99.17;2.0;989.42;49.669;35.957294;-83.924126;793.2;NaN;;5.0;12.226105;158.3;11 / 16;144517;2022-10-02 18:11:24:860
10.5221;-1.1492;-0.7098;8.914;-1.0761;-3.9438;0.5415;-0.0685;1.3676;-3.4295;-0.6437;3.2124;260.0;-31.86;-32.03;13.03;181.7;6.3;-113.87;2.0;989.45;47.809;35.957294;-83.924126;793.2;NaN;;5.0;12.226105;158.3;11 / 16;145015;2022-10-02 18:11:25:358
6.8112;-3.0021;-4.325;9.5546;-0.1756;-2.2021;5.5473;-1.6475;2.1335;2.3451;0.5518;-3.1648;256.0;-43.43;-14.98;8.61;183.22;1.03;-102.98;2.0;989.37;46.739;35.957283;-83.92412;794.06;NaN;;5.33;12.226105;151.5;11 / 16;145514;2022-10-02 18:11:25:857
6.1684;-0.7983;-2.5125;8.6509;-0.376;-4.6034;1.6643;-0.1727;0.9063;-2.0746;-0.6683;2.5202;269.0;-29.81;-34.33;12.04;183.75;-10.72;-114.99;2.0;989.44;47.038;35.957283;-83.92412;794.06;NaN;;5.33;12.226105;151.5;11 / 16;146014;2022-10-02 18:11:26:357
8.5205;-5.7613;-4.1441;9.0976;1.9241;-3.1147;1.2003;-7.5738;-0.3403;3.8286;-0.118;-4.148;228.0;-42.49;-13.24;11.64;186.6;9.9;-109.03;2.0;989.39;51.114;35.95727;-83.92411;791.99;NaN;;5.0;12.226105;157.6;11 / 16;146515;2022-10-02 18:11:26:858
11.2594;1.5048;-1.6783;8.8172;-1.5423;-4.0061;1.5591;-0.2228;-1.1493;-1.3731;-0.1029;2.7746;229.0;-28.91;-28.61;22.76;165.38;9.05;-114.43;2.0;989.42;48.905;35.95727;-83.92411;791.99;NaN;;5.0;12.226105;157.6;11 / 16;147015;2022-10-02 18:11:27:358
7.4145;-3.2405;-3.7935;9.2429;2.6322;-1.952;-0.0736;-5.5774;-1.3858;2.3234;0.7536;-3.2904;203.0;-39.81;-15.97;16.13;166.68;4.74;-105.65;2.0;989.38;52.211;35.957264;-83.9241;791.48;NaN;;5.22;12.226105;148.9;11 / 16;147515;2022-10-02 18:11:27:858
10.2359;0.754;-2.1655;8.5869;-1.668;-4.4332;5.0031;-0.1029;-1.1875;-0.5582;-0.7936;1.9978;264.0;-30.71;-31.24;17.83;177.23;9.79;-117.31;2.0;989.43;44.894;35.957264;-83.9241;791.48;NaN;;5.22;12.226105;148.9;11 / 16;148015;2022-10-02 18:11:28:358
8.9551;-3.475;-4.2832;9.3482;2.6819;-1.2607;1.6355;-7.0409;-2.8615;2.5307;0.8663;-3.1637;214.0;-40.57;-16.07;14.55;111.67;-15.87;-97.68;2.0;989.38;46.424;35.957256;-83.924095;792.22;NaN;;5.04;12.226105;155.9;11 / 16;148515;2022-10-02 18:11:28:858
8.7266;-0.2321;-0.4119;7.0583;-4.1962;-5.3612;2.3993;4.3786;4.3621;1.3959;-2.2514;2.709;318.0;-31.29;-30.69;15.32;176.46;5.66;-112.3;2.0;989.42;45.281;35.957256;-83.924095;792.22;NaN;;5.04;12.226105;155.9;11 / 16;149015;2022-10-02 18:11:29:358
5.6237;-2.1344;-3.4499;9.2649;2.6259;-1.8541;1.2124;-5.6596;-1.4942;2.5994;0.7713;-2.9707;221.0;-39.39;-18.11;15.0;166.3;2.23;-104.47;2.0;989.41;45.462;35.957245;-83.924095;790.62;NaN;;4.9;12.226105;152.6;11 / 16;149516;2022-10-02 18:11:29:859
8.3949;0.5028;-1.0762;8.8228;-1.1211;-4.1319;-0.5627;1.914;2.3864;-3.9;-0.3391;2.0888;271.0;-28.37;-31.78;17.98;167.89;2.66;-110.28;2.0;989.46;47.712;35.957245;-83.924095;790.62;NaN;;4.9;12.226105;152.6;11 / 16;150016;2022-10-02 18:11:30:359
8.3052;-2.8944;-4.0723;9.4782;2.2325;-1.1619;3.6388;-3.8021;-0.4285;1.9265;0.0348;-2.0581;244.0;-39.28;-21.86;6.96;169.94;-13.16;-96.99;2.0;989.38;53.399;35.957237;-83.92408;790.61;NaN;;4.97;12.226105;155.1;11 / 16;150516;2022-10-02 18:11:30:859
12.0446;2.1547;-1.5562;8.2047;-2.5964;-4.7023;1.6605;2.4927;3.0656;-1.1931;-0.8142;2.6223;300.0;-29.61;-30.77;15.08;182.81;15.35;-119.82;2.0;989.44;45.661;35.957237;-83.92408;790.61;NaN;;4.97;12.226105;155.1;11 / 16;151016;2022-10-02 18:11:31:359
8.0046;-3.4199;-4.2245;9.4419;1.8214;-1.9242;4.0971;-4.1198;0.8384;1.8153;-0.0188;-2.6025;213.0;-40.26;-16.84;11.06;162.8;-10.7;-101.52;2.0;989.4;44.718;35.957226;-83.92408;789.96;NaN;;5.0;12.226105;167.3;11 / 16;151515;2022-10-02 18:11:31:858
9.3778;2.3833;-0.6942;9.2646;-0.7728;-3.121;-0.4379;2.5404;1.1318;-1.4491;0.2592;2.0461;303.0;-26.57;-33.41;15.0;170.16;-7.12;-109.69;2.0;989.41;45.928;35.957226;-83.92408;789.96;NaN;;5.0;12.226105;167.3;11 / 16;152016;2022-10-02 18:11:32:359
7.5799;-0.7349;-2.2744;9.2561;3.079;-1.0075;-1.9861;-4.0117;-1.3275;0.7665;0.1335;-1.3928;266.0;-38.91;-22.44;7.16;169.02;-8.5;-95.71;2.0;989.44;46.309;35.957214;-83.92407;789.8;NaN;;5.0;12.226105;148.2;11 / 16;152515;2022-10-02 18:11:32:858
9.3012;0.76;-0.2898;9.1098;-0.764;-3.5494;1.4823;1.4761;2.1346;-1.7206;-0.4652;1.3874;354.0;-34.71;-29.49;8.31;189.41;4.47;-111.29;2.0;989.42;46.384;35.957214;-83.92407;789.8;NaN;;5.0;12.226105;148.2;11 / 16;153015;2022-10-02 18:11:33:358
9.2495;-1.7333;-3.615;9.0981;3.3426;-1.4905;1.0268;-5.2361;-1.7894;1.6061;0.8514;-2.6611;256.0;-41.53;-19.12;7.48;187.12;-2.65;-102.32;2.0;989.4;45.646;35.957207;-83.924065;788.57;NaN;;4.43;12.226105;152.3;11 / 16;153515;2022-10-02 18:11:33:858
9.9105;0.5925;-1.4127;9.239;-0.0579;-3.2876;1.527;-0.3348;-1.5224;-0.4609;-0.9693;2.0677;345.0;-30.06;-35.4;8.12;184.1;0.34;-109.59;2.0;989.42;44.723;35.957207;-83.924065;788.57;NaN;;4.43;12.226105;152.3;11 / 16;154015;2022-10-02 18:11:34:358
7.3977;-1.8159;-2.5029;9.3777;2.3065;-1.7059;1.0325;-3.4336;-1.201;1.7121;0.9142;-2.5068;241.0;-41.44;-21.19;8.63;171.81;-13.6;-100.31;2.0;989.4;45.883;35.957195;-83.924065;791.82;NaN;;4.75;12.226105;158.8;11 / 16;154515;2022-10-02 18:11:34:858
8.6246;0.8007;-1.4246;8.884;-1.2984;-3.9445;-0.1472;2.1036;2.5261;-0.6155;-0.8637;1.4999;335.0;-31.95;-33.45;7.78;183.62;-1.65;-107.56;2.0;989.41;46.669;35.957195;-83.924065;791.82;NaN;;4.75;12.226105;158.8;11 / 16;155016;2022-10-02 18:11:35:359
9.6817;-0.5088;-2.91;9.5331;1.1378;-1.9989;2.2961;-0.9721;0.2129;1.6183;0.9435;-2.2494;224.0;-40.76;-21.45;9.13;192.61;6.27;-110.17;2.0;989.39;50.998;35.957184;-83.924065;793.56;NaN;;4.79;12.226105;158.1;11 / 16;155515;2022-10-02 18:11:35:858
8.9527;0.2201;-0.778;9.0159;-0.9378;-3.7423;-0.8043;1.0847;2.6899;-0.6622;-0.8661;1.6911;304.0;-31.71;-33.96;5.36;188.67;-5.46;-107.22;2.0;989.42;47.319;35.957184;-83.924065;793.56;NaN;;4.79;12.226105;158.1;11 / 16;156015;2022-10-02 18:11:36:358
9.7235;-1.7895;-2.776;9.4814;0.6526;-2.4183;4.6852;-0.7562;1.4938;1.8156;0.978;-2.5719;220.0;-40.54;-20.19;9.47;184.7;-3.82;-104.31;2.0;989.41;47.646;35.957176;-83.92406;796.64;NaN;;4.82;12.226105;148.9;11 / 16;156515;2022-10-02 18:11:36:858
7.9639;-0.766;-2.6216;9.0229;-0.9811;-3.7141;-0.3211;0.0874;-0.985;-3.0297;0.1793;2.7097;237.0;-28.39;-32.89;14.94;174.9;5.74;-112.37;2.0;989.4;47.698;35.957176;-83.92406;796.64;NaN;;4.82;12.226105;148.9;11 / 16;157015;2022-10-02 18:11:37:358
10.0397;-2.26;-2.965;9.4648;-0.0896;-2.5651;5.6491;-0.3805;3.2211;2.6809;0.5733;-3.0678;167.0;-40.26;-17.64;8.64;185.52;0.52;-105.16;2.0;989.4;48.18;35.957165;-83.92405;796.71;NaN;;4.82;12.226105;156.7;11 / 16;157516;2022-10-02 18:11:37:859
10.2479;0.3843;-0.6129;9.0619;-1.076;-3.591;1.6054;0.4263;-1.0319;-1.5684;-0.3512;2.4636;251.0;-30.24;-32.87;6.84;184.24;-8.28;-107.03;2.0;989.42;46.234;35.957165;-83.92405;796.71;NaN;;4.82;12.226105;156.7;11 / 16;158015;2022-10-02 18:11:38:358
9.4998;-3.3864;-1.9295;9.3049;2.42;-1.9321;1.4725;-5.5442;0.4499;2.8624;0.5896;-3.1902;171.0;-41.18;-15.69;6.3;193.22;4.84;-104.65;2.0;989.39;48.483;35.957157;-83.92405;796.42;NaN;;4.79;12.226105;163.0;11 / 16;158516;2022-10-02 18:11:38:859
9.8507;0.0718;-1.0319;9.1112;-0.9139;-3.5101;2.5522;-0.949;-2.0913;-1.7876;-0.7209;2.9874;240.0;-29.06;-31.39;12.19;178.69;5.35;-111.07;2.0;989.41;47.326;35.957157;-83.92405;796.42;NaN;;4.79;12.226105;163.0;11 / 16;159015;2022-10-02 18:11:39:358
10.4492;-2.7473;-2.7843;9.446;2.2892;-1.305;2.3277;-4.7442;-0.7102;2.2144;1.1515;-2.9388;164.0;-40.18;-16.18;9.11;186.83;4.66;-105.91;2.0;989.39;47.595;35.957146;-83.92405;795.84;NaN;;4.93;12.226105;172.7;11 / 16;159516;2022-10-02 18:11:39:859
9.2593;1.1587;-1.6866;9.2697;0.3873;-3.177;1.1532;-0.8088;-2.1552;-1.3808;-0.684;1.8094;279.0;-29.57;-33.49;7.16;185.58;-2.26;-108.92;2.0;989.41;48.523;35.957146;-83.92405;795.84;NaN;;4.93;12.226105;172.7;11 / 16;160015;2022-10-02 18:11:40:358
6.8267;-0.7445;-3.7229;9.4724;1.9678;-1.6035;3.4593;-3.6632;-0.4005;1.9215;1.1483;-2.4148;214.0;-40.14;-20.47;6.92;178.87;-11.58;-99.61;2.0;989.39;52.501;35.957134;-83.92404;797.84;NaN;;4.9;12.226105;161.9;11 / 16;160515;2022-10-02 18:11:40:858
10.084;0.99;-0.3233;8.872;-1.4573;-3.9158;4.0966;1.5528;2.135;-2.5982;0.0938;1.8165;263.0;-32.04;-30.81;5.33;190.83;1.88;-109.78;2.0;989.41;45.787;35.957134;-83.92404;797.84;NaN;;4.9;12.226105;161.9;11 / 16;161015;2022-10-02 18:11:41:358
14.1658;-2.1571;-0.6691;9.6251;-0.4683;-1.819;4.1834;0.6653;2.2411;2.1994;1.1779;-1.7337;234.0;-42.58;-12.39;-0.28;221.05;11.03;-113.07;2.0;989.35;45.654;35.957123;-83.924034;796.63;NaN;;4.68;12.226105;155.5;11 / 16;161515;2022-10-02 18:11:41:858
9.5213;-0.6344;-4.028;9.4977;-0.2333;-2.4308;1.5114;-0.6573;-2.5631;-1.1447;-1.1633;1.9517;320.0;-32.96;-30.09;-4.48;197.93;-12.44;-95.63;2.0;989.41;44.559;35.957123;-83.924034;796.63;NaN;;4.68;12.226105;155.5;11 / 16;162015;2022-10-02 18:11:42:358
12.4947;-2.8813;-2.0913;9.5287;-0.8458;-2.1583;4.8928;1.6036;4.1061;2.6451;1.2598;-3.0034;319.0;-41.94;-14.83;1.54;201.59;4.95;-102.76;2.0;989.36;45.772;35.95711;-83.924034;797.27;NaN;;5.29;12.226105;179.6;11 / 16;162515;2022-10-02 18:11:42:858
11.3264;-1.3466;-4.0986;9.0425;-1.0007;-3.6608;2.4393;-0.8188;-0.4983;-0.4605;-1.2009;2.7907;327.0;-31.84;-32.23;2.33;196.21;5.86;-112.04;2.0;989.4;45.305;35.95711;-83.924034;797.27;NaN;;5.29;12.226105;179.6;11 / 16;163015;2022-10-02 18:11:43:358
9.0855;-3.4834;-3.542;9.1205;-0.9511;-3.4759;5.6241;3.1923;4.2858;3.249;0.8023;-4.0489;187.0;-41.93;-15.09;9.9;196.39;5.57;-110.86;2.0;989.33;45.523;35.957104;-83.924034;799.41;NaN;;4.75;12.226105;172.3;11 / 16;163515;2022-10-02 18:11:43:858
6.5169;5.5866;-1.9379;7.7359;5.6423;-2.1194;0.9625;-0.9632;1.2065;0.064;0.1323;0.0629;235.0;-23.03;-37.84;8.18;176.41;-35.93;-106.74;2.0;989.37;45.317;35.957104;-83.924034;799.41;NaN;;4.75;12.226105;172.3;11 / 16;164015;2022-10-02 18:11:44:358
10.9002;-5.522;3.7911;8.4248;-4.7062;1.745;1.8709;-0.4793;1.3449;0.3471;0.2462;-0.3013;358.0;-28.74;-26.21;1.76;170.09;31.41;-81.11;2.0;989.37;44.427;35.957096;-83.924034;800.85;NaN;;5.04;12.226105;163.6;11 / 16;164515;2022-10-02 18:11:44:858
9.8997;-5.0635;-1.4629;8.6721;-4.561;-0.4033;0.6453;-0.4832;2.9779;-0.4926;-0.415;0.0812;410.0;-42.86;-6.67;-5.55;197.06;27.72;-92.66;2.0;989.35;53.751;35.957096;-83.924034;800.85;NaN;;5.04;12.226105;163.6;11 / 16;165015;2022-10-02 18:11:45:358
10.2203;-5.3689;1.6448;8.8607;-4.1952;0.2438;2.8894;-2.3315;0.8504;0.9044;-0.202;-0.711;308.0;-42.71;-3.75;-8.31;199.43;31.18;-91.37;2.0;989.38;59.548;35.957085;-83.92403;798.45;NaN;;4.14;12.226105;172.5;11 / 16;165514;2022-10-02 18:11:45:857
9.4567;-4.4459;-1.1862;8.2391;-5.1877;-1.1727;-1.2242;-2.2904;1.2884;-0.7069;0.1855;0.959;310.0;-44.4;-8.7;-4.93;200.2;31.94;-98.1;2.0;989.35;57.63;35.957085;-83.92403;798.45;NaN;;4.14;12.226105;172.5;11 / 16;166015;2022-10-02 18:11:46:358
8.7159;-5.1102;-1.0594;8.2648;-5.0344;-1.5866;3.6482;-0.3237;0.6728;1.1472;-0.7122;-1.9274;181.0;-44.49;6.58;-2.4;212.7;30.89;-100.87;2.0;989.36;58.569;35.957077;-83.92403;799.93;NaN;;4.14;12.226105;178.8;11 / 16;166516;2022-10-02 18:11:46:859
8.9779;-3.6245;-2.1715;8.3346;-4.5402;-2.468;1.4493;-0.7229;-0.7288;-1.3244;-0.0989;2.015;240.0;-41.91;-16.93;0.45;196.63;14.55;-101.0;2.0;989.38;59.873;35.957077;-83.92403;799.93;NaN;;4.14;12.226105;178.8;11 / 16;167016;2022-10-02 18:11:47:359
10.1545;-5.7817;-1.4163;8.9098;-3.7431;-1.6658;4.7466;0.7172;1.5565;1.4241;0.7113;-2.572;182.0;-43.43;-1.54;0.43;217.99;37.59;-116.97;2.0;989.36;47.706;35.957073;-83.92402;798.38;NaN;;4.14;12.226105;173.8;12 / 16;167515;2022-10-02 18:11:47:858
10.0217;-3.6667;-2.4323;8.7214;-3.5061;-2.7956;2.0347;-1.5614;-0.434;-1.3602;-0.1516;2.6137;238.0;-37.8;-21.36;2.12;195.74;3.97;-103.06;2.0;989.35;50.85;35.957073;-83.92402;798.38;NaN;;4.14;12.226105;173.8;12 / 16;168015;2022-10-02 18:11:48:358
12.3177;-4.9786;-1.4749;9.0566;-3.0147;-2.2496;5.148;1.3761;2.2502;1.9698;0.3838;-3.1129;180.0;-42.02;-3.47;1.22;210.63;17.9;-103.95;2.0;989.34;49.016;35.95706;-83.92402;796.08;NaN;;4.46;12.226105;187.5;12 / 16;168515;2022-10-02 18:11:48:858
10.9639;-1.7022;-4.2939;9.0977;-1.9642;-3.0893;3.1334;-0.3328;-1.0451;-0.7332;-0.7924;2.4155;222.0;-34.74;-25.63;2.93;194.6;11.55;-108.76;2.0;989.34;49.296;35.95706;-83.92402;796.08;NaN;;4.46;12.226105;187.5;12 / 16;169016;2022-10-02 18:11:49:359
11.3623;-3.0464;-2.6563;9.0842;-2.539;-2.6834;6.1518;4.2274;2.3042;1.9032;0.0215;-2.9404;157.0;-41.83;-8.89;2.63;205.0;15.01;-106.46;2.0;989.35;51.593;35.95705;-83.92402;796.69;NaN;;4.36;12.226105;181.2;12 / 16;169514;2022-10-02 18:11:49:857
9.434;-1.1934;-2.3115;9.0417;-1.7595;-3.3647;1.5358;-1.1546;-1.4192;-0.1498;-0.8924;2.2149;150.0;-36.49;-25.95;5.34;193.09;-6.01;-106.03;2.0;989.35;49.192;35.95705;-83.92402;796.69;NaN;;4.36;12.226105;181.2;12 / 16;170014;2022-10-02 18:11:50:357
10.5401;-3.3362;-3.4211;9.5821;0.2355;-2.0732;0.5886;-3.5453;-1.1206;2.0109;-0.0407;-2.8491;132.0;-44.06;-8.03;4.82;200.38;15.87;-105.97;2.0;989.34;62.993;35.957043;-83.92402;796.94;NaN;;4.43;12.226105;185.3;12 / 16;170514;2022-10-02 18:11:50:857
7.3391;-1.8458;-2.2828;9.277;-1.7419;-2.6597;2.0505;-1.0848;-2.035;-0.0066;-0.5904;1.6488;135.0;-37.28;-26.63;5.23;189.24;10.23;-106.0;2.0;989.35;61.552;35.957043;-83.92402;796.94;NaN;;4.43;12.226105;185.3;12 / 16;171014;2022-10-02 18:11:51:357
10.6932;-4.258;-2.3952;9.6396;0.5736;-1.7086;2.1809;-4.3935;-0.6218;1.7991;0.4131;-3.6271;102.0;-42.9;-8.62;7.2;193.84;20.47;-106.89;2.0;989.33;48.171;35.95703;-83.92402;796.51;NaN;;4.86;12.226105;182.6;12 / 16;171514;2022-10-02 18:11:51:857
15.88;6.2988;-5.6022;9.1034;-0.7924;-3.5595;2.101;-2.0358;-1.0114;-1.6183;-0.1418;-0.0207;104.0;-28.56;-30.3;6.94;187.13;4.63;-111.36;2.0;989.32;46.442;35.95703;-83.92402;796.51;NaN;;4.86;12.226105;182.6;12 / 16;172015;2022-10-02 18:11:52:358
5.0372;-1.081;-3.3135;9.2067;3.3676;-0.2568;1.2564;-3.0368;0.618;2.0602;0.8092;-1.4633;139.0;-33.26;-22.8;-5.19;209.83;-20.08;-91.6;2.0;989.32;51.141;35.957024;-83.92402;795.5;NaN;;4.39;12.226105;176.9;12 / 16;172515;2022-10-02 18:11:52:858
10.4527;0.3102;-1.6352;7.9114;-4.1172;-4.0777;0.9971;4.0281;2.6185;0.1355;-1.2816;2.2443;174.0;-33.19;-26.61;0.94;195.45;9.53;-107.22;2.0;989.37;53.0;35.957024;-83.92402;795.5;NaN;;4.39;12.226105;176.9;12 / 16;173017;2022-10-02 18:11:53:360
11.2774;-2.3844;-0.7696;9.4437;2.2435;-1.3974;4.6987;-6.8325;-2.4939;1.6388;0.7231;-3.9967;109.0;-41.51;-7.37;2.21;212.1;13.61;-106.89;2.0;989.32;47.075;35.957016;-83.92402;796.73;NaN;;4.82;12.226105;174.5;11 / 16;173514;2022-10-02 18:11:53:857
0.4442;6.0679;3.7899;1.6464;4.4541;8.5803;0.5131;0.4668;-4.4428;-0.2998;1.0434;0.1289;192.0;-10.91;-36.79;-13.29;165.02;-28.79;-17.23;2.0;989.3;49.039;35.957016;-83.92402;796.73;NaN;;4.82;12.226105;174.5;11 / 16;174014;2022-10-02 18:11:54:357
2.0889;3.9108;7.6935;2.3499;3.2261;8.9577;0.3239;0.4144;-0.06;1.6338;-0.3757;-0.3469;1136.0;1.61;-36.81;-33.17;202.73;-19.21;-14.7;2.0;989.29;47.027;35.957;-83.92401;796.83;NaN;;4.82;12.226105;179.6;11 / 16;174515;2022-10-02 18:11:54:858
0.2788;7.5185;2.6994;1.3819;7.97;5.5443;-0.2486;-0.6108;-1.2134;0.8318;0.2351;-0.6148;1114.0;4.14;-47.76;-13.2;200.79;-54.36;-14.0;2.0;989.27;53.754;35.957;-83.92401;796.83;NaN;;4.82;12.226105;179.6;11 / 16;175015;2022-10-02 18:11:55:358
0.7708;8.3231;4.1142;0.5816;8.3463;5.1157;-0.8212;0.6103;0.4039;0.1018;0.1616;0.541;752.0;11.51;-45.88;2.81;202.59;-58.33;-6.49;2.0;989.3;48.342;35.956993;-83.92401;798.0;NaN;;4.32;12.226105;178.8;11 / 16;175515;2022-10-02 18:11:55:858
-0.9039;7.5568;2.6061;0.0325;8.626;4.6649;0.561;-0.5024;-0.8274;-0.1117;0.1878;-0.2258;708.0;7.89;-41.66;5.03;197.58;-62.27;-3.12;2.0;989.29;52.542;35.956993;-83.92401;798.0;NaN;;4.32;12.226105;178.8;11 / 16;176016;2022-10-02 18:11:56:359
4.5093;3.7253;8.7649;3.5713;2.7709;8.7028;1.0035;1.2672;0.4571;-0.2528;0.5946;1.6698;730.0;-3.6;-37.59;-7.48;178.65;-24.53;-24.51;2.0;989.3;53.851;35.956985;-83.924;798.37;NaN;;4.43;12.226105;174.5;11 / 16;176516;2022-10-02 18:11:56:859
2.8992;1.4809;9.2821;3.5907;1.4323;9.0126;0.8456;-0.0211;1.2113;-0.5356;0.1345;-0.3541;1016.0;-30.32;-20.91;-29.74;131.97;-8.4;-21.72;2.0;989.3;44.463;35.956985;-83.924;798.37;NaN;;4.43;12.226105;174.5;11 / 16;177016;2022-10-02 18:11:57:359
2.3115;1.2413;11.1972;2.0537;1.2326;9.5096;0.0468;0.4653;0.9093;-0.0113;0.1267;0.6628;1120.0;-31.84;-19.09;-33.23;117.44;-9.0;-12.05;2.0;989.32;44.215;35.95697;-83.924;798.85;NaN;;4.32;12.226105;165.7;11 / 16;177515;2022-10-02 18:11:57:858
2.3474;1.0068;9.0855;2.3893;1.0654;9.4513;-0.2244;-1.2149;1.6758;0.0868;-0.0935;-0.295;1115.0;-30.64;-13.2;-31.86;111.45;-6.24;-14.19;2.0;989.29;49.358;35.95697;-83.924;798.85;NaN;;4.32;12.226105;165.7;11 / 16;178015;2022-10-02 18:11:58:358
2.5101;1.7285;7.6528;2.8369;1.6029;9.2495;-1.9467;0.4429;1.1998;0.0244;-0.419;0.4277;1065.0;-27.54;-15.28;-31.56;115.94;-9.41;-17.05;2.0;989.3;45.979;35.956963;-83.924;801.95;NaN;;4.14;12.226105;170.3;11 / 16;178515;2022-10-02 18:11:58:858
2.7999;2.0219;10.1976;2.9827;1.6127;9.2018;0.1752;-0.548;0.6174;-0.1807;0.2269;-0.5864;1014.0;-32.14;-16.89;-33.88;117.56;-9.54;-19.92;2.0;989.29;50.334;35.956963;-83.924;801.95;NaN;;4.14;12.226105;170.3;11 / 16;179015;2022-10-02 18:11:59:358
2.2421;2.4407;9.2578;2.5276;1.6765;9.3258;-2.7663;1.0258;3.7436;0.4155;0.1201;0.4004;1042.0;-34.24;-20.36;-32.79;121.03;-9.09;-18.49;2.0;989.3;55.536;35.95695;-83.92399;802.01;NaN;;4.39;12.226105;174.2;11 / 16;179515;2022-10-02 18:11:59:858
4.3884;3.6571;8.286;3.8008;4.738;7.6991;0.6966;-1.1195;1.2473;0.075;-0.4029;-1.5999;1046.0;-35.03;-19.8;-22.44;102.16;-22.96;-27.13;2.0;989.27;55.099;35.95695;-83.92399;802.01;NaN;;4.39;12.226105;174.2;11 / 16;180015;2022-10-02 18:12:00:358
6.2593;6.3036;6.8183;2.5843;6.3727;6.9914;3.8148;2.8407;-1.9039;0.0481;-6.6566;-3.5028;821.0;-20.19;-33.9;-10.12;134.9;-40.53;-20.29;2.0;989.28;52.584;35.956944;-83.92399;803.56;NaN;;4.39;12.226105;177.4;11 / 16;180515;2022-10-02 18:12:00:858
14.8098;5.6943;4.9068;9.4783;2.3114;-0.9944;7.8482;2.052;3.6673;-2.5439;-1.6279;0.7889;612.0;-19.31;-34.65;-4.82;193.19;-13.63;-95.99;2.0;989.32;50.855;35.956944;-83.92399;803.56;NaN;;4.39;12.226105;177.4;11 / 16;181015;2022-10-02 18:12:01:358
14.6854;4.1584;-1.4701;9.6076;0.6765;-1.8455;1.2303;3.6062;2.1073;-0.0525;0.4009;-0.9469;105.0;-37.67;-24.6;-0.79;200.01;-3.96;-100.87;2.0;989.32;50.817;35.956932;-83.924;803.08;NaN;;5.22;12.226105;192.3;11 / 16;181515;2022-10-02 18:12:01:858
9.2483;3.1089;-0.1639;9.4091;1.5763;-2.2705;1.235;-3.5185;-0.1151;-1.824;-0.1972;1.6155;102.0;-38.96;-34.24;-2.64;211.5;-17.33;-105.26;2.0;989.35;51.729;35.956932;-83.924;803.08;NaN;;5.22;12.226105;192.3;11 / 16;182015;2022-10-02 18:12:02:358
13.7602;3.912;-1.8924;9.5459;1.2962;-1.8348;4.0469;1.7131;0.3269;-1.2973;0.974;-1.0198;100.0;-38.4;-24.81;-11.61;222.31;1.61;-108.73;2.0;989.34;61.689;35.95692;-83.924;801.82;NaN;;4.36;12.226105;198.4;12 / 16;182515;2022-10-02 18:12:02:858
12.5414;1.9534;-2.9602;9.1121;1.5207;-3.2906;-0.5039;-2.6476;-0.0135;0.0825;-0.9633;1.5816;104.0;-29.57;-20.51;-10.41;229.23;-8.92;-109.86;2.0;989.32;62.091;35.95692;-83.924;801.82;NaN;;4.36;12.226105;198.4;12 / 16;183015;2022-10-02 18:12:03:358
13.4967;-0.3485;0.2656;9.2147;-0.4634;-3.3233;6.5621;1.9088;0.8801;-0.43;0.1736;-0.033;106.0;-37.33;-10.95;-3.81;232.08;5.09;-112.38;2.0;989.33;62.028;35.956913;-83.92401;802.41;NaN;;4.68;12.226105;195.7;13 / 16;183515;2022-10-02 18:12:03:858
7.0328;0.5447;-1.2604;9.3706;2.6554;-1.1452;-0.5906;-3.9311;-1.8828;-0.7424;-0.6678;1.2687;103.0;-40.03;-16.76;-6.67;243.65;-15.71;-96.97;2.0;989.3;65.291;35.956913;-83.92401;802.41;NaN;;4.68;12.226105;195.7;13 / 16;184016;2022-10-02 18:12:04:359
16.5781;0.5937;-1.9848;9.0831;-1.761;-3.2505;1.959;4.3756;1.1226;0.642;-0.1601;0.2533;106.0;-45.32;-11.36;-2.89;224.59;10.34;-109.69;2.0;989.32;56.276;35.956905;-83.92402;802.76;NaN;;4.79;12.226105;202.4;13 / 16;184516;2022-10-02 18:12:04:859
9.92;-3.14;-3.4606;9.539;1.743;-1.4626;0.1216;-5.1144;-1.9967;-1.5243;-0.4403;1.3501;91.0;-44.34;-25.07;-6.06;229.82;-18.97;-97.22;2.0;989.32;59.471;35.956905;-83.92402;802.76;NaN;;4.79;12.226105;202.4;13 / 16;185015;2022-10-02 18:12:05:358
15.6538;-2.764;4.7234;8.4539;-3.1023;-3.883;5.585;6.3891;1.4197;0.0786;-0.3208;0.3577;82.0;-48.38;-21.79;-5.27;214.82;16.76;-112.71;2.0;989.34;57.382;35.95689;-83.92402;801.6;NaN;;4.97;12.226105;197.8;13 / 16;185515;2022-10-02 18:12:05:858
8.1867;-13.3137;12.9844;9.1908;-2.1699;2.6439;-4.8986;-9.0913;-3.1949;-4.7723;-4.2919;1.9339;81.0;-29.14;-22.26;-22.35;168.93;-15.07;-49.18;2.0;989.33;56.01;35.95689;-83.92402;801.6;NaN;;4.97;12.226105;197.8;13 / 16;186015;2022-10-02 18:12:06:358
11.2307;-1.8721;2.15;7.6969;-5.4904;-2.6046;4.5599;3.1977;5.0895;3.0292;-0.6417;-2.8912;126.0;-31.78;7.89;-19.93;256.98;34.05;-108.7;2.0;989.34;56.297;35.95688;-83.92402;801.14;NaN;;4.9;12.226105;199.6;13 / 16;186515;2022-10-02 18:12:06:858
6.3491;-6.227;-1.3956;9.4215;-0.9412;2.5534;-4.7669;-3.9043;-3.5025;-1.2309;-3.0744;1.2393;94.0;-36.0;-15.17;-18.71;205.45;5.51;-74.84;2.0;989.32;57.079;35.95688;-83.92402;801.14;NaN;;4.9;12.226105;199.6;13 / 16;187016;2022-10-02 18:12:07:359
15.9254;-4.3813;2.6288;7.4523;-6.0637;-1.9658;4.3569;5.1502;4.5726;1.2227;0.9389;-1.455;82.0;-41.31;1.52;-15.41;230.5;38.19;-104.78;2.0;989.29;56.211;35.95687;-83.92403;802.98;NaN;;4.79;12.226105;205.6;13 / 16;187515;2022-10-02 18:12:07:858
9.064;-0.9972;-5.2346;8.8595;3.4255;-2.4382;-0.5463;-6.1586;1.0999;0.3938;-0.0532;-0.4784;96.0;-37.99;-16.43;-11.68;261.93;-20.55;-101.3;2.0;989.3;45.403;35.95687;-83.92403;802.98;NaN;;4.79;12.226105;205.6;13 / 16;188015;2022-10-02 18:12:08:358
9.9906;2.0901;-3.0452;8.2706;-3.0884;-4.2696;7.455;3.2944;1.4444;-0.209;0.9605;-0.2607;98.0;-43.2;-14.51;1.95;219.49;20.78;-123.9;2.0;989.31;45.201;35.956863;-83.924034;804.24;NaN;;4.25;12.255669;206.0;14 / 16;188516;2022-10-02 18:12:08:859
7.2972;-5.0874;-4.3023;8.3587;1.4686;-4.9139;-2.4058;-6.0404;-0.0169;0.4009;-1.8903;-0.1873;99.0;-42.11;-18.83;-3.32;240.34;-8.61;-120.45;2.0;989.3;57.877;35.956863;-83.924034;804.24;NaN;;4.25;12.255669;206.0;14 / 16;189015;2022-10-02 18:12:09:358
15.8668;-2.8944;-1.9475;7.8896;-3.1037;-4.9287;5.992;3.2196;5.1617;0.7689;0.3182;-0.2014;117.0;-39.02;-13.63;-4.14;230.13;17.93;-126.82;2.0;989.33;52.455;35.956856;-83.92404;804.42;NaN;;4.93;12.575196;212.6;14 / 16;189515;2022-10-02 18:12:09:858
7.678;-5.3148;-5.0731;8.7131;2.5572;-3.703;-3.3742;-5.6605;-0.3468;0.648;-0.7189;1.7358;126.0;-35.68;-6.23;-11.16;274.08;-15.12;-113.03;2.0;989.29;45.94;35.956856;-83.92404;804.42;NaN;;4.93;12.575196;212.6;14 / 16;190015;2022-10-02 18:12:10:358
16.6152;-3.2836;-0.4262;7.1396;-3.6719;-5.6315;5.2656;4.5854;2.5837;-1.884;0.6816;1.3369;112.0;-39.66;-2.32;-2.01;243.47;21.99;-128.27;2.0;989.31;46.69;35.956844;-83.92405;804.41;NaN;;4.75;14.080654;215.8;14 / 16;190515;2022-10-02 18:12:10:858
7.1381;-3.4451;-4.8529;8.9293;2.048;-3.4991;-1.9839;-5.8204;-1.0155;-0.3458;-0.186;0.6961;106.0;-37.59;-11.34;-8.1;267.02;-16.76;-110.53;2.0;989.31;44.651;35.956844;-83.92405;804.41;NaN;;4.75;14.080654;215.8;14 / 16;191015;2022-10-02 18:12:11:358
12.3739;2.7736;-2.0076;7.9772;-2.1921;-5.2659;2.6312;5.687;3.3083;-0.5904;-0.0075;0.9783;105.0;-38.81;-17.85;-7.59;230.57;10.05;-122.37;2.0;989.29;49.978;35.956833;-83.92405;806.13;NaN;;5.33;13.392084;192.3;14 / 16;191516;2022-10-02 18:12:11:859
6.0428;-2.6372;-7.4049;8.4483;1.769;-4.6548;-2.8994;-5.0715;-0.7956;0.6609;-0.0678;0.49;101.0;-40.09;-9.73;-8.31;268.19;-15.88;-116.39;2.0;989.27;45.899;35.956833;-83.92405;806.13;NaN;;5.33;13.392084;192.3;14 / 16;192016;2022-10-02 18:12:12:359
13.6176;3.8641;-5.0815;6.9874;-3.5993;-5.8645;1.4565;2.7425;4.0338;0.3016;0.9262;-1.2543;111.0;-41.14;-4.86;-2.27;240.62;21.53;-130.01;2.0;989.29;50.273;35.956825;-83.92406;805.99;NaN;;5.08;13.492266;211.2;14 / 16;192515;2022-10-02 18:12:12:858
5.4658;-2.0949;-5.6692;9.1418;2.3658;-2.6461;-1.5824;-5.8068;-0.8202;-0.296;0.4652;-0.1067;92.0;-40.05;-8.96;-6.23;270.45;-13.96;-106.14;2.0;989.26;47.278;35.956825;-83.92406;805.99;NaN;;5.08;13.492266;211.2;14 / 16;193015;2022-10-02 18:12:13:358
16.6104;-2.5786;1.3633;8.7731;-2.8735;-3.3086;7.8405;0.6737;3.0418;-2.0393;2.9537;0.1058;95.0;-39.79;-7.24;-9.23;238.94;24.73;-124.32;2.0;989.3;44.721;35.956814;-83.92406;807.59;NaN;;5.04;14.113702;197.1;14 / 16;193516;2022-10-02 18:12:13:859
7.005;-1.6149;-3.9885;9.28;1.9654;-2.4879;-2.6;-5.5423;-2.1516;0.2568;-0.0487;-0.0301;95.0;-38.79;-0.67;-9.21;290.65;-12.11;-102.85;2.0;989.27;44.422;35.956814;-83.92406;807.59;NaN;;5.04;14.113702;197.1;14 / 16;194015;2022-10-02 18:12:14:358
17.9007;-1.701;-1.6208;6.9734;-5.5325;-4.1149;7.0503;6.6176;1.1145;-0.9667;0.6444;0.8208;85.0;-41.49;3.17;0.49;229.59;34.16;-120.0;2.0;989.26;44.746;35.9568;-83.924065;808.11;NaN;;5.18;14.654369;214.5;13 / 16;194516;2022-10-02 18:12:14:859
4.416;-6.2067;-4.0196;9.1844;2.5617;-2.2923;-1.3828;-7.1585;0.3769;0.9487;0.0793;-1.6874;65.0;-43.72;-4.74;-0.88;298.31;-15.14;-104.01;2.0;989.29;46.089;35.9568;-83.924065;808.11;NaN;;5.18;14.654369;214.5;13 / 16;195015;2022-10-02 18:12:15:358
17.1239;-2.4012;0.4155;8.2107;-4.0605;-3.5024;4.4252;6.8081;1.8933;-1.7257;0.6039;0.5756;76.0;-48.22;-10.29;-2.27;215.31;25.51;-111.89;2.0;989.27;47.611;35.95679;-83.92407;805.99;NaN;;5.0;15.085334;209.8;13 / 16;195515;2022-10-02 18:12:15:858
6.9093;-2.977;-3.5085;9.1909;2.475;-2.3606;-6.1507;-8.4078;-0.5659;-2.3108;-0.3711;2.1041;73.0;-52.93;-4.5;-10.56;289.4;-14.62;-104.4;2.0;989.3;47.215;35.95679;-83.92407;805.99;NaN;;5.0;15.085334;209.8;13 / 16;196016;2022-10-02 18:12:16:359
15.8943;-0.0048;2.0231;8.4814;-3.3915;-3.5685;3.88;5.3509;2.7523;-0.6856;0.0181;0.4681;82.0;-63.11;8.27;-6.9;249.35;20.23;-112.82;2.0;989.3;53.221;35.956783;-83.92408;807.66;NaN;;4.86;15.166544;207.0;13 / 16;196515;2022-10-02 18:12:16:858
7.9436;-3.5408;-3.4463;7.5478;3.6352;-5.0977;-0.9879;-7.3284;1.9404;0.8484;-1.7599;-0.4825;90.0;-62.64;-18.83;-4.82;283.24;-23.43;-108.2;2.0;989.28;47.566;35.956783;-83.92408;807.66;NaN;;4.86;15.166544;207.0;13 / 16;197015;2022-10-02 18:12:17:358
11.6629;1.3717;-1.7704;9.052;-0.5963;-3.7252;-1.0329;1.3818;4.037;-0.7378;-0.203;2.0421;108.0;-53.47;-41.46;3.15;208.67;-8.93;-112.95;2.0;989.3;45.984;35.956776;-83.92408;807.45;NaN;;4.93;14.680638;209.1;12 / 16;197515;2022-10-02 18:12:17:858
7.7809;-3.3278;-3.8378;8.6079;3.2363;-3.406;-2.3999;-5.3583;-0.375;-0.4487;0.0625;-0.4597;108.0;-53.74;-19.74;-7.97;258.06;-16.56;-109.95;2.0;989.29;46.44;35.956776;-83.92408;807.45;NaN;;4.93;14.680638;209.1;12 / 16;198014;2022-10-02 18:12:18:357
12.0688;2.2349;-1.6256;8.342;-2.4316;-4.5463;-0.535;1.719;3.7384;-1.7811;0.3478;1.3375;93.0;-42.52;-19.26;-7.05;224.77;14.36;-118.59;2.0;989.32;47.169;35.956768;-83.92409;807.83;NaN;;4.86;14.440089;210.8;12 / 16;198515;2022-10-02 18:12:18:858
6.682;-3.323;-4.1824;8.9301;2.7435;-2.9826;-3.5887;-5.2402;-1.7105;0.0182;-0.47;-0.6486;88.0;-40.41;-7.57;-12.34;274.45;-16.25;-108.47;2.0;989.28;51.197;35.956768;-83.92409;807.83;NaN;;4.86;14.440089;210.8;12 / 16;199016;2022-10-02 18:12:19:359
10.8691;0.4872;0.9864;8.2509;-1.6948;-5.0219;1.4122;1.3489;1.513;-2.4429;-0.8039;2.0569;109.0;-37.57;-8.62;-11.42;245.18;9.95;-121.33;2.0;989.3;54.527;35.95676;-83.924095;808.74;NaN;;4.82;14.316617;202.7;12 / 16;199515;2022-10-02 18:12:19:858
5.0898;-3.3242;-5.1784;8.1805;4.2706;-3.3184;-1.1832;-8.2287;-2.9941;1.0707;-0.0564;-2.1035;128.0;-34.26;9.6;-2.57;325.01;-25.82;-112.08;2.0;989.29;53.523;35.95676;-83.924095;808.74;NaN;;4.82;14.316617;202.7;12 / 16;200016;2022-10-02 18:12:20:359
14.8735;3.0787;3.3302;6.6135;-3.3681;-6.41;7.4745;5.3665;8.9057;0.3499;-2.9325;1.1437;122.0;-36.37;2.64;-5.44;256.8;14.96;-116.62;2.0;989.33;48.485;35.956757;-83.92411;808.24;NaN;;6.95;14.691905;250.3;12 / 16;200516;2022-10-02 18:12:20:859
6.6903;-3.2046;-3.1579;8.5631;4.2871;-2.1129;-1.8979;-7.3729;-1.1504;0.9906;0.2269;-1.8543;129.0;-35.85;5.06;-5.66;322.96;-25.92;-103.86;2.0;989.28;53.613;35.956757;-83.92411;808.24;NaN;;6.95;14.691905;250.3;12 / 16;201015;2022-10-02 18:12:21:358
17.4099;-2.2265;0.8079;8.3389;-2.8438;-4.3066;3.1626;4.8163;2.989;-0.1754;-0.9822;1.3746;154.0;-39.45;-5.19;-10.56;246.57;8.82;-109.12;2.0;989.28;48.913;35.956757;-83.924126;809.71;NaN;;4.36;14.471679;260.6;13 / 16;201516;2022-10-02 18:12:21:859
7.3762;-3.1723;-2.6408;9.2389;2.373;-2.2764;-2.3085;-5.8969;-0.3896;-0.0617;-0.181;0.2107;147.0;-37.67;6.98;-10.07;308.85;-14.0;-103.84;2.0;989.28;49.976;35.956757;-83.924126;809.71;NaN;;4.36;14.471679;260.6;13 / 16;202015;2022-10-02 18:12:22:358
15.2994;-0.8465;1.1563;7.1276;-5.2139;-4.2642;3.2961;4.7926;3.1845;-1.2646;-0.6267;2.1857;111.0;-38.14;2.33;-10.93;246.41;32.12;-120.89;2.0;989.28;46.359;35.95676;-83.92414;810.12;NaN;;4.64;14.388858;258.5;13 / 16;202514;2022-10-02 18:12:22:857
7.0615;-4.8003;-1.9211;9.5449;1.3611;-1.7926;-2.887;-5.6727;-0.0833;-0.3476;0.2721;-0.1736;105.0;-35.87;7.39;-12.34;299.14;-6.49;-101.83;2.0;989.28;59.779;35.95676;-83.92414;810.12;NaN;;4.64;14.388858;258.5;13 / 16;203015;2022-10-02 18:12:23:358
14.6674;0.1113;2.4072;7.0048;-5.4022;-4.2332;3.5421;3.0945;4.6347;-0.7764;-1.1336;2.07;117.0;-37.84;1.46;-14.21;246.22;22.32;-108.28;2.0;989.3;61.106;35.956757;-83.92415;810.87;NaN;;4.72;14.124303;247.3;13 / 16;203516;2022-10-02 18:12:23:859
6.5037;-4.6505;-2.7772;9.4082;1.7903;-2.1096;-2.6745;-6.0923;-1.3167;-0.4195;-0.0631;-0.7306;121.0;-34.82;11.66;-10.26;312.12;-5.08;-100.84;2.0;989.3;53.862;35.956757;-83.92415;810.87;NaN;;4.72;14.124303;247.3;13 / 16;204016;2022-10-02 18:12:24:359
13.6415;-4.5631;2.9183;6.3712;-6.2825;-4.0135;6.059;4.8796;3.3285;1.5517;-1.901;-0.4659;111.0;-35.94;5.42;-10.29;246.09;39.84;-122.21;2.0;989.33;47.683;35.956753;-83.92417;811.71;NaN;;4.61;13.22033;242.9;13 / 16;204516;2022-10-02 18:12:24:859
3.1101;-4.2051;-2.7221;9.1246;2.682;-2.3914;-5.9729;-7.4228;0.6556;1.8665;-0.6266;-1.618;106.0;-33.07;3.9;-12.81;299.14;-15.87;-104.69;2.0;989.28;48.756;35.956753;-83.92417;811.71;NaN;;4.61;13.22033;242.9;13 / 16;205015;2022-10-02 18:12:25:358
8.2047;-1.8051;2.3294;9.4392;-2.659;0.0469;-1.1784;4.8262;3.3802;0.8879;-1.6071;2.4096;130.0;-34.61;-12.32;-15.9;216.92;15.73;-89.72;2.0;989.29;45.723;35.956753;-83.92418;811.43;NaN;;4.79;12.922476;233.7;13 / 16;205514;2022-10-02 18:12:25:857
5.0683;-4.9965;-2.5774;9.6104;0.8916;-1.7363;-3.6317;-5.4909;0.0365;1.724;-1.3029;-2.4771;135.0;-32.55;8.14;-19.03;293.37;-5.22;-100.24;2.0;989.28;46.024;35.956753;-83.92418;811.43;NaN;;4.79;12.922476;233.7;13 / 16;206014;2022-10-02 18:12:26:357
11.7323;1.7536;-0.0132;6.9585;-6.0089;-3.4123;4.1728;5.9561;3.091;-0.1671;-0.524;1.0738;100.0;-37.69;-1.63;-13.88;235.49;32.48;-110.51;2.0;989.28;45.736;35.95675;-83.924194;811.31;NaN;;4.64;12.612274;243.7;13 / 16;206515;2022-10-02 18:12:26:858
5.8283;-4.526;-2.4108;9.4113;2.1497;-1.7253;-0.0855;-7.5976;0.1428;2.5184;-0.5276;-3.3148;90.0;-34.91;4.01;-14.38;298.48;-12.66;-100.39;2.0;989.28;46.583;35.95675;-83.924194;811.31;NaN;;4.64;12.612274;243.7;13 / 16;207015;2022-10-02 18:12:27:358
13.7288;-1.1228;4.6648;7.7389;-4.7894;-3.6526;6.7087;2.3732;6.878;-2.7713;-0.3838;2.7097;113.0;-34.65;-16.84;-13.54;223.14;10.14;-101.8;2.0;989.3;46.83;35.956745;-83.9242;812.65;NaN;;4.75;12.284692;231.3;13 / 16;207515;2022-10-02 18:12:27:858
5.8666;-4.7007;-2.3019;9.7156;-8.0E-4;-1.3333;0.6937;-5.8288;-0.772;-0.1773;-0.121;-1.5706;112.0;-32.91;15.43;-12.83;310.81;0.0;-97.81;2.0;989.3;43.001;35.956745;-83.9242;812.65;NaN;;4.75;12.284692;231.3;13 / 16;208016;2022-10-02 18:12:28:359
11.9453;-1.8613;-1.0857;7.0062;-5.8734;-3.5477;2.98;3.3436;2.3803;-1.3003;-0.2535;2.9185;118.0;-37.57;-4.82;-14.17;235.32;36.79;-116.86;2.0;989.33;44.223;35.956738;-83.92421;812.89;NaN;;4.46;12.226105;237.6;13 / 16;208515;2022-10-02 18:12:28:858
7.1776;-5.7194;-3.3673;8.1688;4.5693;-2.9261;-0.4897;-10.6637;-0.4828;1.0813;-0.5645;-2.9603;113.0;-33.66;8.08;-8.49;312.41;-8.5;-100.12;2.0;989.29;44.837;35.956738;-83.92421;812.89;NaN;;4.46;12.226105;237.6;13 / 16;209016;2022-10-02 18:12:29:359
11.5732;1.8805;-4.3406;8.0672;-2.7664;-4.8412;3.5001;2.959;1.6213;-2.3244;-0.1761;3.4294;123.0;-34.84;-20.51;-8.17;225.53;0.7;-114.41;2.0;989.32;45.441;35.95673;-83.924225;812.92;NaN;;5.33;12.226105;217.4;13 / 16;209515;2022-10-02 18:12:29:858
4.2257;-2.642;-4.6911;8.4198;4.1001;-2.9098;-1.7907;-6.8638;-2.0357;1.3643;0.249;-2.7537;135.0;-37.35;8.98;-2.85;317.68;-8.4;-105.44;2.0;989.3;51.855;35.95673;-83.924225;812.92;NaN;;5.33;12.226105;217.4;13 / 16;210015;2022-10-02 18:12:30:358
13.0262;2.1727;0.8031;8.2111;-3.2439;-4.2692;4.7507;1.8807;0.2486;0.2976;-2.9339;0.8879;153.0;-36.64;-9.04;-9.75;235.5;19.32;-117.47;2.0;989.32;44.327;35.95672;-83.92423;812.5;NaN;;4.46;12.226105;215.4;12 / 16;210515;2022-10-02 18:12:30:858
5.6991;-3.1687;-3.6882;8.4207;4.2384;-2.7015;-0.3103;-8.1401;-1.0577;2.3125;-0.0681;-3.5117;135.0;-35.72;5.33;-4.91;319.83;-25.61;-107.79;2.0;989.31;53.197;35.95672;-83.92423;812.5;NaN;;4.46;12.226105;215.4;12 / 16;211015;2022-10-02 18:12:31:358
11.9692;8.6366;-5.2226;7.187;-4.9249;-4.5015;6.0973;8.3383;6.2322;2.7524;-1.7752;0.8127;95.0;-36.06;-19.31;-4.71;219.44;15.47;-118.35;2.0;989.33;46.096;35.95672;-83.92425;812.38;NaN;;5.4;12.226105;252.2;12 / 16;211515;2022-10-02 18:12:31:858
5.4814;-2.5499;-3.1531;7.95;4.5532;-3.498;-1.1263;-7.5961;0.6905;1.2027;-0.0945;-2.5728;59.0;-38.19;-4.27;-5.06;300.42;-27.66;-113.75;2.0;989.34;56.565;35.95672;-83.92425;812.38;NaN;;5.4;12.226105;252.2;12 / 16;212016;2022-10-02 18:12:32:359
8.7769;5.7757;-0.4992;8.7555;0.8932;-4.3259;-0.3033;3.9222;5.2472;-0.2302;-0.2096;0.6236;121.0;-33.15;-25.22;-3.47;218.67;-8.23;-114.69;2.0;989.32;48.544;35.956715;-83.92426;813.14;NaN;;4.75;12.226105;237.4;12 / 16;212515;2022-10-02 18:12:32:858
6.9954;-2.065;-4.1453;9.2828;1.9529;-2.4871;-3.1552;-1.7124;-0.7276;0.9456;0.2531;-0.9312;125.0;-37.97;-16.84;-7.71;240.93;-11.49;-105.0;2.0;989.3;52.917;35.956715;-83.92426;813.14;NaN;;4.75;12.226105;237.4;12 / 16;213015;2022-10-02 18:12:33:358
9.009;-0.4585;0.3903;9.0043;-1.8894;-3.3945;-0.5686;1.2359;4.4603;-1.7124;-0.4281;1.3285;123.0;-37.31;-13.22;-9.53;230.37;9.92;-109.89;2.0;989.33;54.395;35.95671;-83.92427;811.22;NaN;;4.61;12.226105;242.6;13 / 16;213515;2022-10-02 18:12:33:858
6.117;-3.3697;-3.0356;9.6518;1.1845;-1.2687;0.6417;-5.4856;-0.7128;1.4422;-0.347;-1.0259;159.0;-35.62;10.69;-10.33;296.88;7.13;-94.76;2.0;989.31;57.128;35.95671;-83.92427;811.22;NaN;;4.61;12.226105;242.6;13 / 16;214015;2022-10-02 18:12:34:358
10.3496;-1.2508;2.3797;7.4066;-3.7448;-5.2239;-0.0473;1.1249;2.6851;-3.5338;-0.4486;2.2163;171.0;-36.96;-2.25;-10.82;242.94;21.6;-113.61;2.0;989.36;48.193;35.956707;-83.92428;809.07;NaN;;4.54;12.226105;245.4;12 / 16;214515;2022-10-02 18:12:34:858
7.5918;-3.3386;-3.6473;9.5771;0.9701;-1.8733;-1.7621;-5.768;-0.8407;2.1553;-0.3949;-2.7826;162.0;-34.24;11.46;-7.11;316.49;-5.68;-101.07;2.0;989.29;56.604;35.956707;-83.92428;809.07;NaN;;4.54;12.226105;245.4;12 / 16;215015;2022-10-02 18:12:35:358
9.7427;2.7401;0.9326;8.8222;-2.2044;-3.6715;-1.4991;2.1466;2.7397;-1.589;-0.4293;2.2198;190.0;-37.37;-9.83;-10.67;239.4;5.15;-107.63;2.0;989.32;52.754;35.956703;-83.92429;810.13;NaN;;4.61;12.226105;240.0;12 / 16;215515;2022-10-02 18:12:35:858
6.4917;-3.0909;-3.1005;9.6203;1.614;-1.0075;-2.3948;-5.5552;-1.7496;2.1041;0.1959;-1.982;168.0;-35.51;10.44;-9.37;320.85;-9.47;-95.98;2.0;989.32;51.281;35.956703;-83.92429;810.13;NaN;;4.61;12.226105;240.0;12 / 16;216014;2022-10-02 18:12:36:357
11.1589;2.406;1.951;8.4139;-2.5725;-4.3312;-1.0656;2.4839;0.4008;-0.7439;-0.6028;1.7426;197.0;-37.24;-6.82;-11.61;243.2;15.21;-117.24;2.0;989.33;45.542;35.9567;-83.9243;809.61;NaN;;4.61;12.226105;242.1;13 / 16;216516;2022-10-02 18:12:36:859
4.101;-4.398;-3.7277;9.5614;1.6758;-1.3937;-1.7611;-6.9662;-1.6837;2.4905;0.0274;-2.5955;154.0;-34.71;7.2;-10.52;308.21;-9.84;-98.29;2.0;989.32;53.305;35.9567;-83.9243;809.61;NaN;;4.61;12.226105;242.1;13 / 16;217015;2022-10-02 18:12:37:358
10.7566;3.2728;0.827;8.1055;-3.8709;-3.9353;3.1776;4.9279;4.433;-1.1394;-0.5852;1.6852;213.0;-37.29;-8.34;-14.91;240.26;12.58;-107.46;2.0;989.3;46.066;35.956696;-83.92432;810.93;NaN;;4.64;12.276586;251.7;13 / 16;217515;2022-10-02 18:12:37:858
4.9032;-3.256;-2.8657;8.8434;4.1982;-0.5832;1.5798;-7.9109;-1.7421;3.007;0.5383;-3.3407;160.0;-34.16;14.21;-11.74;323.4;-6.91;-92.24;2.0;989.29;50.559;35.956696;-83.92432;810.93;NaN;;4.64;12.276586;251.7;13 / 16;218016;2022-10-02 18:12:38:359
12.5976;2.5137;-0.9505;8.7479;-3.2329;-3.0319;2.2147;5.1808;2.6643;-0.4136;-0.6562;1.9523;226.0;-35.18;-11.66;-17.4;233.46;19.25;-109.12;2.0;989.29;44.879;35.95669;-83.92434;809.6;NaN;;4.72;12.618428;236.3;14 / 16;218516;2022-10-02 18:12:38:859
6.9212;-2.9411;-2.7939;9.0865;3.4691;-1.2534;2.2537;-7.124;0.7965;1.0295;0.172;-1.9616;129.0;-36.99;0.69;-11.77;308.18;-20.72;-97.85;2.0;989.27;46.635;35.95669;-83.92434;809.6;NaN;;4.72;12.618428;236.3;14 / 16;219017;2022-10-02 18:12:39:360
12.7283;2.0518;-0.7564;9.571;-0.6638;-2.0313;5.6569;2.362;2.5092;-0.6834;-0.7636;2.0727;258.0;-31.54;-21.21;-15.08;240.98;-16.9;-102.43;2.0;989.3;46.282;35.956684;-83.92435;809.5;NaN;;4.57;12.61832;239.9;14 / 16;219516;2022-10-02 18:12:39:859
11.1027;-4.7115;-0.9063;9.7874;0.5527;-0.2672;9.9784;-1.7829;1.8949;3.2531;0.9048;-2.9254;222.0;-38.38;4.59;-10.03;259.39;15.62;-108.49;2.0;989.29;46.051;35.956684;-83.92435;809.5;NaN;;4.57;12.61832;239.9;14 / 16;220016;2022-10-02 18:12:40:359
10.692;3.5719;-1.0475;9.3074;-1.084;-2.8927;4.9541;1.3255;-2.2498;-1.5732;-1.4941;2.0706;190.0;-30.38;-24.64;-10.87;214.89;-2.13;-101.4;2.0;989.34;61.395;35.956676;-83.924355;811.29;NaN;;4.64;12.951725;226.4;14 / 16;220515;2022-10-02 18:12:40:858
7.9292;-1.3753;-3.705;9.6241;1.7249;-0.7561;-0.421;-4.6186;-2.7021;2.0876;0.5612;-2.5961;191.0;-36.49;-12.75;-8.61;240.73;-10.13;-94.49;2.0;989.33;55.653;35.956676;-83.924355;811.29;NaN;;4.64;12.951725;226.4;14 / 16;221015;2022-10-02 18:12:41:358
7.0759;3.9179;-1.0881;8.0373;2.236;-5.1548;-0.2049;1.5569;0.5697;0.4705;-0.423;1.1146;155.0;-27.36;-30.09;-4.61;222.13;-20.64;-123.61;2.0;989.33;48.497;35.956665;-83.92436;808.4;NaN;;4.97;13.667619;198.4;14 / 16;221515;2022-10-02 18:12:41:858
6.8818;0.2429;-4.8601;8.7616;1.6063;-4.1017;0.0754;-1.9785;-1.4701;0.7379;0.6808;-2.1723;126.0;-35.61;-20.79;4.52;215.54;-9.43;-115.09;2.0;989.34;43.808;35.956665;-83.92436;808.4;NaN;;4.97;13.667619;198.4;14 / 16;222015;2022-10-02 18:12:42:358
8.8187;2.3701;-1.9319;8.1605;-0.9065;-5.3624;3.0004;1.5434;-0.658;0.0086;-1.0294;1.344;121.0;-33.69;-24.66;4.48;208.94;5.3;-123.31;2.0;989.33;43.4;35.956654;-83.92437;809.43;NaN;;4.21;13.551557;211.9;13 / 16;222515;2022-10-02 18:12:42:858
8.5433;0.0861;-4.0615;8.9816;1.3857;-3.6852;3.7343;-3.506;-1.7494;0.3565;1.0617;-3.1577;98.0;-39.02;-13.46;5.34;233.6;-8.12;-112.31;2.0;989.33;42.108;35.956654;-83.92437;809.43;NaN;;4.21;13.551557;211.9;13 / 16;223015;2022-10-02 18:12:43:358
2.0662;5.0719;6.7549;3.1245;4.6882;8.0267;-1.3682;-0.072;-1.844;0.0585;0.0909;0.193;172.0;-10.63;-31.07;-17.14;168.03;-30.57;-22.93;2.0;989.31;44.264;35.956642;-83.92437;809.32;NaN;;4.64;14.208864;196.8;13 / 16;223516;2022-10-02 18:12:43:859
3.7062;5.3183;5.4814;2.831;4.4136;8.2871;-0.0547;0.0599;-0.0389;-0.1874;0.335;0.7245;806.0;11.19;-30.24;-28.01;233.41;-29.74;-20.64;2.0;989.33;41.358;35.956642;-83.92437;809.32;NaN;;4.64;14.208864;196.8;13 / 16;224015;2022-10-02 18:12:44:358
10.4731;-1.5108;5.5687;9.7588;-0.2005;0.9463;2.0047;-1.6115;4.1138;-3.8889;-0.9499;-0.3225;815.0;-8.59;-19.18;-30.45;236.43;1.17;-84.46;2.0;989.34;50.619;35.95663;-83.92437;808.38;NaN;;4.64;13.860667;187.4;13 / 16;224515;2022-10-02 18:12:44:858
10.0421;-1.3238;-1.4366;9.0793;2.0337;3.0986;5.3416;-3.9386;0.5883;3.5491;1.9555;-0.2929;497.0;-33.58;3.08;-23.29;315.95;-11.97;-71.16;2.0;989.33;55.428;35.95663;-83.92437;808.38;NaN;;4.64;13.860667;187.4;13 / 16;225015;2022-10-02 18:12:45:358
15.3377;0.3461;-1.5215;9.3973;-1.8664;-2.0921;6.2747;2.5495;-1.9377;-1.5534;-1.1011;1.3075;409.0;-28.46;-15.32;-27.53;246.5;-7.37;-84.52;2.0;989.35;58.524;35.956623;-83.92438;808.27;NaN;;4.32;13.896438;209.9;13 / 16;225515;2022-10-02 18:12:45:858
12.4935;1.142;-0.947;9.4952;-1.7141;-1.7531;-1.7173;0.9678;2.7495;0.1886;0.6333;-0.3523;336.0;-40.12;-3.82;-12.64;249.37;6.25;-102.07;2.0;989.34;54.635;35.956623;-83.92438;808.27;NaN;;4.32;13.896438;209.9;13 / 16;226016;2022-10-02 18:12:46:359
10.017;-1.0953;-3.0787;9.4132;-0.8491;-2.6157;-0.2498;-1.1657;-1.3242;-0.5728;-0.7904;0.6157;323.0;-38.27;-7.67;-17.04;254.57;-2.43;-100.59;2.0;989.31;43.457;35.956615;-83.924385;805.72;NaN;;3.42;13.591505;207.7;13 / 16;226514;2022-10-02 18:12:46:857
18.1878;-1.3202;2.455;8.8989;-2.1304;-3.5273;8.6649;-0.9702;3.483;-1.7605;2.3707;-0.322;284.0;-39.06;7.5;-10.14;271.77;12.55;-111.62;2.0;989.37;52.465;35.956615;-83.924385;805.72;NaN;;3.42;13.591505;207.7;13 / 16;227016;2022-10-02 18:12:47:359
7.2589;-2.2684;-2.959;9.5595;1.381;-1.697;-1.3583;-4.9682;-2.5202;8.0E-4;-0.4074;-0.241;282.0;-36.19;1.84;-15.75;300.81;-17.63;-97.11;2.0;989.3;51.204;35.95661;-83.9244;803.4;NaN;;3.92;13.592963;243.5;13 / 16;227516;2022-10-02 18:12:47:859
17.2651;-3.5659;3.1424;8.2492;-2.9764;-4.3888;6.6012;0.8906;5.0208;-1.1094;1.9237;-0.0777;301.0;-38.4;3.92;-10.72;260.11;17.67;-118.01;2.0;989.31;45.761;35.95661;-83.9244;803.4;NaN;;3.92;13.592963;243.5;13 / 16;228015;2022-10-02 18:12:48:358
12.1274;-4.538;-6.4496;9.2519;2.8908;-1.4885;-2.4078;-5.708;-1.9367;-1.3419;-0.8711;1.1561;265.0;-36.37;-4.5;-15.15;286.17;-17.14;-99.14;2.0;989.3;44.25;35.956608;-83.924416;800.52;NaN;;3.46;13.256656;242.8;13 / 16;228516;2022-10-02 18:12:48:859
16.555;-2.1799;5.2537;7.4587;-2.6706;-5.7798;5.5236;2.1575;8.1874;-1.4248;0.9248;0.8496;301.0;-37.86;6.23;-5.7;267.13;15.8;-127.77;2.0;989.32;45.32;35.956608;-83.924416;800.52;NaN;;3.46;13.256656;242.8;13 / 16;229016;2022-10-02 18:12:49:359
7.5365;-4.4841;-4.1429;8.8023;2.979;-3.1329;-1.4786;-6.9444;-0.3154;-0.419;-0.8069;0.7733;223.0;-35.68;-0.66;-10.26;299.79;-18.07;-100.69;2.0;989.3;49.425;35.956604;-83.92442;799.97;NaN;;3.71;13.053613;231.0;13 / 16;229515;2022-10-02 18:12:49:858
18.3221;3.5109;-0.7014;9.2669;-1.3472;-2.9122;5.2535;5.898;5.4879;-1.1811;0.6539;0.6671;223.0;-38.44;-11.19;-4.76;232.44;15.36;-121.41;2.0;989.33;52.681;35.956604;-83.92442;799.97;NaN;;3.71;13.053613;231.0;13 / 16;230016;2022-10-02 18:12:50:359
8.9384;-4.4542;-3.3936;8.8026;3.5745;-2.4304;-0.7075;-5.8338;-0.9472;-0.2411;-0.6383;2.1261;210.0;-33.39;-16.22;-14.47;258.18;-21.38;-105.43;2.0;989.31;45.643;35.956596;-83.92443;801.83;NaN;;4.18;12.511981;235.5;13 / 16;230515;2022-10-02 18:12:50:858
16.992;1.5598;4.2257;8.254;-1.0962;-5.1807;5.347;1.9448;6.6103;2.1344;2.4902;-1.5003;236.0;-37.57;4.69;-3.96;273.9;6.42;-122.11;2.0;989.32;46.537;35.956596;-83.92443;801.83;NaN;;4.18;12.511981;235.5;13 / 16;231015;2022-10-02 18:12:51:358
5.3303;-2.5941;-4.3825;7.9015;5.054;-2.8623;-3.2321;-7.1784;-0.379;0.2307;-0.5515;0.4448;228.0;-35.85;-3.71;-6.3;305.91;-31.02;-109.91;2.0;989.3;46.255;35.956593;-83.924446;801.71;NaN;;3.56;12.226105;232.0;13 / 16;231515;2022-10-02 18:12:51:858
15.4071;0.8871;0.492;8.0847;-1.4129;-5.3676;3.1757;5.0154;4.6083;0.8525;0.8353;-0.5941;227.0;-39.73;-6.54;-4.07;248.37;7.18;-126.33;2.0;989.34;55.669;35.956593;-83.924446;801.71;NaN;;3.56;12.226105;232.0;13 / 16;232015;2022-10-02 18:12:52:358
8.5899;-5.1305;-4.5607;8.9611;2.0544;-3.413;-2.5572;-7.6282;-1.7982;0.1815;-0.3643;0.6218;191.0;-37.48;-10.48;-9.49;289.75;-30.0;-108.97;2.0;989.3;43.45;35.95659;-83.92446;802.17;NaN;;4.21;12.226105;239.7;13 / 16;232515;2022-10-02 18:12:52:858
18.0778;0.9254;2.2875;7.5405;-1.9253;-5.9669;8.3972;1.7695;7.4853;0.2866;1.5747;-0.1106;197.0;-39.36;4.01;-1.5;265.51;11.32;-128.35;2.0;989.33;46.207;35.95659;-83.92446;802.17;NaN;;4.21;12.226105;239.7;13 / 16;233016;2022-10-02 18:12:53:359
0.7816;3.0165;-2.7855;0.2899;6.7166;-7.1396;2.0049;-8.5468;-1.9581;-1.5838;-2.6207;-0.023;186.0;-33.23;-7.73;5.63;271.36;-32.13;-165.45;2.0;989.28;55.832;35.956585;-83.92448;801.34;NaN;;3.96;12.226105;236.1;13 / 16;233515;2022-10-02 18:12:53:858
21.4738;-9.4208;16.7874;9.2756;-2.3636;-2.1324;-0.1847;-3.3531;-0.68;-7.5241;-0.5145;0.4405;207.0;-29.46;-15.69;3.58;186.57;13.95;-102.95;2.0;989.3;47.812;35.956585;-83.92448;801.34;NaN;;3.96;12.226105;236.1;13 / 16;234016;2022-10-02 18:12:54:359
17.4278;-3.7122;5.7027;9.3459;1.9781;2.2161;-1.9244;-5.121;-7.8459;2.1836;-9.2558;2.0479;215.0;-3.86;-2.51;-33.13;268.87;-11.64;-76.66;2.0;989.3;43.553;35.956577;-83.924484;802.92;NaN;;4.39;12.226105;242.3;14 / 16;234515;2022-10-02 18:12:54:858
15.7831;0.9972;5.91;7.9846;-0.6116;-5.6607;8.702;0.735;10.7079;0.548;2.328;0.7017;492.0;-37.86;8.78;-3.94;285.91;3.58;-125.33;2.0;989.31;41.853;35.956577;-83.924484;802.92;NaN;;4.39;12.226105;242.3;14 / 16;235017;2022-10-02 18:12:55:360
6.087;-2.0195;-2.2899;7.343;4.6814;-4.5095;-1.9833;-5.6028;1.3486;-2.5053;0.2948;3.3345;183.0;-31.69;-10.69;-3.06;269.68;-27.28;-133.77;2.0;989.31;44.801;35.95657;-83.92451;803.44;NaN;;4.28;12.226105;239.9;14 / 16;235515;2022-10-02 18:12:55:858
17.2161;-2.971;2.8813;9.1299;-2.0305;-2.9484;9.782;-0.0696;11.9354;-0.2381;2.0641;0.1487;170.0;-34.14;1.65;-3.3;261.92;12.7;-129.49;2.0;989.33;48.143;35.95657;-83.92451;803.44;NaN;;4.28;12.226105;239.9;14 / 16;236016;2022-10-02 18:12:56:359
5.8726;-3.0846;-3.2871;8.2865;3.6931;-3.7235;-2.9135;-6.7266;1.392;-0.2493;-0.5737;2.3127;183.0;-34.5;-10.76;-9.62;269.86;-22.12;-114.2;2.0;989.31;45.051;35.956566;-83.924515;805.08;NaN;;4.72;12.226105;233.4;14 / 16;236516;2022-10-02 18:12:56:859
14.8986;-0.6224;1.1719;8.6827;-2.8777;-3.5355;7.5141;4.9553;6.461;3.0752;1.1697;-2.9111;148.0;-34.76;10.65;-7.93;275.24;17.06;-112.16;2.0;989.33;45.365;35.956566;-83.924515;805.08;NaN;;4.72;12.226105;233.4;14 / 16;237015;2022-10-02 18:12:57:358
4.8051;-5.2214;-1.8374;8.4752;3.3976;-3.5773;-4.3956;-7.9701;-1.0568;-0.7135;-0.2696;2.8708;148.0;-31.71;-2.31;-12.52;285.09;-20.27;-112.88;2.0;989.3;51.744;35.95656;-83.92453;805.97;NaN;;4.5;12.226105;239.5;14 / 16;237515;2022-10-02 18:12:57:858
13.6403;1.2843;-4.7859;7.9143;-4.1698;-4.0183;6.8573;8.1825;8.1751;0.4581;1.1676;-3.1047;123.0;-33.92;4.56;-10.58;259.96;30.84;-130.22;2.0;989.32;50.5;35.95656;-83.92453;805.97;NaN;;4.5;12.226105;239.5;14 / 16;238015;2022-10-02 18:12:58:358
10.328;-3.6846;-2.1547;9.019;0.2481;-3.8428;-3.4774;-8.1629;1.2036;-1.0374;-0.1369;1.3875;119.0;-35.21;-10.86;-9.67;267.18;-20.04;-117.16;2.0;989.3;48.28;35.956554;-83.924545;803.59;NaN;;3.96;12.226105;243.5;14 / 16;238515;2022-10-02 18:12:58:858
18.0873;-5.1796;1.0714;7.7219;-3.8766;-4.6384;7.3003;1.9487;5.722;1.0267;1.5578;-2.2376;113.0;-34.65;11.83;-8.12;271.82;23.28;-120.99;2.0;989.38;48.845;35.956554;-83.924545;803.59;NaN;;3.96;12.226105;243.5;14 / 16;239015;2022-10-02 18:12:59:358
8.9623;-1.6854;-2.6073;9.1134;0.8813;-3.5127;-4.214;-8.7748;0.3185;-0.962;-0.0241;0.8608;124.0;-30.9;-4.74;-9.84;282.39;-23.72;-115.64;2.0;989.31;43.825;35.95655;-83.92455;802.56;NaN;;4.46;12.226105;244.6;14 / 16;239515;2022-10-02 18:12:59:858
16.5864;-1.2209;1.0116;7.9912;-3.1713;-4.7174;8.51;1.7212;5.5556;0.9275;1.9865;-2.0089;109.0;-31.5;5.25;-8.33;262.95;18.87;-120.55;2.0;989.34;48.218;35.95655;-83.92455;802.56;NaN;;4.46;12.226105;244.6;14 / 16;240015;2022-10-02 18:13:00:358
14.5968;-2.1655;-5.5316;9.1309;1.1995;-3.3701;-5.4153;-8.4329;-0.2546;-0.4563;-0.0712;3.5265;123.0;-33.62;-13.44;-11.06;246.8;-7.03;-110.26;2.0;989.31;51.399;35.95655;-83.92457;802.23;NaN;;4.54;12.226105;248.8;14 / 16;240515;2022-10-02 18:13:00:858
17.4972;-5.5783;-0.947;7.8328;-3.0919;-5.0257;7.9569;1.5073;6.3112;0.9066;1.7354;-1.4835;107.0;-36.0;13.84;-6.07;280.99;18.38;-122.69;2.0;989.35;49.87;35.95655;-83.92457;802.23;NaN;;4.54;12.226105;248.8;14 / 16;241015;2022-10-02 18:13:01:358
12.6191;1.0187;-5.5819;8.4943;1.9934;-4.4771;1.7501;-2.2392;-0.4024;-0.6816;-0.1254;2.8215;116.0;-36.17;-6.96;-9.02;284.23;-26.38;-116.95;2.0;989.31;44.357;35.956547;-83.92458;801.8;NaN;;4.46;12.226105;245.3;14 / 16;241515;2022-10-02 18:13:01:858
16.3337;1.4629;0.128;8.9052;-1.763;-3.7094;6.6239;3.6591;5.0369;-0.5099;0.8511;0.0515;101.0;-40.05;4.31;-4.48;258.17;17.9;-125.25;2.0;989.34;52.289;35.956547;-83.92458;801.8;NaN;;4.46;12.226105;245.3;14 / 16;242016;2022-10-02 18:13:02:359
5.2884;-1.5909;-3.9072;8.8447;2.9475;-3.0421;-2.1471;-6.431;0.0526;0.1989;-0.1179;2.1077;105.0;-39.92;-8.89;-10.05;274.6;-17.49;-108.98;2.0;989.33;56.894;35.956543;-83.92459;802.39;NaN;;4.68;12.226105;241.3;14 / 16;242515;2022-10-02 18:13:02:858
14.8349;-4.1142;-1.2951;8.4986;-2.8558;-3.9735;6.3991;5.5988;3.9381;1.7632;1.0146;-2.7373;89.0;-41.51;5.29;-4.16;254.84;16.93;-115.06;2.0;989.34;47.904;35.956543;-83.92459;802.39;NaN;;4.68;12.226105;241.3;14 / 16;243015;2022-10-02 18:13:03:358
13.6762;-3.1914;-4.9881;8.9876;2.2419;-3.2199;-1.7122;-6.4575;-0.4543;-0.7252;-0.228;2.4913;71.0;-39.56;-8.78;-8.17;267.9;-13.22;-109.71;2.0;989.33;48.482;35.95654;-83.92461;801.48;NaN;;4.54;12.226105;241.7;14 / 16;243514;2022-10-02 18:13:03:857
18.0873;-3.1388;-3.0607;8.1859;-4.0065;-3.6207;6.5708;8.8328;0.0534;-0.9991;1.7476;-3.6202;61.0;-40.44;5.25;-7.44;236.61;41.94;-119.87;2.0;989.38;49.713;35.95654;-83.92461;801.48;NaN;;4.54;12.226105;241.7;14 / 16;244016;2022-10-02 18:13:04:359
14.8385;-3.1974;-4.331;9.1609;-0.4424;-3.4717;-2.7356;-8.0014;-0.0494;-0.4187;-0.6296;2.2262;65.0;-34.46;-21.53;-6.24;243.4;-21.37;-117.32;2.0;989.31;49.54;35.956535;-83.92462;801.42;NaN;;4.43;12.226105;232.6;14 / 16;244516;2022-10-02 18:13:04:859
16.1842;-6.2653;-1.7357;8.0572;-4.2887;-3.5859;8.2328;-2.0724;3.3545;-0.276;0.8401;-2.5349;86.0;-41.66;0.92;-6.51;238.05;25.93;-113.99;2.0;989.34;49.239;35.956535;-83.92462;801.42;NaN;;4.43;12.226105;232.6;14 / 16;245016;2022-10-02 18:13:05:359
14.1359;0.4035;-4.0998;8.9322;1.2942;-3.8356;-3.8591;-6.1625;0.2906;-0.8706;-0.6414;1.1944;71.0;-36.6;-17.01;-3.24;253.26;-18.52;-121.87;2.0;989.36;56.716;35.95653;-83.92464;801.75;NaN;;4.64;12.226105;241.4;13 / 16;245515;2022-10-02 18:13:05:858
