ACCELEROMETER X (m/s²);ACCELEROMETER Y (m/s²);ACCELEROMETER Z (m/s²);GRAVITY X (m/s²);GRAVITY Y (m/s²);GRAVITY Z (m/s²);LINEAR ACCELERATION X (m/s²);LINEAR ACCELERATION Y (m/s²);LINEAR ACCELERATION Z (m/s²);GYROSCOPE X (rad/s);GYROSCOPE Y (rad/s);GYROSCOPE Z (rad/s);LIGHT (lux);MAGNETIC FIELD X (μT);MAGNETIC FIELD Y (μT);MAGNETIC FIELD Z (μT);ORIENTATION Z (azimuth °);ORIENTATION X (pitch °);ORIENTATION Y (roll °);PROXIMITY (i);ATMOSPHERIC PRESSURE (hPa);SOUND LEVEL (dB);LOCATION Latitude : ;LOCATION Longitude : ;LOCATION Altitude ( m);LOCATION Altitude-google ( m);LOCATION Altitude-atmospheric pressure ( m);LOCATION Speed ( Kmh);LOCATION Accuracy ( m);LOCATION ORIENTATION (°);Satellites in range;Time since start in ms ;YYYY-MO-DD HH-MI-SS_SSS
0.1938;3.4929;8.8415;-1.1074;3.1396;9.2243;0.3305;-0.0095;-0.6724;-0.4808;-0.4517;0.2228;10446.0;3.21;-28.42;-26.29;179.62;-18.67;6.85;5.0;991.55;58.774;35.958393;-83.92481;798.16;NaN;;0.0;25.048767;;0 / 16;18;2022-10-03 13:45:33:193
-4.52;0.067;5.5926;-5.3142;-0.3838;8.233;3.8494;1.1135;-1.1573;0.5145;-0.8854;-1.9984;14962.0;0.58;-20.61;-33.23;142.33;2.24;32.84;5.0;991.49;57.645;35.9584;-83.924774;794.07;NaN;;3.46;20.3623;160.8;11 / 16;518;2022-10-03 13:45:33:693
-2.7233;-1.4174;6.5551;-3.9692;-1.5795;8.8273;-0.1432;-2.8639;4.7478;0.8385;0.5455;0.9635;13940.0;16.39;-10.11;-36.69;177.97;9.27;24.21;5.0;991.55;59.086;35.9584;-83.924774;794.07;NaN;;3.46;20.3623;160.8;11 / 16;1019;2022-10-03 13:45:34:194
1.1133;2.1727;7.3678;-1.3463;2.7874;9.3053;0.7525;-0.8851;2.3746;1.2322;-0.1311;0.7642;16711.0;10.82;-20.08;-32.55;213.12;-16.51;8.23;5.0;991.52;57.521;35.958385;-83.92477;797.1;NaN;;4.57;16.302807;162.7;11 / 16;1519;2022-10-03 13:45:34:694
10.5927;-2.6049;4.2903;9.651;-1.468;-0.9348;4.1412;-1.0793;4.302;-2.1008;-3.3907;2.2225;10121.0;-5.31;-29.16;-20.47;214.45;-9.69;-78.36;5.0;991.57;59.663;35.958385;-83.92477;797.1;NaN;;4.57;16.302807;162.7;11 / 16;2018;2022-10-03 13:45:35:193
12.2614;-3.5587;-3.3972;9.4953;-0.4855;-2.403;5.2874;0.486;3.1927;2.0276;2.065;-2.9576;1203.0;-37.37;-14.47;8.78;181.27;2.84;-104.2;5.0;991.49;64.226;35.958378;-83.92477;799.42;NaN;;2.38;14.512817;165.7;11 / 16;2518;2022-10-03 13:45:35:693
7.6146;-3.3314;-1.756;9.0412;-1.8977;-3.2902;0.3921;-2.1334;-2.0731;-1.041;0.1759;3.0966;1118.0;-23.87;-22.95;25.07;151.86;11.16;-110.0;5.0;991.54;55.543;35.958378;-83.92477;799.42;NaN;;2.38;14.512817;165.7;11 / 16;3018;2022-10-03 13:45:36:193
11.2403;-5.5675;-2.7999;8.7528;-3.3857;-2.8452;6.5599;-0.0688;2.1022;2.1713;0.7307;-3.8756;1074.0;-36.49;-2.96;20.18;154.8;20.2;-108.01;5.0;991.52;56.22;35.95836;-83.92476;802.55;NaN;;4.54;13.896461;147.8;11 / 16;3518;2022-10-03 13:45:36:693
9.306;-2.5546;-1.9777;8.6339;-3.4845;-3.0798;1.8913;-0.7064;-1.8842;-1.3624;0.6699;2.6708;1075.0;-28.31;-17.68;24.09;149.04;5.04;-110.65;5.0;991.55;53.904;35.95836;-83.92476;802.55;NaN;;4.54;13.896461;147.8;11 / 16;4017;2022-10-03 13:45:37:192
7.3176;-4.5571;-1.7225;9.5192;0.3193;-2.3351;-0.6897;-5.0028;0.2644;1.2677;0.1687;-3.2838;1091.0;-33.98;-1.8;20.72;142.41;18.62;-105.86;5.0;991.53;58.032;35.95834;-83.92476;805.79;NaN;;5.0;13.114023;152.5;11 / 16;4518;2022-10-03 13:45:37:693
7.0484;-2.4311;-2.2971;8.5162;-3.81;-3.0214;1.4278;-0.7497;-2.1125;-1.1643;0.5735;2.6615;1291.0;-29.94;-13.91;24.64;153.5;22.86;-109.53;5.0;991.51;56.605;35.95834;-83.92476;805.79;NaN;;5.0;13.114023;152.5;11 / 16;5018;2022-10-03 13:45:38:193
6.9631;-5.3318;-1.7285;9.6417;-0.6053;-1.686;-0.4415;-4.1275;-0.2226;0.8907;0.209;-2.802;1235.0;-35.68;0.32;19.24;100.82;3.54;-99.92;5.0;991.53;58.875;35.95833;-83.92475;805.62;NaN;;4.82;12.647616;142.7;11 / 16;5517;2022-10-03 13:45:38:692
8.2179;-2.2373;-0.6823;8.9259;-2.3505;-3.3128;1.1444;-0.8835;-2.0674;-2.5782;0.5917;1.5215;1575.0;-33.37;-15.09;21.11;160.93;13.87;-110.36;5.0;991.52;61.243;35.95833;-83.92475;805.62;NaN;;4.82;12.647616;142.7;11 / 16;6019;2022-10-03 13:45:39:194
8.4667;-2.5881;-2.5367;9.3656;-1.215;-2.6417;2.3057;-2.6771;0.3161;1.9467;0.2971;-2.7767;1584.0;-38.46;-7.26;17.76;178.75;21.3;-114.7;5.0;991.47;61.745;35.958317;-83.92474;801.62;NaN;;3.71;12.226105;139.4;12 / 16;6518;2022-10-03 13:45:39:693
7.9711;-1.4916;-1.2688;9.0429;-1.9013;-3.2835;-1.1127;-1.3033;-1.5988;-1.4938;0.7036;2.0045;1503.0;-33.32;-19.05;20.42;163.82;11.18;-109.96;5.0;991.52;59.235;35.958317;-83.92474;801.62;NaN;;3.71;12.226105;139.4;12 / 16;7018;2022-10-03 13:45:40:193
11.1099;-3.9287;-1.0989;9.2457;-2.4596;-2.1534;4.6735;-1.6106;1.9564;1.3523;0.9034;-2.5756;1386.0;-40.86;-4.48;13.05;167.06;14.53;-103.11;5.0;991.48;59.059;35.95831;-83.924736;799.09;NaN;;3.89;12.226105;141.6;12 / 16;7518;2022-10-03 13:45:40:693
9.4173;-1.5311;-3.9849;9.3088;-2.0276;-2.3251;0.1909;-0.2898;-2.0098;-0.877;-0.1079;2.157;1286.0;-35.34;-19.11;14.93;164.72;2.7;-104.64;5.0;991.5;58.534;35.95831;-83.924736;799.09;NaN;;3.89;12.226105;141.6;12 / 16;8019;2022-10-03 13:45:41:194
9.0018;-4.1022;-1.3095;9.1451;-2.7375;-2.2459;5.3063;0.8558;2.0739;1.7862;1.2548;-2.7996;1236.0;-40.89;-7.2;10.97;177.21;16.21;-103.8;5.0;991.43;66.459;35.9583;-83.924736;796.86;NaN;;3.96;12.226105;149.3;12 / 16;8518;2022-10-03 13:45:41:693
7.369;-0.7947;-1.3645;9.1381;-1.7641;-3.0909;0.8842;-0.0921;-0.2432;-0.57;-0.2088;2.164;949.0;-33.47;-21.94;11.42;180.32;10.36;-108.69;5.0;991.47;63.772;35.9583;-83.924736;796.86;NaN;;3.96;12.226105;149.3;12 / 16;9018;2022-10-03 13:45:42:193
10.0038;-4.8206;-3.8533;9.0364;-2.6985;-2.6891;6.0672;0.8834;5.0792;3.0218;-0.3729;-3.9092;959.0;-39.9;-4.86;12.38;179.67;15.97;-106.57;5.0;991.41;63.961;35.958286;-83.92473;795.12;NaN;;4.03;12.226105;148.9;11 / 16;9519;2022-10-03 13:45:42:694
8.6019;-2.0219;-2.9052;9.0416;-2.3142;-3.0106;0.1846;-0.8365;-0.8079;-0.4839;-0.1872;2.1114;860.0;-33.92;-18.32;16.35;161.76;-2.4;-106.92;5.0;991.47;64.322;35.958286;-83.92473;795.12;NaN;;4.03;12.226105;148.9;11 / 16;10017;2022-10-03 13:45:43:192
9.4017;-4.526;-2.2887;9.6205;-0.0847;-1.8998;0.6311;-4.5117;-0.3335;1.1699;0.904;-3.2135;875.0;-38.78;-0.62;16.35;172.25;22.22;-109.19;5.0;991.43;56.526;35.95828;-83.92473;791.61;NaN;;3.89;12.226105;149.2;12 / 16;10518;2022-10-03 13:45:43:693
8.9204;-1.2508;-3.0811;8.7902;-2.0746;-3.8208;0.6524;-1.1461;-1.7045;-2.6278;0.9017;2.2349;775.0;-35.62;-15.66;18.11;174.89;12.21;-113.49;5.0;991.47;60.333;35.95828;-83.92473;791.61;NaN;;3.89;12.226105;149.2;12 / 16;11018;2022-10-03 13:45:44:193
11.1266;-3.0284;-4.6038;9.36;-0.4148;-2.8965;3.5173;-2.5731;-0.7557;1.9735;0.6218;-2.4391;968.0;-40.11;-2.61;19.05;127.48;2.42;-107.19;5.0;991.41;59.907;35.95827;-83.92472;790.65;NaN;;4.14;12.226105;149.2;12 / 16;11518;2022-10-03 13:45:44:693
4.8841;-0.2429;-3.3326;8.9007;1.9492;-3.626;-1.3352;-1.7677;-1.0264;-0.5156;0.0214;1.1611;883.0;-37.67;-19.84;19.91;131.28;-16.36;-106.55;5.0;991.43;61.103;35.95827;-83.92472;790.65;NaN;;4.14;12.226105;149.2;12 / 16;12019;2022-10-03 13:45:45:194
10.9878;0.7313;-1.9681;9.2505;-1.294;-2.9873;4.7944;1.4187;0.3608;-0.3154;1.4077;-1.7663;1017.0;-42.07;-13.07;23.21;170.54;16.88;-113.46;5.0;991.46;56.739;35.95826;-83.92472;790.31;NaN;;4.32;12.226105;142.6;12 / 16;12518;2022-10-03 13:45:45:693
2.6492;1.884;4.4411;4.0776;2.3183;8.6121;4.2876;-2.6431;-3.2816;1.2767;1.0031;-0.2082;1254.0;-31.63;-23.27;-10.72;124.69;-13.67;-25.34;5.0;991.44;64.339;35.95826;-83.92472;790.31;NaN;;4.32;12.226105;142.6;12 / 16;13018;2022-10-03 13:45:46:193
2.6324;2.7138;5.601;2.2945;3.1324;9.0052;-1.7978;0.1982;-0.3652;-0.556;-1.3074;0.0382;10577.0;-5.98;-27.9;-31.89;187.36;-18.63;-14.29;5.0;991.44;54.23;35.958244;-83.92471;794.2;NaN;;5.9;12.226105;167.7;12 / 16;13517;2022-10-03 13:45:46:692
9.7116;-2.0339;1.5945;8.596;-4.272;-2.0074;9.1603;-0.3609;4.72;-1.8451;-2.2443;2.8216;1404.0;-23.03;-21.69;-17.16;212.94;15.63;-91.65;5.0;991.48;55.604;35.958244;-83.92471;794.2;NaN;;5.9;12.226105;167.7;12 / 16;14018;2022-10-03 13:45:47:193
11.7993;-5.9255;-1.0917;9.2555;-3.0908;-0.9759;3.7751;0.6727;5.0836;4.294;0.0463;-2.7925;1456.0;-37.67;2.93;9.98;147.61;18.37;-96.02;5.0;991.38;64.997;35.95823;-83.92471;793.8;NaN;;4.82;12.226105;153.1;12 / 16;14519;2022-10-03 13:45:47:694
8.9169;-2.6647;-0.6583;9.5411;-1.62;-1.5855;1.4064;-2.3786;-3.0168;0.55;-0.833;2.3356;1154.0;-40.48;-18.53;12.92;166.25;9.51;-99.44;5.0;991.44;55.138;35.95823;-83.92471;793.8;NaN;;4.82;12.226105;153.1;12 / 16;15018;2022-10-03 13:45:48:193
11.4903;-3.6595;-0.6703;8.7278;-3.8556;-2.265;5.3709;4.5164;3.0428;-0.0884;1.2241;-2.7112;1249.0;-40.71;-2.18;18.84;157.27;23.15;-104.55;5.0;991.44;55.093;35.958218;-83.924706;793.41;NaN;;5.04;12.226105;148.0;12 / 16;15518;2022-10-03 13:45:48:693
8.6605;-2.4335;-2.2217;9.5505;-1.0411;-1.9684;1.0123;-2.052;-2.1156;-2.304;0.4911;2.2746;1193.0;-35.08;-18.68;15.94;136.12;-9.98;-96.56;5.0;991.44;54.238;35.958218;-83.924706;793.41;NaN;;5.04;12.226105;148.0;12 / 16;16018;2022-10-03 13:45:49:193
10.1713;-4.4698;-2.3103;9.6798;-1.0652;-1.1567;3.5736;-3.5163;0.6534;2.6034;0.5156;-2.4977;1334.0;-37.67;-4.54;18.53;166.1;25.48;-108.99;5.0;991.37;57.465;35.958202;-83.9247;792.97;NaN;;4.97;12.226105;158.2;13 / 16;16518;2022-10-03 13:45:49:693
9.6948;-3.3948;-3.827;9.5465;-1.0698;-1.9723;-0.3124;-2.5642;-0.6487;-1.2163;0.0564;2.7274;1184.0;-33.06;-19.86;16.61;157.25;6.26;-101.67;5.0;991.44;55.185;35.958202;-83.9247;792.97;NaN;;4.97;12.226105;158.2;13 / 16;17018;2022-10-03 13:45:50:193
14.1311;-5.796;-0.2369;9.6931;-1.4877;-0.0215;6.3081;-3.5114;-0.1954;-0.2158;2.4161;-1.7592;1314.0;-37.59;-2.42;17.25;114.61;8.73;-90.13;5.0;991.39;54.368;35.95819;-83.9247;793.1;NaN;;4.86;12.226105;149.7;13 / 16;17518;2022-10-03 13:45:50:693
10.2945;-2.5989;-0.9529;9.6858;-0.9061;-1.239;-1.599;-2.8979;-2.0762;-1.2874;-0.9348;2.6793;1130.0;-35.16;-19.37;8.91;137.91;-12.59;-88.51;5.0;991.43;57.496;35.95819;-83.9247;793.1;NaN;;4.86;12.226105;149.7;13 / 16;18018;2022-10-03 13:45:51:193
12.763;-5.2406;-1.2269;9.3803;-2.5487;-1.2979;5.6038;-1.5763;2.0621;2.4965;1.0219;-3.4696;1406.0;-38.38;-3.84;16.48;185.49;31.11;-116.14;5.0;991.39;56.631;35.95818;-83.92469;794.23;NaN;;5.0;12.226105;143.5;13 / 16;18518;2022-10-03 13:45:51:693
7.3774;-2.8107;-2.8214;9.7027;0.6415;-1.2715;-3.3641;-5.1007;-1.6784;-0.8522;-0.5463;2.4642;1180.0;-32.51;-23.04;13.5;155.13;-3.75;-97.47;5.0;991.43;54.418;35.95818;-83.92469;794.23;NaN;;5.0;12.226105;143.5;13 / 16;19018;2022-10-03 13:45:52:193
8.6079;-3.9263;-1.4653;9.3516;-2.5186;-1.541;3.3061;-1.9327;3.0406;2.3117;-0.0595;-2.692;1381.0;-38.4;-7.86;14.21;156.95;14.88;-99.36;5.0;991.39;54.013;35.958168;-83.92468;792.88;NaN;;5.11;12.226105;152.9;13 / 16;19518;2022-10-03 13:45:52:693
6.2689;-2.2217;-1.7548;9.363;-2.1888;-1.9271;-1.2013;-0.6772;-2.7122;0.4752;-0.8337;1.2661;1230.0;-32.64;-20.92;14.34;158.59;0.71;-99.43;5.0;991.41;57.946;35.958168;-83.92468;792.88;NaN;;5.11;12.226105;152.9;13 / 16;20018;2022-10-03 13:45:53:193
8.3507;-4.4483;-1.5168;9.0369;-3.4132;-1.6895;5.4168;1.9158;3.0819;2.2132;0.61;-3.1084;1315.0;-36.56;-8.49;16.11;157.15;20.37;-100.59;5.0;991.35;60.515;35.95816;-83.924675;791.21;NaN;;4.97;12.226105;149.9;13 / 16;20518;2022-10-03 13:45:53:693
7.6696;-1.7644;-1.2162;9.3341;-2.3275;-1.9046;0.1586;-1.0123;-1.9598;-0.2469;-0.4401;1.7748;1230.0;-29.63;-21.77;14.44;165.1;13.73;-101.53;5.0;991.42;60.835;35.95816;-83.924675;791.21;NaN;;4.97;12.226105;149.9;13 / 16;21019;2022-10-03 13:45:54:194
12.0135;-4.593;-0.929;8.9599;-3.478;-1.9479;4.3087;2.549;2.8918;1.7583;0.8575;-2.844;1351.0;-36.13;-7.5;11.61;168.94;20.77;-102.27;5.0;991.39;59.283;35.958145;-83.924675;791.41;NaN;;5.0;12.226105;151.8;13 / 16;21518;2022-10-03 13:45:54:693
8.3542;-1.9427;-0.1161;9.3286;-2.199;-2.0765;1.4229;-1.4556;-2.2163;-2.272;0.1856;2.1042;1222.0;-30.3;-20.85;9.98;160.78;-2.03;-95.77;5.0;991.39;64.914;35.958145;-83.924675;791.41;NaN;;5.0;12.226105;151.8;13 / 16;22018;2022-10-03 13:45:55:193
10.6202;-4.2987;-1.5826;9.6157;-1.2913;-1.4284;2.6361;-2.9625;0.479;2.4421;0.0882;-2.4258;1439.0;-35.21;-6.79;10.13;183.52;24.84;-108.04;5.0;991.27;67.705;35.958138;-83.92467;791.1;NaN;;4.86;12.226105;151.0;13 / 16;22517;2022-10-03 13:45:55:692
7.8048;-1.8936;-2.9865;9.4201;-1.155;-2.4695;-0.8488;-1.6184;0.5126;-0.9549;0.2937;1.7195;1331.0;-28.33;-19.58;11.61;169.1;6.76;-104.69;5.0;991.42;66.888;35.958138;-83.92467;791.1;NaN;;4.86;12.226105;151.0;13 / 16;23017;2022-10-03 13:45:56:192
8.8499;-4.1776;-2.0124;9.5614;-0.888;-1.9902;4.4237;-1.7213;-0.2113;0.7726;0.3163;-2.5431;1344.0;-31.18;-6.09;13.63;140.56;5.2;-101.76;5.0;991.36;65.87;35.958122;-83.92466;791.66;NaN;;5.04;12.226105;151.2;13 / 16;23517;2022-10-03 13:45:56:692
10.0624;-3.8868;-4.587;9.4036;-0.9834;-2.6028;-1.1956;-2.0543;-0.988;-1.2393;-0.0127;2.7481;1336.0;-25.84;-16.11;12.13;148.49;-11.35;-102.17;5.0;991.35;63.374;35.958122;-83.92466;791.66;NaN;;5.04;12.226105;151.2;13 / 16;24018;2022-10-03 13:45:57:193
12.8145;-4.6445;-0.6236;9.6508;-1.1701;-1.2901;4.4453;-3.1707;0.7379;2.3956;0.7729;-3.3124;1403.0;-30.17;-0.08;12.99;180.97;26.13;-113.86;5.0;991.3;62.594;35.95811;-83.92466;791.86;NaN;;4.97;12.226105;151.9;13 / 16;24517;2022-10-03 13:45:57:692
8.1796;-2.0207;-2.3725;9.503;-0.3383;-2.3979;-1.5783;-1.7104;-1.4348;-1.4611;-0.1424;2.2294;1301.0;-29.51;-15.69;14.59;157.18;1.98;-104.16;5.0;991.38;67.911;35.95811;-83.92466;791.86;NaN;;4.97;12.226105;151.9;13 / 16;25018;2022-10-03 13:45:58:193
7.314;-3.6365;-2.6216;8.9802;-1.8472;-3.4805;2.364;-2.4432;-4.4878;-1.3846;1.2147;-2.4805;1411.0;-30.13;-0.56;24.19;124.35;10.86;-111.18;5.0;991.42;63.366;35.9581;-83.924644;793.37;NaN;;5.26;12.226105;141.0;13 / 16;25518;2022-10-03 13:45:58:693
6.9715;-1.215;-3.2417;8.4758;-2.6299;-4.1731;-1.8133;1.0514;0.6231;-0.7474;-0.0911;1.7439;1450.0;-28.71;-13.78;25.97;140.23;3.86;-111.33;5.0;991.33;70.425;35.9581;-83.924644;793.37;NaN;;5.26;12.226105;141.0;13 / 16;26017;2022-10-03 13:45:59:192
8.7793;-3.8043;-2.636;9.1397;-2.0179;-2.9266;5.1354;-0.4703;1.0589;1.2813;0.8714;-3.2025;1496.0;-31.88;-4.86;28.39;127.39;11.87;-107.76;5.0;991.29;58.447;35.958088;-83.92464;793.83;NaN;;5.18;12.226105;153.4;13 / 16;26518;2022-10-03 13:45:59:693
7.0208;-1.6412;-1.992;8.4054;-2.9531;-4.0987;-1.4617;0.8895;0.8205;-1.1091;-0.4742;2.0423;1430.0;-32.32;-19.52;25.22;164.78;17.53;-115.99;5.0;991.35;64.059;35.958088;-83.92464;793.83;NaN;;5.18;12.226105;153.4;13 / 16;27018;2022-10-03 13:46:00:193
7.9256;-5.2107;-3.475;9.3306;-2.4156;-1.8098;5.4466;-1.1095;2.6954;3.3606;0.385;-3.3245;1550.0;-37.57;-5.77;19.84;142.13;14.26;-100.98;5.0;991.27;60.101;35.958073;-83.92463;795.11;NaN;;5.18;12.226105;140.6;13 / 16;27518;2022-10-03 13:46:00:693
9.1992;-1.9896;-1.8864;8.4189;-3.6588;-3.4504;-0.3382;1.51;1.1372;-0.606;-0.8389;2.0941;1410.0;-35.21;-19.95;13.07;170.29;7.45;-103.89;5.0;991.29;56.999;35.958073;-83.92463;795.11;NaN;;5.18;12.226105;140.6;13 / 16;28018;2022-10-03 13:46:01:193
9.3826;-3.7433;-1.337;9.2021;3.3615;0.4377;2.1184;-7.1372;-2.5252;1.314;1.573;-3.53;1580.0;-36.92;-8.59;16.41;142.38;4.49;-100.07;5.0;991.3;63.304;35.95806;-83.92462;795.22;NaN;;5.47;12.226105;159.1;13 / 16;28517;2022-10-03 13:46:01:692
7.6445;5.6094;-1.2999;8.9182;3.6471;-1.826;-3.7578;-0.2195;-1.0491;-0.288;-0.7965;0.9367;1168.0;-23.51;-29.46;16.37;147.4;-21.83;-101.57;5.0;991.32;56.751;35.95806;-83.92462;795.22;NaN;;5.47;12.226105;159.1;13 / 16;29019;2022-10-03 13:46:02:194
5.6201;1.6352;-3.4068;8.0745;5.3427;-1.5585;-3.9582;-4.2434;-0.8525;0.3234;0.5243;-1.5458;1329.0;-21.22;-26.74;23.81;114.51;-33.01;-100.92;5.0;991.32;64.277;35.95805;-83.92462;797.46;NaN;;6.08;12.226105;142.8;13 / 16;29518;2022-10-03 13:46:02:693
1.3801;1.7716;5.7757;3.5809;3.3225;8.5034;3.173;0.7499;-2.8317;0.7689;1.2661;-0.6926;4109.0;-20.31;-29.36;5.42;144.4;-19.28;-49.65;5.0;991.33;57.27;35.95805;-83.92462;797.46;NaN;;6.08;12.226105;142.8;13 / 16;30019;2022-10-03 13:46:03:194
1.7632;8.8223;3.7528;1.9989;7.6696;5.7751;0.4923;-2.6326;0.7959;0.6745;0.6194;-0.6331;9560.0;-9.71;-31.78;-16.33;160.83;-34.09;-14.39;5.0;991.35;57.185;35.958035;-83.92461;798.52;NaN;;5.44;12.226105;148.4;13 / 16;30518;2022-10-03 13:46:03:693
0.5818;7.6457;4.8697;1.3894;7.5878;6.0552;0.2776;-0.3993;-1.0199;-0.0093;-0.0273;0.0034;6015.0;-6.9;-35.18;-2.1;161.85;-50.69;-12.92;5.0;991.35;60.655;35.958035;-83.92461;798.52;NaN;;5.44;12.226105;148.4;13 / 16;31019;2022-10-03 13:46:04:194
-1.5132;4.0807;5.6656;0.8898;6.9843;6.8263;-0.5783;-1.0026;-1.6516;-0.9821;0.4295;1.4889;6723.0;-6.38;-34.54;-4.65;165.49;-45.41;-7.43;5.0;991.34;56.278;35.958023;-83.9246;799.31;NaN;;5.26;12.226105;136.2;13 / 16;31519;2022-10-03 13:46:04:694
6.469;2.3797;6.7167;5.0583;2.1037;8.1338;-2.1334;-0.135;-0.468;0.9288;-1.7031;1.4081;10880.0;-19.65;-18.75;-17.53;135.96;-10.82;-17.01;5.0;991.33;64.393;35.958023;-83.9246;799.31;NaN;;5.26;12.226105;136.2;13 / 16;32018;2022-10-03 13:46:05:193
5.7398;2.2995;6.7777;4.2955;1.4651;8.6932;-0.041;-0.0124;-0.3986;-0.046;-0.1836;0.2055;7232.0;-31.29;-1.82;-18.04;82.85;-8.59;-26.29;5.0;991.34;64.754;35.958015;-83.92459;797.86;NaN;;4.82;12.226105;150.7;13 / 16;32518;2022-10-03 13:46:05:693
4.4411;2.0925;8.8989;4.1342;0.7239;8.8631;0.6049;1.5411;-3.4675;0.3595;0.097;-0.0303;9870.0;-32.1;0.43;-19.71;83.51;-4.23;-25.01;5.0;991.33;58.255;35.958015;-83.92459;797.86;NaN;;4.82;12.226105;150.7;13 / 16;33018;2022-10-03 13:46:06:193
3.6488;1.9657;4.4471;2.9371;2.6406;8.9761;-0.6089;-1.4822;0.0021;0.1312;-0.1652;0.298;10266.0;-32.96;-4.14;-23.14;78.79;-15.62;-18.12;5.0;991.33;56.361;35.958004;-83.92458;797.38;NaN;;4.57;12.226105;149.9;13 / 16;33517;2022-10-03 13:46:06:692
3.5982;-4.9893;6.609;6.4588;-3.4154;6.5414;-2.7791;-2.0072;0.3366;-0.1376;-1.7746;-1.4272;15450.0;-30.06;-6.73;-28.46;149.42;20.4;-30.02;5.0;991.33;62.556;35.958004;-83.92458;797.38;NaN;;4.57;12.226105;149.9;13 / 16;34017;2022-10-03 13:46:07:192
10.4504;-6.5324;-1.4462;8.8505;-1.0063;4.1021;-2.5484;-1.5797;-4.9599;1.206;-0.7808;0.307;11329.0;-27.19;-18.02;-26.1;183.28;4.69;-47.92;5.0;991.25;68.69;35.957993;-83.92458;797.34;NaN;;4.79;12.226105;152.5;12 / 16;34517;2022-10-03 13:46:07:692
9.6841;-4.4662;1.1432;7.3042;-5.929;-2.7688;1.6075;2.4821;4.4529;-0.7407;0.0457;0.6208;2373.0;-40.43;-8.06;-3.49;210.93;37.2;-110.76;5.0;991.21;57.73;35.957993;-83.92458;797.34;NaN;;4.79;12.226105;152.5;12 / 16;35017;2022-10-03 13:46:08:192
6.5527;-6.1672;-2.7209;9.581;-0.7024;1.9701;-3.2775;-4.6518;-3.9331;2.5892;0.1096;-1.6642;2220.0;-42.09;-7.16;-3.73;155.55;4.11;-78.38;5.0;991.24;71.263;35.95798;-83.924576;794.44;NaN;;4.32;12.226105;154.0;12 / 16;35517;2022-10-03 13:46:08:692
10.9759;-4.8422;0.4274;7.8154;-5.5912;-1.9567;0.2988;1.8593;3.1438;-0.0206;-1.1287;1.0009;2235.0;-41.62;-17.27;-2.53;191.72;26.47;-95.48;5.0;991.23;55.74;35.95798;-83.924576;794.44;NaN;;4.32;12.226105;154.0;12 / 16;36018;2022-10-03 13:46:09:193
6.8554;-7.0723;-2.1882;9.6232;-1.0949;1.5378;-3.1841;-4.5773;-3.5182;0.3384;0.0792;0.0257;1871.0;-44.27;-6.15;2.27;162.5;17.17;-84.94;5.0;991.21;67.053;35.95797;-83.924576;795.13;NaN;;4.64;12.226105;153.7;12 / 16;36518;2022-10-03 13:46:09:693
13.5027;-3.9933;1.7034;7.9345;-5.5517;-1.5471;-1.575;1.8922;1.6194;-1.0323;-0.9019;2.0786;1767.0;-41.27;-15.79;0.79;190.77;34.48;-101.03;5.0;991.27;56.318;35.95797;-83.924576;795.13;NaN;;4.64;12.226105;153.7;12 / 16;37018;2022-10-03 13:46:10:193
5.9088;-4.6708;-3.9598;9.6621;0.4907;1.6043;-3.0121;-6.2661;-5.5349;-2.0078;-0.8038;-0.5692;2375.0;-37.76;-12.58;-8.48;188.59;-2.87;-80.57;5.0;991.22;62.67;35.95796;-83.92457;796.66;NaN;;4.75;12.226105;150.2;13 / 16;37517;2022-10-03 13:46:10:692
9.6793;-6.7262;2.1404;7.3556;-5.8857;-2.7247;2.2985;-0.2546;4.6482;-2.1534;-0.4254;1.8312;3742.0;-31.29;-12.83;-20.76;226.47;23.33;-96.56;5.0;991.26;55.525;35.95796;-83.92457;796.66;NaN;;4.75;12.226105;150.2;13 / 16;38019;2022-10-03 13:46:11:194
21.9383;-21.5049;15.8249;9.0161;-3.1941;-2.1628;12.8506;-10.5241;13.0113;4.6779;-0.5782;-5.1159;1785.0;-33.51;19.78;-11.59;294.79;19.01;-103.49;5.0;991.13;68.757;35.95795;-83.92456;797.62;NaN;;2.77;12.226105;147.5;13 / 16;38517;2022-10-03 13:46:11:692
-0.8091;5.0468;-1.3789;7.2599;4.9834;4.3163;-7.8569;-0.5103;-7.8256;-3.7834;1.8257;1.053;1744.0;-10.84;-30.96;19.93;139.9;-30.54;-59.27;5.0;991.25;68.225;35.95795;-83.92456;797.62;NaN;;2.77;12.226105;147.5;13 / 16;39017;2022-10-03 13:46:12:192
2.0124;1.051;5.2932;0.8284;2.9805;9.306;1.3594;-4.1756;1.9246;0.6906;2.1078;1.3454;16384.0;-1.14;-34.07;-22.87;182.35;-17.69;-5.09;5.0;991.23;61.351;35.957935;-83.92456;798.54;NaN;;7.31;12.226105;162.2;14 / 16;39517;2022-10-03 13:46:12:692
1.6842;2.7772;10.7351;1.9931;1.481;9.4871;-0.4545;-0.3209;0.1338;1.3659;0.2247;0.5417;23141.0;-0.92;-31.01;-28.37;186.79;-0.25;-9.58;5.0;991.26;56.767;35.957935;-83.92456;798.54;NaN;;7.31;12.226105;162.2;14 / 16;40018;2022-10-03 13:46:13:193
1.2568;2.9734;9.3347;1.8122;3.5757;8.9499;-0.2383;-0.0056;0.7743;0.361;0.0767;0.4898;19902.0;-10.93;-34.56;-23.74;164.21;-17.69;-8.69;5.0;991.24;54.917;35.95792;-83.92456;798.22;NaN;;4.82;12.226105;168.4;14 / 16;40517;2022-10-03 13:46:13:692
-0.5363;3.3338;11.7885;-0.533;2.5048;9.4664;1.8075;0.6677;-1.0441;0.1929;1.9165;1.0744;18980.0;-14.06;-35.03;-21.13;152.15;-14.8;3.22;5.0;991.3;60.997;35.95792;-83.92456;798.22;NaN;;4.82;12.226105;168.4;14 / 16;41018;2022-10-03 13:46:14:193
1.3298;2.7784;10.3555;0.2997;2.3248;9.5224;1.5997;1.5081;0.7419;-0.0678;-0.5655;1.248;18293.0;-19.24;-24.06;-28.78;132.04;-13.71;-1.8;5.0;991.32;63.878;35.95791;-83.92456;796.0;NaN;;4.68;12.226105;171.1;14 / 16;41518;2022-10-03 13:46:14:693
-0.492;2.9734;11.3121;0.1266;2.0858;9.5814;0.3922;0.8736;-1.7785;0.4775;-0.5545;-0.5202;17235.0;-25.31;-15.84;-31.61;109.13;-12.44;0.61;5.0;991.26;59.098;35.95791;-83.92456;796.0;NaN;;4.68;12.226105;171.1;14 / 16;42017;2022-10-03 13:46:15:192
0.6703;3.9598;8.6991;-0.1238;2.7675;9.4072;0.2683;0.3724;-0.2702;0.14;-0.1403;0.1692;16483.0;-23.49;-16.76;-32.01;106.9;-16.72;1.75;5.0;991.3;58.054;35.957897;-83.92455;795.48;NaN;;5.08;12.226105;161.1;14 / 16;42517;2022-10-03 13:46:15:692
0.705;2.6133;9.3108;0.685;2.3539;9.4953;0.3476;0.4513;-1.2948;0.3776;-0.3084;0.4569;17333.0;-25.18;-12.06;-33.04;98.36;-13.89;-4.13;5.0;991.28;58.971;35.957897;-83.92455;795.48;NaN;;5.08;12.226105;161.1;14 / 16;43018;2022-10-03 13:46:16:193
-3.5061;-1.3071;11.0536;-1.9896;1.7993;9.4326;-0.0132;-3.5891;3.59;3.6408;-1.1472;-2.8341;16971.0;-17.42;-9.34;-37.39;113.22;5.79;18.48;5.0;991.29;59.376;35.957886;-83.92455;795.44;NaN;;4.82;12.226105;157.5;13 / 16;43517;2022-10-03 13:46:16:692
-3.7301;4.4315;8.2753;-2.3249;3.875;8.7034;1.655;1.9079;-1.0725;-1.0294;1.3265;-1.0197;16158.0;-6.62;-31.35;-23.36;151.46;-32.07;1.78;5.0;991.29;61.495;35.957886;-83.92455;795.44;NaN;;4.82;12.226105;157.5;13 / 16;44018;2022-10-03 13:46:17:193
2.1583;5.0839;10.2646;-0.52;4.738;8.5704;1.2859;0.4862;0.6215;0.6862;-0.7539;-0.0198;17837.0;0.36;-34.73;-24.36;170.7;-23.52;8.88;5.0;991.36;62.86;35.95787;-83.924545;794.8;NaN;;5.11;12.226105;154.0;13 / 16;44517;2022-10-03 13:46:17:692
-2.7832;4.5715;10.1043;-0.7837;4.2093;8.8226;-0.2614;-0.1148;-3.5345;-0.6831;0.4443;-0.2416;17682.0;-6.75;-35.7;-21.09;159.65;-25.42;5.08;5.0;991.3;57.8;35.95787;-83.924545;794.8;NaN;;5.11;12.226105;154.0;13 / 16;45018;2022-10-03 13:46:18:193
0.8079;6.2139;8.7362;0.2923;5.9317;7.8038;0.8735;0.5768;-0.4931;-0.0959;-0.1726;-0.1435;16425.0;-6.77;-37.69;-16.39;162.62;-37.22;-2.14;5.0;991.29;56.123;35.95786;-83.92454;795.13;NaN;;4.93;12.226105;154.7;13 / 16;45518;2022-10-03 13:46:18:693
-0.7301;5.5053;9.5991;-0.1172;5.0887;8.3822;-0.0291;0.2334;-1.3695;0.5021;0.3503;0.2052;15426.0;-5.46;-39.17;-14.36;168.75;-31.26;0.8;5.0;991.3;57.33;35.95786;-83.92454;795.13;NaN;;4.93;12.226105;154.7;13 / 16;46018;2022-10-03 13:46:19:193
-0.3042;6.7741;9.6805;0.1457;5.7488;7.9436;-0.6725;-0.0304;-1.1394;0.4935;-0.3564;0.0501;14616.0;-4.71;-39.81;-13.24;169.1;-35.89;-1.05;5.0;991.28;57.905;35.957848;-83.92453;795.37;NaN;;4.54;12.226105;158.3;13 / 16;46518;2022-10-03 13:46:19:693
-0.9194;5.6333;10.7375;-0.1819;4.5698;8.6749;-0.6988;0.5415;0.788;0.0193;0.4781;0.3606;15100.0;-6.52;-40.22;-12.51;166.96;-28.84;-1.56;5.0;991.28;57.656;35.957848;-83.92453;795.37;NaN;;4.54;12.226105;158.3;13 / 16;47018;2022-10-03 13:46:20:193
-2.3988;3.7158;10.9519;-3.3791;1.8821;9.0116;1.2376;-0.2688;-1.4992;0.2222;1.3121;-1.0834;15776.0;-5.83;-35.36;-22.18;165.7;-12.83;3.89;5.0;991.32;58.526;35.95784;-83.92453;793.41;NaN;;4.61;12.226105;163.4;11 / 16;47518;2022-10-03 13:46:20:693
-6.0942;2.8513;9.2845;-5.2499;2.2424;7.9737;-1.4496;1.2448;-1.7298;-0.362;-1.1638;0.0903;8975.0;12.96;-32.44;-23.47;175.92;-13.22;33.36;5.0;991.31;58.951;35.95784;-83.92453;793.41;NaN;;4.61;12.226105;163.4;11 / 16;48017;2022-10-03 13:46:21:192
-2.2325;1.7584;10.3077;-2.2493;0.7666;9.5144;-0.3912;0.377;-1.9291;-1.0192;-0.3566;-0.3808;8398.0;7.29;-31.67;-25.01;182.03;-4.48;13.3;5.0;991.28;58.682;35.95783;-83.92452;792.97;NaN;;5.04;12.226105;160.7;11 / 16;48519;2022-10-03 13:46:21:694
-3.967;2.4873;9.6494;-4.1376;2.8197;8.4321;-0.5176;-0.5735;-0.9357;0.2149;0.4022;0.3541;12173.0;2.23;-29.42;-26.03;166.11;-12.94;16.75;5.0;991.26;59.66;35.95783;-83.92452;792.97;NaN;;5.04;12.226105;160.7;11 / 16;49018;2022-10-03 13:46:22:193
-2.0351;3.4786;7.9639;-2.5509;3.1931;8.9145;0.5981;0.2172;-0.6918;0.0656;-0.3652;-0.358;9619.0;1.88;-30.32;-23.32;168.15;-19.0;15.97;5.0;991.28;57.222;35.957817;-83.924515;794.52;NaN;;5.29;12.226105;147.2;11 / 16;49518;2022-10-03 13:46:22:693
-3.4762;4.6552;4.3633;-3.5859;2.7519;8.7028;0.5611;0.4932;-1.4412;0.0062;0.3765;-0.2071;9755.0;-1.28;-29.72;-24.28;161.39;-15.53;16.27;5.0;991.26;57.471;35.957817;-83.924515;794.52;NaN;;5.29;12.226105;147.2;11 / 16;50020;2022-10-03 13:46:23:195
-2.5161;2.3031;9.3969;-2.5708;2.5259;9.1204;0.8811;-0.0863;0.2328;0.2947;0.0709;-0.2117;8373.0;1.48;-28.18;-26.74;162.59;-14.93;15.74;5.0;991.29;59.799;35.957806;-83.92451;794.7;NaN;;4.93;12.226105;155.8;11 / 16;50518;2022-10-03 13:46:23:693
-3.2895;2.2732;10.145;-3.0006;2.0535;9.1077;0.0877;0.4227;-0.1004;0.0284;0.1927;-0.1465;8381.0;3.28;-27.62;-28.13;168.0;-10.25;15.94;5.0;991.28;56.93;35.957806;-83.92451;794.7;NaN;;4.93;12.226105;155.8;11 / 16;51018;2022-10-03 13:46:24:193
-2.12;0.6141;10.9193;-1.6306;1.2192;9.593;-0.1747;0.3807;0.157;-0.2395;0.1077;0.1919;7826.0;5.01;-26.06;-30.11;179.75;-7.14;9.65;5.0;991.27;60.854;35.95779;-83.9245;795.34;NaN;;4.79;12.226105;156.2;11 / 16;51517;2022-10-03 13:46:24:692
-2.2744;5.1341;8.225;-2.5703;4.0331;8.5614;-0.5319;0.6882;0.3547;0.5025;0.9378;0.4759;8528.0;1.39;-27.99;-28.93;152.17;-24.28;16.71;5.0;991.25;59.603;35.95779;-83.9245;795.34;NaN;;4.79;12.226105;156.2;11 / 16;52019;2022-10-03 13:46:25:194
-2.7233;4.4016;9.7379;-1.5382;4.7189;8.4579;-1.307;-0.0434;-0.671;0.2427;-0.5976;0.2662;7245.0;4.29;-34.35;-20.14;175.67;-28.02;15.67;5.0;991.27;59.799;35.95778;-83.924484;794.17;NaN;;4.75;12.226105;155.5;11 / 16;52518;2022-10-03 13:46:25:693
-4.4447;1.2544;10.5556;-2.6799;0.7494;9.4036;-0.1973;1.6692;0.8977;-1.2112;0.9143;0.4722;8526.0;2.44;-31.16;-24.02;170.85;-11.02;14.74;5.0;991.26;55.937;35.95778;-83.924484;794.17;NaN;;4.75;12.226105;155.5;11 / 16;53017;2022-10-03 13:46:26:192
-5.8499;-0.2381;9.3503;-4.8384;0.4133;8.5199;1.4383;-0.0974;-2.8501;-1.4586;1.353;1.3777;10000.0;6.04;-17.76;-36.23;141.58;-2.13;30.78;5.0;991.24;60.059;35.957767;-83.92448;795.05;NaN;;4.68;12.226105;152.6;11 / 16;53517;2022-10-03 13:46:26:692
-7.0555;-0.8043;10.7626;-4.4278;0.6814;8.7236;1.3544;1.2623;-1.2743;-0.3596;0.6916;-0.8583;10014.0;7.74;-18.24;-35.64;149.38;-3.98;26.91;5.0;991.19;56.971;35.957767;-83.92448;795.05;NaN;;4.68;12.226105;152.6;11 / 16;54018;2022-10-03 13:46:27:193
-5.0946;-0.5698;9.5919;-5.2662;-0.2295;8.2695;1.2638;0.8203;-1.3011;1.4571;-1.8194;-1.0324;9478.0;14.83;-19.65;-34.07;164.94;1.34;32.49;5.0;991.19;56.665;35.95776;-83.92447;795.2;NaN;;4.9;12.226105;156.0;12 / 16;54517;2022-10-03 13:46:27:692
0.2034;5.479;8.4392;-0.0825;3.7606;9.0566;0.0648;0.5241;-1.0247;-0.2585;0.2021;0.1159;9533.0;7.01;-30.34;-24.56;205.85;-25.92;-1.91;5.0;991.21;56.371;35.95776;-83.92447;795.2;NaN;;4.9;12.226105;156.0;12 / 16;55017;2022-10-03 13:46:28:192
-1.4713;3.6787;7.3558;-0.6142;4.5295;8.6762;-0.7998;-1.4807;-0.8327;1.1245;0.4875;0.7926;10405.0;-0.99;-34.01;-19.78;173.45;-27.51;4.05;5.0;991.2;54.485;35.95775;-83.92446;795.74;NaN;;4.75;12.226105;156.9;12 / 16;55517;2022-10-03 13:46:28:692
-0.8246;4.3848;7.2864;-0.2977;4.6058;8.6526;0.1091;-0.4088;-1.8418;-0.2858;-0.1603;-0.0754;9176.0;-5.79;-34.39;-15.24;164.53;-28.83;0.98;5.0;991.18;55.509;35.95775;-83.92446;795.74;NaN;;4.75;12.226105;156.9;12 / 16;56017;2022-10-03 13:46:29:192
-0.486;4.4961;8.3124;-0.2171;4.239;8.8405;-0.571;-0.5165;-1.0019;0.0315;0.1161;0.3466;9295.0;-10.12;-31.82;-17.59;153.77;-25.61;1.41;5.0;991.22;64.209;35.957737;-83.92446;795.24;NaN;;4.57;12.226105;163.1;12 / 16;56518;2022-10-03 13:46:29:693
0.4442;4.4447;7.2577;0.3431;4.4455;8.7344;0.6591;-0.2058;-2.3264;-0.2818;0.1979;-0.066;9828.0;-13.39;-30.19;-18.06;146.05;-27.47;-2.66;5.0;991.24;55.125;35.957737;-83.92446;795.24;NaN;;4.57;12.226105;163.1;12 / 16;57017;2022-10-03 13:46:30:192
-0.3413;3.6691;7.1776;-0.2952;4.1675;8.8722;0.5059;-0.9492;0.7724;0.2471;0.3775;0.279;10477.0;-14.21;-29.83;-20.03;142.15;-25.15;1.91;5.0;991.24;53.702;35.95773;-83.92445;796.74;NaN;;4.36;12.226105;144.2;12 / 16;57518;2022-10-03 13:46:30:693
1.9729;5.9746;6.5504;1.0498;5.0765;8.3245;0.0659;-0.7747;-0.9541;0.3936;-0.7698;-0.2278;9791.0;-17.66;-31.35;-17.59;135.91;-31.18;-7.19;5.0;991.24;61.154;35.95773;-83.92445;796.74;NaN;;4.36;12.226105;144.2;12 / 16;58018;2022-10-03 13:46:31:193
0.0299;5.1616;6.361;0.3769;5.6897;7.9785;0.4617;-0.3346;-0.1036;-0.028;0.0531;-0.3591;11192.0;-13.91;-34.52;-14.27;148.94;-32.92;-4.96;5.0;991.25;57.353;35.95772;-83.924446;796.93;NaN;;4.57;12.226105;149.4;12 / 16;58517;2022-10-03 13:46:31:692
0.2261;4.5009;6.367;0.6154;5.4331;8.1408;1.2702;-0.3725;-0.0564;0.0044;-0.0529;-0.2869;13119.0;-9.98;-36.26;-13.14;157.21;-34.63;-3.43;5.0;991.22;58.457;35.95772;-83.924446;796.93;NaN;;4.57;12.226105;149.4;12 / 16;59018;2022-10-03 13:46:32:193
0.0239;4.7462;7.1273;-0.3299;5.0717;8.3869;-0.9681;-0.6329;0.9587;-0.1958;0.3286;0.3431;13797.0;-6.81;-34.86;-15.49;161.8;-31.43;1.03;5.0;991.14;58.891;35.957706;-83.92444;797.7;NaN;;4.68;12.226105;152.8;12 / 16;59518;2022-10-03 13:46:32:693
1.0295;5.1162;6.597;0.6656;5.0513;8.3792;0.8897;-0.2207;0.1711;-0.2278;0.1807;-0.0108;14516.0;-6.49;-33.86;-16.72;167.06;-31.0;-4.54;5.0;991.16;53.627;35.957706;-83.92444;797.7;NaN;;4.68;12.226105;152.8;12 / 16;60019;2022-10-03 13:46:33:194
-0.0574;4.2568;4.4495;-0.4773;4.815;8.5299;-1.4974;-0.7491;1.5398;-0.864;0.1944;-1.1005;15615.0;-4.16;-32.93;-16.99;166.46;-29.41;3.2;5.0;990.94;61.75;35.957695;-83.92443;798.44;NaN;;4.57;12.226105;153.8;13 / 16;60519;2022-10-03 13:46:33:694
-4.6816;1.427;9.8459;-3.4659;1.9638;8.9611;-0.5006;-0.3857;-0.7489;0.2862;-1.0114;-0.7148;11383.0;8.18;-28.99;-19.76;173.26;-15.89;28.75;5.0;991.19;63.671;35.957695;-83.92443;798.44;NaN;;4.57;12.226105;153.8;13 / 16;61018;2022-10-03 13:46:34:193
-0.9637;3.3852;9.2629;-1.761;3.3338;9.0529;0.1009;0.1027;-0.5673;-0.4368;-0.0519;0.2;18107.0;15.15;-26.63;-18.71;211.54;-19.87;11.01;5.0;991.19;55.378;35.957687;-83.92442;798.54;NaN;;4.5;12.226105;152.8;13 / 16;61517;2022-10-03 13:46:34:692
-0.6679;-0.1543;4.7955;-1.9791;-1.5479;9.4793;2.6429;0.6894;2.0039;-0.7505;2.918;0.7948;21435.0;9.17;-25.07;-24.13;190.32;-0.91;10.49;5.0;991.14;60.366;35.957687;-83.92442;798.54;NaN;;4.5;12.226105;152.8;13 / 16;62017;2022-10-03 13:46:35:192
-1.1527;-6.0404;15.0075;-3.3808;-2.9711;8.7128;-1.0246;0.8249;-0.3854;-0.9586;0.3213;-1.0004;21432.0;6.71;-19.54;-29.31;171.95;17.64;21.21;5.0;991.16;64.307;35.957676;-83.924416;797.17;NaN;;4.36;12.226105;157.7;13 / 16;62517;2022-10-03 13:46:35:692
-0.1747;4.0603;7.7964;0.2339;4.9018;8.4904;-0.7656;-0.0955;-1.0949;-0.1743;0.0571;0.2251;20562.0;3.47;-24.09;-21.77;198.66;-31.7;0.02;5.0;991.17;63.824;35.957676;-83.924416;797.17;NaN;;4.36;12.226105;157.7;13 / 16;63017;2022-10-03 13:46:36:192
-1.7142;3.1507;9.8734;-0.4182;3.731;9.0595;-0.3198;-0.1491;2.5112;-0.0054;0.3096;0.575;19192.0;-2.57;-31.31;-17.33;170.36;-22.36;2.64;5.0;991.16;60.604;35.95767;-83.92441;797.06;NaN;;4.68;12.226105;145.4;13 / 16;63518;2022-10-03 13:46:36:693
1.264;4.3741;7.2063;0.0464;4.3634;8.7823;0.5087;-0.576;-0.1993;-0.5444;-0.3108;-0.2709;18440.0;-7.18;-30.21;-22.48;158.03;-26.42;-0.3;5.0;991.14;70.688;35.95767;-83.92441;797.06;NaN;;4.68;12.226105;145.4;13 / 16;64018;2022-10-03 13:46:37:193
-3.0547;3.8665;6.9715;-0.3264;3.8312;9.0214;1.0489;0.8006;1.7786;-0.0214;0.3828;-0.2175;19705.0;-6.47;-30.56;-23.31;162.71;-22.95;0.25;5.0;991.13;55.187;35.957657;-83.9244;795.05;NaN;;4.57;12.226105;145.7;13 / 16;64518;2022-10-03 13:46:37:693
1.2126;3.6511;10.0253;-0.0215;4.1678;8.8769;1.3648;0.1236;0.4753;-0.0337;-0.1713;-0.3177;20341.0;-6.36;-30.82;-23.74;159.81;-24.3;1.9;5.0;991.19;56.543;35.957657;-83.9244;795.05;NaN;;4.57;12.226105;145.7;13 / 16;65018;2022-10-03 13:46:38:193
-1.4653;2.7616;11.4066;-0.4006;4.355;8.7775;0.7478;1.4143;0.5066;-0.3322;0.1395;-0.3173;21150.0;-6.19;-32.19;-21.82;162.32;-26.56;-0.03;5.0;991.19;62.3;35.95765;-83.92439;797.18;NaN;;4.57;12.226105;146.4;13 / 16;65518;2022-10-03 13:46:38:693
0.4095;2.6336;10.1617;-0.1692;4.0295;8.939;-0.0831;1.3469;0.1968;-1.2087;0.1896;-0.3792;21383.0;-5.12;-32.61;-20.59;165.91;-24.26;1.08;5.0;991.18;61.512;35.95765;-83.92439;797.18;NaN;;4.57;12.226105;146.4;13 / 16;66018;2022-10-03 13:46:39:193
-3.1244;1.343;11.5229;-0.4576;3.4767;9.1582;-0.1445;0.7916;0.6155;0.5493;-0.3685;-0.0079;23457.0;-1.44;-32.55;-21.34;175.01;-20.76;2.86;5.0;991.16;58.109;35.95764;-83.924385;798.81;NaN;;4.68;12.226105;152.5;12 / 16;66518;2022-10-03 13:46:39:693
0.3843;4.2126;8.9874;-0.0244;4.678;8.6189;0.3137;0.8362;0.5582;0.1622;-0.2078;-0.326;23284.0;-1.03;-33.06;-19.8;176.38;-28.36;0.68;5.0;991.12;60.682;35.95764;-83.924385;798.81;NaN;;4.68;12.226105;152.5;12 / 16;67018;2022-10-03 13:46:40:193
0.2261;4.1417;10.9182;0.3672;4.2208;8.8442;-0.2795;0.3083;2.1409;-0.0184;0.1756;0.3923;21999.0;-2.48;-34.07;-18.53;176.92;-25.49;-2.38;5.0;991.14;60.835;35.957626;-83.924385;799.52;NaN;;4.46;12.226105;149.3;13 / 16;67518;2022-10-03 13:46:40:693
2.1751;3.5767;9.7307;0.4584;3.7777;9.0382;1.0546;0.5646;0.6625;-0.2741;0.1123;0.0115;22063.0;-6.6;-32.4;-22.11;162.05;-25.64;-1.99;5.0;991.14;65.397;35.957626;-83.924385;799.52;NaN;;4.46;12.226105;149.3;13 / 16;68017;2022-10-03 13:46:41:192
0.4358;1.5251;14.98;0.3203;3.6838;9.0828;-0.3913;2.0578;0.3564;-0.8793;-0.2595;-0.4335;22837.0;-5.27;-30.9;-24.92;167.95;-22.06;-2.02;5.0;991.18;60.525;35.957615;-83.92437;800.82;NaN;;4.68;12.226105;149.0;13 / 16;68517;2022-10-03 13:46:41:692
-0.1376;4.3286;9.7319;0.2857;3.642;9.1008;0.1076;0.511;-0.7818;-0.0686;-0.385;-0.4261;23032.0;-2.93;-31.26;-25.61;171.26;-23.41;-0.47;5.0;991.14;52.938;35.957615;-83.92437;800.82;NaN;;4.68;12.226105;149.0;13 / 16;69017;2022-10-03 13:46:42:192
1.1444;4.4758;10.7447;0.1698;3.7591;9.056;1.1964;0.6428;0.3955;0.0154;0.3711;-0.2919;23271.0;-0.04;-32.85;-25.44;181.28;-22.54;-1.07;5.0;991.16;50.607;35.957607;-83.92437;802.15;NaN;;4.21;12.226105;157.3;13 / 16;69518;2022-10-03 13:46:42:693
-0.6811;5.4467;8.9958;-0.3586;4.2967;8.808;0.0768;0.4599;-0.5091;-0.1833;-0.3028;-0.2107;23446.0;5.96;-34.35;-23.81;194.12;-25.99;2.33;5.0;991.12;57.364;35.957607;-83.92437;802.15;NaN;;4.21;12.226105;157.3;13 / 16;70018;2022-10-03 13:46:43:193
0.358;4.8434;8.814;0.1576;4.2725;8.8256;0.007;-0.4138;-1.0265;0.1676;-0.0729;-0.1222;22977.0;9.26;-35.81;-21.99;203.23;-25.6;-2.44;5.0;991.13;52.499;35.957596;-83.92437;801.94;NaN;;4.36;12.226105;176.5;13 / 16;70518;2022-10-03 13:46:43:693
-0.5195;4.5045;8.7529;-0.3263;5.0508;8.3996;0.3591;0.2143;-0.7813;0.6088;-0.6247;-0.7097;23799.0;11.42;-35.21;-19.67;205.8;-25.76;-0.11;5.0;991.13;55.724;35.957596;-83.92437;801.94;NaN;;4.36;12.226105;176.5;13 / 16;71017;2022-10-03 13:46:44:192
0.4765;5.2693;7.0304;0.2167;4.8411;8.5257;0.5219;-0.1219;-0.8762;0.0386;-0.0363;-0.2538;21886.0;16.31;-34.03;-13.74;216.86;-31.02;-3.51;5.0;991.11;58.881;35.957584;-83.92437;801.65;NaN;;4.28;12.226105;182.7;12 / 16;71518;2022-10-03 13:46:44:693
-0.821;4.0639;7.0086;-0.4691;4.2221;8.8388;0.0611;-0.265;-1.2839;0.244;0.309;-0.0135;22660.0;20.57;-30.43;-15.77;225.58;-25.5;3.04;5.0;991.1;54.864;35.957584;-83.92437;801.65;NaN;;4.28;12.226105;182.7;12 / 16;72018;2022-10-03 13:46:45:193
0.9374;4.2114;7.8885;0.4954;4.1892;8.853;1.4153;0.1978;-1.0315;0.2094;-0.3676;-0.5861;22941.0;21.69;-29.53;-18.79;229.67;-25.29;-3.2;5.0;991.11;54.52;35.957577;-83.92437;801.22;NaN;;3.96;12.226105;196.5;12 / 16;72518;2022-10-03 13:46:45:693
-0.1831;3.784;8.17;0.0027;4.7142;8.5993;-0.3662;-0.0538;-1.3872;-0.1796;-0.3594;-0.1774;22107.0;24.13;-26.49;-20.7;242.47;-29.11;-0.61;5.0;991.08;52.54;35.957577;-83.92437;801.22;NaN;;3.96;12.226105;196.5;12 / 16;73017;2022-10-03 13:46:46:192
0.1663;3.0981;9.4113;-0.0078;4.125;8.8969;0.3444;-1.6837;0.7341;-0.0773;0.0567;-0.8443;23119.0;26.61;-22.31;-23.29;249.15;-24.87;0.05;5.0;991.1;52.42;35.95757;-83.924385;801.21;NaN;;4.07;12.226105;234.5;12 / 16;73518;2022-10-03 13:46:46:693
-1.1121;3.6102;14.0605;-0.3895;4.0709;8.9133;-0.8624;2.2444;0.7278;-1.1873;0.1994;0.0899;22952.0;30.26;-13.2;-25.59;271.92;-26.98;3.22;5.0;991.19;53.246;35.95757;-83.924385;801.21;NaN;;4.07;12.226105;234.5;12 / 16;74018;2022-10-03 13:46:47:193
-0.1795;5.8211;9.4603;-0.0649;4.9;8.4945;-2.2496;2.4204;1.8004;0.1531;-1.4353;0.273;22337.0;29.46;-11.4;-26.83;278.05;-29.98;0.44;5.0;991.2;54.024;35.95757;-83.9244;799.46;NaN;;4.14;12.226105;257.4;13 / 16;74517;2022-10-03 13:46:47:692
0.5315;4.2257;6.9775;0.788;4.1374;8.8561;0.5073;-0.537;-2.2669;-0.0227;0.2922;-0.2056;20393.0;25.09;-11.55;-32.36;270.33;-22.97;-6.97;5.0;991.09;56.819;35.95757;-83.9244;799.46;NaN;;4.14;12.226105;257.4;13 / 16;75018;2022-10-03 13:46:48:193
0.268;4.3298;8.6521;-0.0334;4.4578;8.7348;-0.3071;-0.4447;-1.5049;-0.0701;-0.2551;0.0143;20141.0;29.16;-13.33;-31.67;275.96;-27.04;0.22;5.0;991.13;54.647;35.95757;-83.924416;799.46;NaN;;4.1;12.226105;263.8;13 / 16;75518;2022-10-03 13:46:48:693
-0.1555;4.1213;8.365;0.3616;4.4705;8.7209;0.0678;-0.3196;-0.4956;0.1159;0.3347;0.0121;19757.0;28.07;-13.22;-33.04;275.7;-27.12;-2.37;5.0;991.11;53.118;35.95757;-83.924416;799.46;NaN;;4.1;12.226105;263.8;13 / 16;76018;2022-10-03 13:46:49:193
0.5506;4.6552;9.0544;0.3876;4.7044;8.5959;-0.8408;-0.9582;-1.5154;0.2346;-0.2544;0.3778;20177.0;29.03;-13.67;-31.76;273.68;-26.71;-0.04;5.0;991.12;53.691;35.95757;-83.92443;799.51;NaN;;4.43;12.226105;276.0;13 / 16;76518;2022-10-03 13:46:49:693
-0.0359;4.4518;7.8706;0.1605;4.2637;8.8298;0.2193;0.1723;-0.9397;-0.1109;0.1071;-0.1142;19246.0;28.03;-14.74;-31.86;270.49;-26.09;-1.62;5.0;991.12;55.853;35.95757;-83.92443;799.51;NaN;;4.43;12.226105;276.0;13 / 16;77017;2022-10-03 13:46:50:192
-0.3891;4.3669;8.0524;0.1078;4.0437;8.9335;-0.6752;-0.6408;-1.1459;-0.0661;0.2253;0.3936;18332.0;28.52;-13.31;-31.33;272.7;-25.18;-0.23;5.0;991.1;55.88;35.95757;-83.924446;800.06;NaN;;3.74;12.226105;272.1;13 / 16;77517;2022-10-03 13:46:50:692
0.8859;4.3322;7.5221;0.3113;3.7274;9.0653;0.6854;-0.1535;0.6692;0.0517;-0.0976;-0.1012;17437.0;27.15;-12.51;-31.69;269.55;-22.34;-1.97;5.0;991.1;53.96;35.95757;-83.924446;800.06;NaN;;3.74;12.226105;272.1;13 / 16;78018;2022-10-03 13:46:51:193
-0.6105;3.4391;8.2693;0.2159;3.5594;9.1353;-1.8266;-1.1429;-0.8578;-0.1203;0.062;0.2201;17067.0;28.09;-9.77;-31.88;274.09;-21.28;-1.35;5.0;991.13;53.759;35.95757;-83.92445;803.09;NaN;;3.71;12.226105;265.6;13 / 16;78518;2022-10-03 13:46:51:693
1.0367;1.963;10.8081;0.341;2.6802;9.4271;0.6521;-0.4688;1.3858;-0.3506;0.0386;-0.3399;17270.0;27.86;-9.08;-33.0;271.98;-17.79;-3.13;5.0;991.12;54.735;35.95757;-83.92445;803.09;NaN;;3.71;12.226105;265.6;13 / 16;79017;2022-10-03 13:46:52:192
1.762;2.1679;11.9285;0.1847;2.4019;9.5062;1.1974;1.3334;1.347;-0.3377;-0.5945;-0.7787;17147.0;28.28;-2.4;-33.75;282.31;-14.18;-1.11;5.0;991.11;56.875;35.95757;-83.92447;803.56;NaN;;4.07;12.226105;273.2;13 / 16;79517;2022-10-03 13:46:52:692
-0.7624;2.4814;10.6262;-0.1876;2.216;9.5512;-0.8382;0.9074;-0.6845;-0.1362;-0.0884;-0.2973;16869.0;27.62;4.26;-35.06;293.02;-12.28;1.5;5.0;991.09;56.44;35.95757;-83.92447;803.56;NaN;;4.07;12.226105;273.2;13 / 16;80017;2022-10-03 13:46:53:192
0.9434;2.4311;7.9627;-0.3151;2.3407;9.518;1.5594;-0.9179;-0.9608;0.0502;0.1678;-0.5337;17896.0;23.23;9.86;-36.94;310.7;-13.81;1.9;5.0;991.07;56.704;35.95757;-83.92448;802.61;NaN;;3.82;12.226105;276.5;13 / 16;80518;2022-10-03 13:46:53:693
-2.3127;4.6385;6.3682;-1.1653;3.392;9.1273;-0.4381;-1.9335;-0.0896;-0.6596;-0.4305;-0.5934;18994.0;21.88;10.91;-38.59;316.55;-15.61;2.59;5.0;991.04;57.756;35.95757;-83.92448;802.61;NaN;;3.82;12.226105;276.5;13 / 16;81018;2022-10-03 13:46:54:193
0.1783;4.8374;9.2952;0.6015;2.9827;9.3227;-2.3197;-0.7537;1.0166;0.3764;-0.878;0.4252;18895.0;23.36;7.01;-39.49;305.34;-17.71;-3.69;5.0;991.03;57.33;35.957577;-83.924484;800.03;NaN;;4.25;12.226105;301.4;13 / 16;81517;2022-10-03 13:46:54:692
0.5925;2.4048;10.2682;-0.0043;2.9926;9.3389;-0.2771;1.0219;-1.2425;-1.1966;-0.6393;-0.3084;16963.0;16.73;6.21;-42.36;317.5;-17.77;0.03;5.0;991.0;55.785;35.957577;-83.924484;800.03;NaN;;4.25;12.226105;301.4;13 / 16;82017;2022-10-03 13:46:55:192
0.6882;3.7672;8.8594;0.1745;3.2242;9.2598;0.6312;0.0385;-1.7688;-0.0793;0.2171;-0.285;17572.0;11.72;8.46;-44.01;326.18;-19.16;-3.37;5.0;991.01;56.185;35.95758;-83.9245;800.26;NaN;;2.81;12.226105;309.7;13 / 16;82518;2022-10-03 13:46:55:693
-0.9422;2.6791;7.2841;-0.7976;2.8293;9.3557;-0.0774;-0.5187;-1.566;-0.0082;0.3014;0.1532;18102.0;15.71;8.19;-42.68;322.81;-16.14;1.36;5.0;990.94;56.804;35.95758;-83.9245;800.26;NaN;;2.81;12.226105;309.7;13 / 16;83017;2022-10-03 13:46:56:192
0.5267;1.2437;8.6103;0.2239;2.4869;9.4834;-1.1145;1.6862;1.342;-0.6832;-0.6255;-0.0121;18098.0;23.34;8.93;-39.02;310.91;-14.56;2.04;5.0;990.94;55.148;35.95759;-83.92451;800.5;NaN;;4.14;12.226105;331.0;13 / 16;83517;2022-10-03 13:46:56:692
0.4621;4.9618;8.3255;0.2192;3.4108;9.1918;0.0565;0.3294;-0.7033;-0.0384;0.3654;0.2976;17648.0;21.02;8.06;-39.51;314.05;-20.35;-1.37;5.0;990.93;54.753;35.95759;-83.92451;800.5;NaN;;4.14;12.226105;331.0;13 / 16;84018;2022-10-03 13:46:57:193
-0.3616;3.3374;7.7821;-0.319;3.3745;9.2023;-0.9271;-0.4051;0.5984;0.1756;-0.0825;0.2239;17774.0;24.04;6.66;-37.65;311.32;-20.13;1.99;5.0;990.93;54.63;35.957596;-83.92451;801.29;NaN;;3.6;12.226105;319.2;13 / 16;84518;2022-10-03 13:46:57:693
-0.0634;3.0619;8.5768;0.1426;2.9796;9.342;0.3495;-0.2144;1.0834;0.0764;-0.1364;-0.2343;18130.0;24.02;7.86;-37.54;307.3;-16.64;-0.42;5.0;990.92;54.319;35.957596;-83.92451;801.29;NaN;;3.6;12.226105;319.2;13 / 16;85018;2022-10-03 13:46:58:193
-1.13;2.8908;7.6552;-0.3443;3.4413;9.1766;-0.8433;-0.5399;-1.2429;0.025;-0.025;0.3246;17686.0;23.14;9.17;-37.67;315.65;-20.54;2.15;5.0;990.96;55.203;35.957603;-83.924515;801.49;NaN;;3.96;12.226105;310.3;12 / 16;85517;2022-10-03 13:46:58:692
1.0702;2.3366;8.4057;0.7535;2.5226;9.4466;-0.2465;-1.974;1.1715;-6.0E-4;-0.2865;0.0351;17217.0;23.59;9.36;-35.91;303.75;-14.53;-3.28;5.0;990.88;55.352;35.957603;-83.924515;801.49;NaN;;3.96;12.226105;310.3;12 / 16;86018;2022-10-03 13:46:59:193
1.3513;0.5566;12.1514;0.5034;1.984;9.5906;0.1483;0.4885;2.8913;-0.1465;0.1939;0.3239;16976.0;20.57;12.98;-35.79;310.87;-11.67;-3.0;5.0;990.94;55.48;35.957607;-83.92452;803.92;NaN;;2.95;12.226105;311.9;12 / 16;86517;2022-10-03 13:46:59:692
0.4884;1.0522;13.153;0.0613;2.3575;9.5189;-0.207;0.6032;-0.8099;-0.444;-0.7853;-0.5903;17085.0;24.62;13.69;-33.62;313.16;-14.88;1.76;5.0;990.71;55.247;35.957607;-83.92452;803.92;NaN;;2.95;12.226105;311.9;12 / 16;87018;2022-10-03 13:47:00:193
0.2584;2.8023;9.8207;0.2046;2.0682;9.5839;0.498;-0.0013;0.1768;-0.1693;0.0399;-0.2085;17651.0;21.39;18.08;-34.76;318.85;-12.17;-1.22;5.0;990.87;56.352;35.95761;-83.92453;805.31;NaN;;3.74;12.226105;313.8;12 / 16;87518;2022-10-03 13:47:00:693
-0.8943;2.3498;8.8869;-0.2407;2.0223;9.5928;-0.2814;-0.2268;-1.3351;0.0734;0.2797;0.2872;17844.0;19.5;21.43;-35.34;325.55;-11.9;1.44;5.0;990.83;56.404;35.95761;-83.92453;805.31;NaN;;3.74;12.226105;313.8;12 / 16;88018;2022-10-03 13:47:01:193
1.0283;2.5475;8.2454;0.208;2.1036;9.5761;-0.232;-2.1613;0.1654;0.3597;-0.0846;0.3415;17686.0;20.89;18.58;-37.48;321.01;-11.52;-0.07;5.0;990.83;55.986;35.95762;-83.92454;805.75;NaN;;3.74;12.226105;318.6;11 / 16;88518;2022-10-03 13:47:01:693
-0.9218;0.6835;7.2541;-0.0021;1.6017;9.675;-0.4581;-1.619;0.038;0.4443;0.2952;0.3402;17425.0;17.94;18.53;-39.36;320.47;-8.09;-2.89;5.0;990.82;56.137;35.95762;-83.92454;805.75;NaN;;3.74;12.226105;318.6;11 / 16;89018;2022-10-03 13:47:02:193
0.6906;-1.0116;13.5159;0.4844;1.1782;9.7236;0.3185;1.4797;0.8013;-0.1785;-0.5336;-0.108;17917.0;20.93;17.29;-38.61;318.98;-9.93;0.79;5.0;990.79;57.077;35.957623;-83.924545;806.92;NaN;;2.66;12.226105;311.2;11 / 16;89518;2022-10-03 13:47:02:693
0.2572;2.4215;10.9325;0.3718;1.9141;9.6108;0.6173;0.4034;0.6503;-0.0808;0.2562;-0.1419;17761.0;17.08;18.49;-39.81;323.8;-11.26;-2.22;5.0;990.8;56.423;35.957623;-83.924545;806.92;NaN;;2.66;12.226105;311.2;11 / 16;90018;2022-10-03 13:47:03:193
-1.6316;2.2947;8.3148;-0.6385;1.8752;9.6045;-0.4162;-0.0596;-1.273;-0.135;0.2744;0.2262;17459.0;18.45;17.78;-38.4;328.45;-11.02;3.8;5.0;990.76;60.604;35.957626;-83.92455;808.29;NaN;;3.13;12.226105;323.0;11 / 16;90517;2022-10-03 13:47:03:692
0.5483;2.6025;8.621;0.2142;1.703;9.6553;0.7692;-0.0027;-2.0354;0.0734;-0.1635;0.0791;17509.0;20.04;16.35;-37.95;318.65;-10.76;-0.1;5.0;990.74;59.066;35.957626;-83.92455;808.29;NaN;;3.13;12.226105;323.0;11 / 16;91017;2022-10-03 13:47:04:192
-0.827;1.6579;8.493;0.327;2.1631;9.5595;-0.9937;-2.0748;0.7441;0.4723;0.1285;0.1344;16965.0;21.0;15.98;-37.14;316.69;-12.74;-1.96;5.0;990.71;56.031;35.95763;-83.92456;809.72;NaN;;3.6;12.226105;314.1;11 / 16;91517;2022-10-03 13:47:04:692
-0.3365;3.2907;9.6649;0.1036;3.2928;9.2367;-0.6691;0.2393;-0.8516;0.2609;0.035;0.439;17268.0;26.76;13.39;-35.23;311.94;-18.25;1.36;5.0;990.75;56.465;35.95763;-83.92456;809.72;NaN;;3.6;12.226105;314.1;11 / 16;92017;2022-10-03 13:47:05:192
-0.5112;3.4654;9.5871;0.1281;3.1137;9.2983;8.0E-4;0.2747;-0.7538;0.0364;0.2536;0.5527;16912.0;30.39;9.99;-34.33;303.42;-18.61;-0.96;5.0;990.71;55.827;35.95764;-83.92457;809.33;NaN;;3.49;12.226105;314.7;11 / 16;92518;2022-10-03 13:47:05:693
-0.0754;3.8163;7.9591;-0.0705;4.1287;8.8949;-0.5152;-1.2073;0.6457;0.42;-0.2927;-0.0189;17333.0;37.67;4.05;-29.94;292.05;-21.6;1.38;5.0;990.63;56.529;35.95764;-83.92457;809.33;NaN;;3.49;12.226105;314.7;11 / 16;93018;2022-10-03 13:47:06:193
0.2405;4.1812;7.1453;0.1199;4.145;8.8868;-0.1648;-0.5507;-0.8639;0.1247;0.0457;-0.0829;16272.0;40.37;-1.54;-27.97;283.63;-25.0;-0.77;5.0;990.7;57.298;35.95764;-83.924576;805.7;NaN;;3.53;12.226105;295.4;11 / 16;93518;2022-10-03 13:47:06:693
-0.2441;4.5799;7.5078;-0.4807;4.2417;8.8288;-0.1375;-0.8378;-1.0175;0.1671;-0.1175;0.0815;15002.0;44.25;2.93;-27.64;290.47;-25.63;3.12;5.0;990.7;57.225;35.95764;-83.924576;805.7;NaN;;3.53;12.226105;295.4;11 / 16;94017;2022-10-03 13:47:07:192
0.2106;3.778;6.9236;0.3416;3.7274;9.0642;0.641;-0.4828;-0.7188;-0.2879;-0.1597;-0.2072;14272.0;44.46;7.93;-30.17;291.94;-22.34;-2.16;5.0;990.71;58.149;35.95764;-83.92458;804.21;NaN;;3.49;12.226105;270.9;11 / 16;94518;2022-10-03 13:47:07:693
0.7325;2.782;10.3615;0.2409;3.3437;9.2159;-0.6732;-0.3754;-0.9857;0.0251;-0.1225;0.1926;13735.0;43.82;13.33;-31.78;296.9;-19.94;-1.5;5.0;990.7;59.605;35.95764;-83.92458;804.21;NaN;;3.49;12.226105;270.9;11 / 16;95018;2022-10-03 13:47:08:193
1.1803;1.8051;9.367;0.4318;2.3646;9.5075;-0.1581;1.3577;0.7272;-0.7471;-0.1077;0.0876;11914.0;48.19;9.24;-27.56;290.33;-21.16;-1.48;5.0;990.78;57.538;35.957638;-83.92459;803.71;NaN;;3.31;12.226105;261.1;12 / 15;95518;2022-10-03 13:47:08:693
0.3808;4.2808;11.7395;0.3951;3.1414;9.2815;0.1925;1.0965;-0.036;-0.0641;0.1203;0.2228;11823.0;47.04;12.34;-28.76;292.55;-18.68;-2.44;5.0;990.69;59.592;35.957638;-83.92459;803.71;NaN;;3.31;12.226105;261.1;12 / 15;96017;2022-10-03 13:47:09:192
-0.0538;2.2744;10.7961;-0.2193;2.4064;9.5043;-0.2839;0.4563;-1.2493;-0.1284;-0.0993;0.4736;9789.0;50.46;9.45;-25.61;288.25;-16.21;1.49;5.0;990.64;69.438;35.95763;-83.92461;804.39;NaN;;3.42;12.226105;248.7;11 / 16;96518;2022-10-03 13:47:09:693
0.3329;3.4271;9.9428;0.3184;2.8452;9.3794;0.2192;-0.1519;-0.942;-0.1646;0.2814;0.043;10774.0;51.94;2.4;-26.89;279.68;-16.33;-1.92;5.0;990.66;61.906;35.95763;-83.92461;804.39;NaN;;3.42;12.226105;248.7;11 / 16;97018;2022-10-03 13:47:10:193
-0.7516;3.2273;7.5221;-0.59;2.9329;9.3392;0.1522;0.5282;-1.6965;-0.2101;0.245;0.2399;9466.0;53.94;-2.42;-26.85;277.82;-17.4;3.62;5.0;990.64;56.389;35.957623;-83.92461;803.97;NaN;;3.6;12.226105;222.1;11 / 16;97518;2022-10-03 13:47:10:693
0.8668;3.3015;6.9535;-0.0622;2.9112;9.3644;1.0501;-1.1327;0.0359;0.2931;0.2103;-0.1221;10560.0;56.01;-10.48;-27.04;267.77;-16.47;-0.94;5.0;990.62;59.467;35.957623;-83.92461;803.97;NaN;;3.6;12.226105;222.1;11 / 16;98017;2022-10-03 13:47:11:192
-1.5921;1.9044;7.1788;-0.335;2.462;9.4867;-1.7849;-1.8062;-0.3695;-0.1084;0.5345;0.4067;9187.0;59.16;-7.11;-31.03;272.44;-16.72;0.93;5.0;990.61;63.929;35.957615;-83.924614;801.57;NaN;;3.46;12.226105;218.7;11 / 16;98517;2022-10-03 13:47:11:692
1.0654;1.7154;6.8722;0.8773;2.9358;9.3157;-0.3027;0.8738;3.6495;0.7119;-0.0077;0.1455;9579.0;63.81;-4.95;-30.43;270.7;-10.21;1.92;5.0;990.62;65.203;35.957615;-83.924614;801.57;NaN;;3.46;12.226105;218.7;11 / 16;99018;2022-10-03 13:47:12:193
-1.2054;4.6433;10.9663;0.8245;3.5715;9.0959;0.2174;0.4918;-1.2093;0.0657;-0.163;-0.0245;11553.0;57.24;-10.89;-36.75;271.24;-21.36;-5.18;5.0;990.61;58.698;35.957607;-83.924614;801.32;NaN;;4.28;12.226105;215.5;11 / 16;99518;2022-10-03 13:47:12:693
2.4598;5.479;8.6641;0.9708;3.1992;9.2192;0.9515;1.4178;-0.4949;0.3619;-0.4997;-0.5521;10616.0;53.83;-13.59;-35.91;266.62;-19.04;-6.01;5.0;990.54;61.597;35.957607;-83.924614;801.32;NaN;;4.28;12.226105;215.5;11 / 16;100017;2022-10-03 13:47:13:192
-0.2608;2.3964;9.2231;-0.2688;3.3294;9.2203;0.5879;-3.1567;0.5787;-0.503;0.5822;-0.4824;15474.0;60.38;-2.57;-41.29;282.34;-21.84;1.21;5.0;990.52;61.149;35.957596;-83.92462;802.87;NaN;;5.69;12.226105;216.3;10 / 16;100518;2022-10-03 13:47:13:693
-1.4737;6.7585;12.1119;-0.9324;3.7978;8.9932;-0.1628;1.5034;2.2281;0.3454;-0.0046;0.5961;15702.0;57.54;2.33;-40.33;290.07;-22.78;5.92;5.0;990.55;61.114;35.957596;-83.92462;802.87;NaN;;5.69;12.226105;216.3;10 / 16;101018;2022-10-03 13:47:14:193
-1.8876;3.6162;6.8554;-2.3813;3.4512;8.865;-0.8694;-0.2258;-2.3955;0.0157;0.584;0.36;12476.0;58.56;-0.66;-33.49;285.15;-18.31;13.48;5.0;990.51;61.371;35.957584;-83.92463;803.17;NaN;;5.51;12.226105;204.9;10 / 16;101518;2022-10-03 13:47:14:693
-0.4358;1.8266;7.162;-2.9515;2.2296;9.0823;3.7807;-0.9996;-1.4084;-0.0609;-0.1742;-0.3767;13959.0;60.81;-4.35;-30.62;278.33;-13.14;18.0;5.0;990.52;60.245;35.957584;-83.92463;803.17;NaN;;5.51;12.226105;204.9;10 / 16;102017;2022-10-03 13:47:15:192
-3.2501;5.8822;3.9598;-3.067;4.2646;8.2811;-2.1611;0.663;-1.0E-4;-0.9987;-2.4219;0.2152;17537.0;57.88;4.59;-35.93;292.95;-18.33;14.01;5.0;990.51;59.518;35.957577;-83.92464;804.21;NaN;;5.44;12.226105;210.4;10 / 16;102517;2022-10-03 13:47:15:692
1.6484;7.1034;11.1888;-0.9836;4.6889;8.5567;-1.2972;-0.8697;-3.1379;0.4815;-0.4357;1.0815;17011.0;56.57;0.62;-32.1;288.97;-22.25;11.35;5.0;990.41;63.86;35.957577;-83.92464;804.21;NaN;;5.44;12.226105;210.4;10 / 16;103017;2022-10-03 13:47:16:192
0.5794;3.7181;6.3933;0.2901;4.6647;8.6213;0.1663;-0.2685;-3.1056;-0.1862;-0.3136;-0.2566;16895.0;50.18;-9.3;-37.26;279.83;-28.4;-1.93;5.0;990.36;59.896;35.95757;-83.924644;806.89;NaN;;5.08;12.226105;213.0;10 / 16;103518;2022-10-03 13:47:16:693
2.4371;5.0109;13.352;0.6115;3.9338;8.9622;-1.2906;2.5091;-0.6491;-0.1368;0.0443;0.4158;15473.0;47.76;-7.99;-41.57;285.73;-30.53;-1.45;5.0;990.39;57.154;35.95757;-83.924644;806.89;NaN;;5.08;12.226105;213.0;10 / 16;104018;2022-10-03 13:47:17:193
-0.3185;4.0376;6.5539;0.0509;3.8932;9.0006;-0.9619;-0.6429;-2.0039;0.1646;0.3958;0.7806;14519.0;49.48;-7.59;-40.99;279.38;-23.35;-1.78;5.0;990.35;59.934;35.95756;-83.92467;811.24;NaN;;4.9;12.226105;216.4;10 / 16;104518;2022-10-03 13:47:17:693
2.3593;3.0428;6.9248;0.0969;3.1893;9.273;-0.2092;-1.7575;3.4175;0.4626;0.1303;-0.1293;15759.0;44.03;-15.97;-42.0;264.99;-16.17;-1.23;5.0;990.35;59.54;35.95756;-83.92467;811.24;NaN;;4.9;12.226105;216.4;10 / 16;105017;2022-10-03 13:47:18:192
-2.6001;4.8266;11.627;-1.8134;4.9655;8.2599;-1.5765;-0.1143;1.9478;0.4135;0.8299;0.4332;19141.0;43.73;-17.96;-39.62;284.72;-30.42;12.38;5.0;990.31;57.821;35.957558;-83.924675;813.07;NaN;;3.96;12.226105;242.1;10 / 16;105517;2022-10-03 13:47:18:692
-4.4435;4.7318;7.8957;-3.8732;4.4952;7.8078;-1.4702;0.7007;-0.2878;-0.8965;-1.0662;-0.4201;19774.0;53.81;-20.49;-23.62;274.67;-27.28;26.38;5.0;990.32;58.116;35.957558;-83.924675;813.07;NaN;;3.96;12.226105;242.1;10 / 16;106018;2022-10-03 13:47:19:193
-5.1173;5.2238;8.9192;-5.5972;3.8327;7.0818;-2.4177;0.7938;2.4643;-0.079;1.2263;0.6193;21158.0;51.9;-13.42;-31.57;287.65;-22.56;31.29;5.0;990.31;61.67;35.957558;-83.924675;813.07;NaN;;3.96;12.226105;242.1;10 / 16;106518;2022-10-03 13:47:19:693
-1.2233;1.3298;13.669;-4.1957;3.3688;8.1986;1.2024;1.9763;0.4561;-0.1966;-1.6904;-1.1399;20851.0;54.75;-8.83;-29.79;284.81;-20.09;27.1;5.0;990.32;58.437;35.957558;-83.924675;813.07;NaN;;3.96;12.226105;242.1;10 / 16;107018;2022-10-03 13:47:20:193
2.5415;0.0574;13.9337;1.8191;1.0292;9.5813;-6.4525;-1.6856;4.1019;0.0493;-1.1417;0.0497;18783.0;30.02;8.42;-51.64;288.37;-5.32;-8.25;5.0;990.33;57.716;35.957558;-83.92468;813.51;NaN;;3.49;12.226105;227.5;10 / 16;107517;2022-10-03 13:47:20:692
15.6598;1.7477;-0.3209;7.7924;5.2775;2.7562;-0.1401;-3.6998;-1.7878;0.2668;-4.1121;2.0065;6130.0;-12.66;-13.99;-51.21;275.16;-32.56;-70.52;5.0;990.31;56.669;35.957558;-83.92468;813.51;NaN;;3.49;12.226105;227.5;10 / 16;108018;2022-10-03 13:47:21:193
16.0597;-0.9972;2.8813;8.448;-2.9817;-3.9888;8.953;3.9092;10.0359;2.6381;0.7658;-2.2226;1603.0;-48.39;-0.13;-11.85;252.7;17.68;-120.24;5.0;990.37;59.348;35.957558;-83.92468;813.51;NaN;;3.49;12.226105;227.5;10 / 16;108518;2022-10-03 13:47:21:693
7.6768;-0.4585;-1.9705;9.2973;3.0147;-0.8012;-1.1426;-7.5706;-1.9761;0.4797;-0.1532;0.3023;1286.0;-53.19;4.44;-7.09;346.03;-24.82;-89.4;5.0;990.33;58.627;35.957558;-83.92468;813.51;NaN;;3.49;12.226105;227.5;10 / 16;109017;2022-10-03 13:47:22:192
14.5968;-1.835;-0.3832;9.3596;-2.3042;-1.8054;4.0255;3.4409;3.6364;0.998;0.5468;-0.677;1255.0;-59.4;-4.78;-17.14;237.56;13.59;-100.92;5.0;990.36;60.79;35.95756;-83.9247;815.03;NaN;;2.84;12.226105;307.6;10 / 16;109518;2022-10-03 13:47:22:693
8.1302;-0.8548;-3.3637;9.6929;0.4953;-1.4047;-1.0835;-5.731;-2.7042;0.0462;-0.8165;0.5559;1053.0;-57.09;-9.53;-21.13;271.5;-10.47;-89.75;5.0;990.34;57.425;35.95756;-83.9247;815.03;NaN;;2.84;12.226105;307.6;10 / 16;110018;2022-10-03 13:47:23:193
13.7408;1.8338;1.0989;9.198;-2.3143;-2.4921;6.5533;3.7428;-0.351;-0.9871;1.189;-0.7408;1360.0;-57.9;-6.82;-15.11;241.75;9.48;-104.38;5.0;990.36;56.062;35.957558;-83.924706;816.23;NaN;;4.25;12.226105;248.0;10 / 16;110518;2022-10-03 13:47:23:693
7.0074;-0.8991;-0.3329;8.9888;3.8311;0.8331;0.7658;-7.2263;-5.7429;-1.2308;-0.9664;2.1706;984.0;-47.36;-20.21;-18.73;289.85;-29.95;-88.41;5.0;990.32;58.944;35.957558;-83.924706;816.23;NaN;;4.25;12.226105;248.0;10 / 16;111017;2022-10-03 13:47:24:192
14.0821;-0.449;2.9554;8.9416;-3.0082;-2.6776;8.4982;2.7352;5.051;-0.5538;1.1009;-0.0944;860.0;-48.97;-10.22;-17.34;233.54;17.86;-106.67;5.0;990.35;61.188;35.957554;-83.92471;819.55;NaN;;3.46;12.226105;229.6;11 / 16;111518;2022-10-03 13:47:24:693
8.5325;-1.634;-2.8884;9.6705;1.6234;-0.1249;-1.1391;-2.9979;-1.2146;-0.2241;-0.5951;1.8212;953.0;-46.82;-11.61;-18.49;257.59;-9.53;-90.74;5.0;990.31;61.336;35.957554;-83.92471;819.55;NaN;;3.46;12.226105;229.6;11 / 16;112018;2022-10-03 13:47:25:193
10.485;0.7564;1.4689;8.781;-3.0011;-3.1713;6.2537;2.2011;1.4234;-2.1555;0.8322;0.42;899.0;-49.46;-6.38;-7.86;232.98;21.96;-114.76;5.0;990.36;55.619;35.957542;-83.92472;820.06;NaN;;3.67;12.226105;225.8;11 / 16;112518;2022-10-03 13:47:25:693
11.3599;-1.9944;-2.1248;9.7381;1.1065;0.3389;-2.3163;-4.1199;-3.7894;-0.5265;-0.7866;1.3108;1075.0;-48.96;0.06;-8.23;311.45;-6.48;-88.01;5.0;990.33;58.983;35.957542;-83.92472;820.06;NaN;;3.67;12.226105;225.8;11 / 16;113017;2022-10-03 13:47:26:192
16.5431;-1.9872;0.0849;7.8549;-4.7263;-3.4831;4.9375;2.5212;3.0641;-0.2137;-0.9273;1.5501;911.0;-49.39;1.28;-4.95;233.8;27.37;-115.12;5.0;990.34;55.323;35.957535;-83.924736;819.55;NaN;;3.92;12.226105;229.8;11 / 16;113519;2022-10-03 13:47:26:694
7.0364;-3.0045;-3.14;8.3488;1.1653;-5.011;-2.1579;-6.798;0.3037;-0.2223;0.2369;1.8352;1007.0;-46.14;-8.06;8.94;260.37;-6.82;-120.97;5.0;990.3;58.45;35.957535;-83.924736;819.55;NaN;;3.92;12.226105;229.8;11 / 16;114018;2022-10-03 13:47:27:193
15.2312;-3.8234;-3.3601;7.5139;-4.7549;-4.1354;5.3064;4.417;0.8136;0.75;-0.2788;-1.9695;951.0;-45.75;-3.09;13.86;203.29;32.65;-121.26;5.0;990.34;57.154;35.957527;-83.92474;820.27;NaN;;4.18;12.226105;222.0;11 / 16;114518;2022-10-03 13:47:27:693
6.5013;-2.6264;-5.042;9.0505;-0.6894;-3.7127;-2.29;-5.2381;-0.8025;-0.0505;-0.2924;0.9841;826.0;-45.41;-5.81;8.4;292.5;-10.37;-106.94;5.0;990.35;56.588;35.957527;-83.92474;820.27;NaN;;4.18;12.226105;222.0;11 / 16;115017;2022-10-03 13:47:28:192
13.2371;-4.3633;-1.6448;7.7981;-3.9288;-4.4637;6.396;2.1962;1.0017;-0.4549;2.1909;-1.2527;840.0;-45.02;-0.43;13.58;208.97;23.62;-119.79;5.0;990.35;56.943;35.957516;-83.92475;820.94;NaN;;4.21;12.226105;209.0;11 / 16;115517;2022-10-03 13:47:28:692
8.1748;-3.0775;-5.5543;9.2222;0.0321;-3.3347;-3.7582;-6.9498;-1.0521;-0.1027;-0.5081;0.5963;821.0;-44.14;-13.91;3.88;264.89;-16.97;-105.35;5.0;990.32;54.342;35.957516;-83.92475;820.94;NaN;;4.21;12.226105;209.0;11 / 16;116018;2022-10-03 13:47:29:193
14.4939;-1.0941;0.0694;5.7057;-5.1184;-6.117;8.9502;1.5565;3.6265;-0.9279;1.9578;-0.0644;807.0;-42.84;-2.08;9.79;225.26;30.47;-132.2;5.0;990.33;56.586;35.957504;-83.92475;820.52;NaN;;4.82;12.785288;185.1;11 / 16;116517;2022-10-03 13:47:29:692
2.4;-3.7469;-5.5496;8.1574;3.1211;-4.4595;-0.8552;-9.2796;-0.4728;1.1356;-0.2188;2.8424;1168.0;-39.43;-4.2;7.35;321.13;-22.16;-112.95;5.0;990.31;57.413;35.957504;-83.92475;820.52;NaN;;4.82;12.785288;185.1;11 / 16;117018;2022-10-03 13:47:30:193
12.5845;-0.195;-1.7441;6.178;-5.6278;-5.1313;9.2735;5.3306;1.7978;-0.9647;1.2437;-0.1702;998.0;-39.51;-11.21;14.89;203.55;35.02;-129.71;5.0;990.31;57.432;35.95749;-83.92476;818.84;NaN;;6.34;12.245599;210.1;11 / 16;117518;2022-10-03 13:47:30:693
8.1927;-5.2466;-5.5603;9.2111;2.2413;-2.5107;-3.3559;-7.3466;-1.4195;0.4042;-0.8397;2.8318;1147.0;-36.28;-11.1;10.58;151.5;-13.21;-105.25;5.0;990.32;61.139;35.95749;-83.92476;818.84;NaN;;6.34;12.245599;210.1;11 / 16;118017;2022-10-03 13:47:31:192
16.8078;0.4262;-2.2002;7.6962;-4.3852;-4.2083;9.0957;6.8996;4.0962;-0.3767;0.7963;0.2766;1128.0;-37.12;-1.91;6.3;227.8;37.45;-135.29;5.0;990.33;64.352;35.95748;-83.92477;818.5;NaN;;4.57;12.226105;220.3;11 / 16;118517;2022-10-03 13:47:31:692
11.8244;-4.2724;-3.0296;8.8511;2.9288;-3.0415;-4.1345;-6.7495;1.2601;0.2878;0.0046;2.721;1301.0;-40.35;-4.48;3.73;310.49;-17.38;-108.96;5.0;990.33;59.24;35.95748;-83.92477;818.5;NaN;;4.57;12.226105;220.3;11 / 16;119018;2022-10-03 13:47:32:193
15.9637;-5.1317;2.6013;8.4191;-4.9409;-0.9365;7.2586;6.6434;0.5797;-0.6332;-0.6467;0.5246;1210.0;-44.85;7.65;-13.16;217.6;42.58;-96.48;5.0;990.33;63.654;35.957466;-83.924774;819.59;NaN;;4.79;12.226105;196.9;11 / 16;119518;2022-10-03 13:47:32:693
0.6835;2.4933;6.0464;5.0066;6.4682;5.4099;6.2403;-4.1109;-6.4988;-2.8768;5.665;-1.7109;1190.0;-35.94;-21.13;-19.61;52.01;-41.27;-42.78;5.0;990.22;55.8;35.957466;-83.924774;819.59;NaN;;4.79;12.226105;196.9;11 / 16;120018;2022-10-03 13:47:33:193
1.7154;5.2932;11.1601;1.1659;4.6324;8.5646;-0.5504;0.8186;-0.1767;-0.4634;0.5649;0.1829;3010.0;6.77;-32.87;-28.29;216.98;-31.37;-7.75;5.0;990.19;55.461;35.95746;-83.92478;821.21;NaN;;4.68;12.226105;211.7;12 / 16;120518;2022-10-03 13:47:33:693
4.5978;4.8362;7.4874;3.4889;4.1396;8.1769;0.5052;-0.0509;-1.5995;-0.3868;-1.5173;-0.2922;2648.0;8.74;-28.93;-23.19;222.93;-30.18;-12.36;5.0;990.22;57.539;35.95746;-83.92478;821.21;NaN;;4.68;12.226105;211.7;12 / 16;121018;2022-10-03 13:47:34:193
4.9056;1.2604;11.5744;5.6298;2.1696;7.731;-0.6296;0.9196;4.687;0.0201;0.5014;0.1031;6965.0;-9.21;-25.56;-16.12;185.74;-12.78;-36.06;5.0;990.22;59.762;35.957447;-83.92479;821.22;NaN;;4.57;12.226105;219.1;13 / 16;121518;2022-10-03 13:47:34:693
7.1022;4.9295;3.5551;4.2768;4.9234;7.3239;0.6695;-1.2835;-0.9487;0.3527;-0.2204;0.4393;5032.0;-15.32;-18.37;-18.62;136.33;-30.14;-30.28;5.0;990.19;53.184;35.957447;-83.92479;821.22;NaN;;4.57;12.226105;219.1;13 / 16;122018;2022-10-03 13:47:35:193
3.9251;4.8924;6.3586;5.6523;4.4055;6.6942;-2.3256;-1.5494;1.5146;0.5414;0.1288;-0.2508;8092.0;-19.07;-17.16;-22.11;189.57;-25.15;-41.82;5.0;990.18;61.507;35.95744;-83.924805;821.4;NaN;;4.93;12.226105;239.8;13 / 16;122517;2022-10-03 13:47:35:692
2.8274;2.2253;6.2785;4.7495;3.6926;7.7445;0.3593;-1.7849;-0.821;0.4162;0.8448;-0.2079;9359.0;-25.33;-13.8;-24.43;105.63;-20.23;-38.74;5.0;990.19;54.857;35.95744;-83.924805;821.4;NaN;;4.93;12.226105;239.8;13 / 16;123017;2022-10-03 13:47:36:192
6.7537;2.7353;1.8553;4.8829;5.2235;6.7114;1.1052;-2.4386;-0.1224;0.3577;-0.8043;0.4116;7380.0;-16.71;-9.51;-30.11;338.26;-32.18;-36.04;5.0;990.13;54.754;35.957428;-83.92481;823.55;NaN;;4.68;12.226105;241.8;13 / 16;123518;2022-10-03 13:47:36:693
4.1213;5.5926;7.8574;7.1158;4.7227;4.82;-3.9955;2.0758;3.0554;-1.1904;-0.6093;1.5689;9542.0;-30.32;-2.98;-25.74;343.96;-28.79;-55.89;5.0;990.16;69.392;35.957428;-83.92481;823.55;NaN;;4.68;12.226105;241.8;13 / 16;124018;2022-10-03 13:47:37:193
4.2879;4.0795;6.9188;5.5362;3.7967;7.1488;0.0587;-1.2674;-0.3328;1.1656;1.2465;0.1678;10345.0;-38.94;12.71;-34.31;6.08;-16.93;-45.67;5.0;990.08;63.168;35.957424;-83.924835;825.64;NaN;;4.03;12.226105;251.7;13 / 16;124518;2022-10-03 13:47:37:693
6.2809;2.1153;2.843;5.7471;4.0418;6.8415;1.5952;-0.6875;-2.9487;-1.2236;-1.0441;-0.2;7939.0;-8.53;-10.52;-52.61;288.48;-24.34;-40.03;5.0;990.08;54.023;35.957424;-83.924835;825.64;NaN;;4.03;12.226105;251.7;13 / 16;125017;2022-10-03 13:47:38:192
6.227;5.8391;14.4521;7.6867;2.3666;5.6112;-2.9884;1.1645;1.7916;-1.0088;-0.9677;0.2227;10358.0;-14.44;-16.31;-44.51;262.09;-17.55;-54.83;5.0;990.12;61.848;35.957417;-83.92485;826.82;NaN;;4.18;12.226105;241.9;13 / 16;125517;2022-10-03 13:47:38:692
2.8454;4.8793;0.638;2.7723;7.8746;5.1455;3.052;0.9593;9.5285;4.5026;0.7324;-0.6596;8484.0;-12.52;-28.8;-26.17;351.65;-53.42;-28.31;5.0;990.11;54.145;35.957417;-83.92485;826.82;NaN;;4.18;12.226105;241.9;13 / 16;126018;2022-10-03 13:47:39:193
11.0871;8.5947;5.3689;8.2139;5.0106;1.8965;2.7084;1.8876;1.5508;-0.5756;-1.362;0.9078;2643.0;-2.74;-32.25;-1.63;182.32;-39.75;-70.84;5.0;990.03;63.081;35.95741;-83.924866;826.06;NaN;;6.3;12.226105;236.7;12 / 16;126518;2022-10-03 13:47:39:693
8.6677;7.3786;4.9391;4.4363;7.2904;4.8312;4.3992;0.1127;0.6397;1.0436;1.9819;-1.0923;7983.0;-15.83;-23.14;-9.08;161.27;-33.91;-51.09;5.0;990.02;57.28;35.95741;-83.924866;826.06;NaN;;6.3;12.226105;236.7;12 / 16;127018;2022-10-03 13:47:40:193
3.3422;4.0352;2.8214;6.8299;5.72;4.0993;-2.1112;-0.1779;-0.3987;-0.5283;-0.0689;-0.3403;6499.0;3.39;-18.47;-18.04;237.73;-35.68;-59.03;5.0;989.98;60.753;35.9574;-83.92488;826.26;NaN;;4.39;12.226105;237.8;11 / 16;127518;2022-10-03 13:47:40:693
8.0178;7.0038;9.4531;8.2006;1.8556;5.0475;0.4283;3.4837;3.1655;-1.4432;-0.7994;2.2307;9611.0;5.03;-10.56;-25.29;254.49;-23.44;-58.88;5.0;989.98;59.438;35.9574;-83.92488;826.26;NaN;;4.39;12.226105;237.8;11 / 16;128017;2022-10-03 13:47:41:192
9.6661;1.0379;5.7506;5.8308;5.3904;5.7546;2.2353;-3.0491;-2.9303;-0.545;0.2554;0.8107;6997.0;9.79;-20.44;-20.18;238.78;-34.91;-48.46;5.0;989.94;55.542;35.957394;-83.92489;824.58;NaN;;5.4;12.226105;222.1;11 / 16;128517;2022-10-03 13:47:41:692
4.1943;3.7875;5.5149;6.5203;3.7888;6.2691;-0.8426;0.6727;1.0852;-1.0591;0.1997;-1.0594;10235.0;18.47;-24.77;-15.83;224.24;-18.71;-48.25;5.0;989.91;57.022;35.957394;-83.92489;824.58;NaN;;5.4;12.226105;222.1;11 / 16;129018;2022-10-03 13:47:42:193
1.9753;3.3948;5.3581;4.1276;3.9425;7.9743;-0.4799;-2.5175;-2.3311;0.7559;0.5259;-0.4177;15601.0;29.57;-6.51;-29.63;268.24;-23.7;-27.37;5.0;989.87;55.806;35.95739;-83.924904;821.6;NaN;;4.72;12.226105;215.4;11 / 16;129518;2022-10-03 13:47:42:693
6.5324;4.5464;4.4399;5.5855;3.6186;7.2027;0.6878;-0.0592;3.0672;0.8732;-0.6257;-0.052;13431.0;15.9;-15.75;-31.37;253.37;-21.65;-37.79;5.0;989.9;52.36;35.95739;-83.924904;821.6;NaN;;4.72;12.226105;215.4;11 / 16;130018;2022-10-03 13:47:43:193
10.3208;4.8841;-6.4436;7.0136;6.0722;-3.1794;-2.928;-0.1428;5.4483;3.5205;-3.0488;1.376;13816.0;0.51;-20.27;-32.89;247.68;-22.39;-45.04;5.0;989.89;54.105;35.957382;-83.92491;823.61;NaN;;4.79;12.226105;231.1;14 / 16;130517;2022-10-03 13:47:43:692
21.7959;6.44;-9.3861;8.4608;4.947;-0.3366;34.3379;-0.6416;8.3845;5.7036;3.3281;0.0375;3605.0;6.56;-29.91;7.86;164.22;-30.29;-92.28;5.0;989.89;56.355;35.957382;-83.92491;823.61;NaN;;4.79;12.226105;231.1;14 / 16;131019;2022-10-03 13:47:44:194
44.7649;-2.5208;31.722;9.554;1.085;-1.9271;-11.55;-3.8454;5.4756;-0.4603;1.3442;6.726;2631.0;8.48;-28.93;20.44;103.08;-52.28;176.86;5.0;989.84;57.822;35.957382;-83.92493;825.86;NaN;;4.36;12.226105;237.3;14 / 16;131517;2022-10-03 13:47:44:692
5.8391;12.4636;-0.0634;6.9653;6.7497;1.4482;-4.9665;-0.2297;-1.7017;0.133;-0.4821;-0.0021;4904.0;-20.53;-30.04;4.18;134.94;-43.49;-78.25;5.0;989.85;57.448;35.957382;-83.92493;825.86;NaN;;4.36;12.226105;237.3;14 / 16;132018;2022-10-03 13:47:45:193
9.0676;5.7817;-0.4382;7.8591;5.6393;-1.6135;-0.1458;-2.5199;-2.5503;-1.2519;-1.961;0.5062;5121.0;-9.47;-31.13;-9.02;207.63;-40.27;-93.43;5.0;989.82;56.47;35.957382;-83.924934;829.23;NaN;;4.25;12.226105;240.2;14 / 16;132518;2022-10-03 13:47:45:693
9.6194;4.1584;1.4689;8.8251;4.2243;-0.6665;6.0756;5.3243;-0.316;0.2462;2.264;0.4778;3817.0;-23.83;-19.67;-12.58;239.95;-22.45;-105.81;5.0;989.82;60.982;35.957382;-83.924934;829.23;NaN;;4.25;12.226105;240.2;14 / 16;133018;2022-10-03 13:47:46:193
8.5528;7.7055;-2.9985;6.6234;7.2127;-0.5269;-1.3652;2.1996;1.6558;1.0738;-0.0157;0.1755;4566.0;-14.14;-26.49;-19.76;247.97;-47.35;-94.55;5.0;989.81;57.822;35.95739;-83.92494;827.79;NaN;;1.62;12.226105;245.9;14 / 16;133518;2022-10-03 13:47:46:693
5.7302;5.4538;2.126;7.992;5.6745;-0.3136;-2.1286;0.2514;-0.313;-1.2228;-0.2743;0.455;3855.0;-8.36;-29.16;-16.86;220.94;-35.34;-101.06;5.0;989.8;58.05;35.95739;-83.92494;827.79;NaN;;1.62;12.226105;245.9;14 / 16;134017;2022-10-03 13:47:47:192
7.0831;3.5324;1.6328;8.74;4.434;0.3504;-0.2932;-0.6446;-0.7799;0.0684;0.8953;-0.6121;4929.0;-9.36;-23.61;-21.75;230.13;-24.04;-93.39;5.0;989.74;60.461;35.95739;-83.92494;827.79;NaN;;1.62;12.226105;245.9;14 / 16;134517;2022-10-03 13:47:47:692
11.4556;5.9459;-0.061;7.4847;6.2089;1.2643;-0.6682;-1.9451;-0.0039;-0.1639;-1.0929;3.1315;5512.0;-4.69;-24.26;-27.32;249.89;-42.57;-72.1;5.0;989.7;59.183;35.95739;-83.92494;827.79;NaN;;1.62;12.226105;245.9;14 / 16;135018;2022-10-03 13:47:48:193
6.2115;0.7923;2.2289;9.5437;-0.1909;-2.2474;1.2558;0.8487;0.8649;-2.5764;0.5898;-0.0283;3803.0;-17.76;-18.08;-22.97;235.48;1.12;-103.25;5.0;989.73;59.515;35.957394;-83.92495;828.95;NaN;;2.05;12.226105;223.8;15 / 16;135518;2022-10-03 13:47:48:693
9.2701;2.2935;-0.516;9.4139;-1.6616;-2.1883;1.1885;4.5525;1.0775;0.7583;-0.4193;0.0373;4247.0;-24.81;-6.02;-29.78;255.7;9.75;-103.09;5.0;989.7;59.506;35.957394;-83.92495;828.95;NaN;;2.05;12.226105;223.8;15 / 16;136017;2022-10-03 13:47:49:192
8.651;-2.8023;-2.5232;9.143;-0.6431;-3.4874;-1.4443;0.2812;1.0428;-0.0037;0.1102;-0.5807;4121.0;-31.46;-7.86;-26.66;255.51;4.25;-111.15;5.0;989.68;65.666;35.957394;-83.92495;828.95;NaN;;2.05;12.226105;223.8;14 / 16;136517;2022-10-03 13:47:49:692
6.2713;-1.5431;-4.4734;8.8202;-0.9821;-4.1726;-2.2534;0.666;-0.2658;0.069;0.1423;-0.9991;4199.0;-41.21;-14.29;-14.19;240.55;5.75;-115.32;5.0;989.64;60.635;35.957394;-83.92495;828.95;NaN;;2.05;12.226105;223.8;14 / 16;137018;2022-10-03 13:47:50:193
12.131;0.7839;-2.7987;8.8853;-1.6467;-3.8093;-0.231;4.3022;-0.4852;0.2123;-0.1002;0.5472;4442.0;-43.05;-17.61;-9.53;228.87;7.97;-113.11;5.0;989.66;60.978;35.957394;-83.92496;829.29;NaN;;1.48;12.226105;181.9;14 / 16;137518;2022-10-03 13:47:50:693
9.4089;-2.4574;-4.3729;9.2348;0.9929;-3.1468;-0.7048;-2.1115;-0.6621;-0.23;-0.3192;0.5131;4741.0;-39.23;-20.78;-6.3;226.46;-5.81;-108.82;5.0;989.64;64.355;35.957394;-83.92496;829.29;NaN;;1.48;12.226105;181.9;14 / 16;138017;2022-10-03 13:47:51:192
14.1108;-1.1671;-3.2429;8.3366;-2.9861;-4.2137;3.5615;3.0167;-1.0239;-0.5596;0.6557;-0.1798;4338.0;-40.78;-15.86;-4.56;222.36;14.39;-115.31;5.0;989.65;60.111;35.957382;-83.924965;828.89;NaN;;3.2;12.226105;207.4;14 / 16;138518;2022-10-03 13:47:51:693
4.6289;-3.6655;-3.9419;8.1073;3.9954;-3.8052;-2.4042;-6.9094;-0.4754;0.2107;-0.4489;-1.4703;4507.0;-38.38;-16.35;-3.47;265.65;-22.86;-108.88;5.0;989.68;64.323;35.957382;-83.924965;828.89;NaN;;3.2;12.226105;207.4;14 / 16;139017;2022-10-03 13:47:52:192
12.4564;2.2756;-1.4689;6.6549;-4.4908;-5.6316;4.5806;6.0307;4.3882;-1.2748;0.275;1.0795;4392.0;-35.94;-13.41;-2.76;227.69;27.25;-130.24;5.0;989.65;57.252;35.95738;-83.92499;833.69;NaN;;4.1;12.226105;225.2;14 / 16;139517;2022-10-03 13:47:52:692
2.2062;-4.0878;-3.4451;8.2719;4.0786;-3.3334;1.1236;-8.2618;-1.991;1.6433;0.2397;-3.2657;5104.0;-37.71;0.11;-6.82;293.22;-11.02;-103.58;5.0;989.62;67.303;35.95738;-83.92499;833.69;NaN;;4.1;12.226105;225.2;14 / 16;140018;2022-10-03 13:47:53:193
12.0772;1.5024;-3.0981;6.6391;-5.2576;-4.9447;6.7174;5.4594;2.0962;-1.0584;-0.2699;2.1971;4220.0;-36.3;-15.22;-6.52;223.09;14.15;-113.08;5.0;989.69;55.82;35.957375;-83.924995;835.53;NaN;;4.18;12.226105;226.2;14 / 16;140518;2022-10-03 13:47:53:693
6.1696;-7.1118;-4.3143;6.5442;5.2442;-5.0835;4.9437;-11.8921;-1.1018;0.2091;-0.9393;-2.7125;3307.0;-35.94;12.98;-1.57;314.7;-5.96;-113.93;5.0;989.64;56.018;35.957375;-83.924995;835.53;NaN;;4.18;12.226105;226.2;14 / 16;141018;2022-10-03 13:47:54:193
13.0167;4.2951;-0.1184;6.0332;-4.7272;-6.1175;10.8805;4.7869;0.5093;-1.0604;-0.8088;2.739;2923.0;-31.46;-20.44;-0.24;210.93;28.79;-125.09;5.0;989.7;71.264;35.957367;-83.92501;836.92;NaN;;4.25;12.226105;216.4;16 / 16;141517;2022-10-03 13:47:54:692
4.5356;-7.3463;-4.0161;7.3801;5.3436;-3.6264;1.2199;-12.2064;0.448;1.4319;-0.8384;-3.2862;3228.0;-36.37;-0.67;-5.04;307.39;-33.02;-116.17;5.0;989.65;68.679;35.957367;-83.92501;836.92;NaN;;4.25;12.226105;216.4;16 / 16;142017;2022-10-03 13:47:55:192
12.8707;3.2154;-2.9913;4.9295;-5.4629;-6.4828;9.4966;4.0889;1.8444;-1.0964;-0.8197;3.4353;2576.0;-30.17;-24.73;-3.6;213.76;28.04;-127.56;5.0;989.7;59.489;35.95736;-83.925026;839.67;NaN;;4.46;13.36102;213.4;16 / 16;142518;2022-10-03 13:47:55:693
-5.7171;-9.4615;-3.2213;7.1096;5.2302;-4.2743;1.9408;-13.7446;1.4847;2.0562;-1.1078;-4.0559;2933.0;-35.38;4.97;-4.07;311.71;-32.23;-121.01;5.0;989.66;61.424;35.95736;-83.925026;839.67;NaN;;4.46;13.36102;213.4;16 / 16;143017;2022-10-03 13:47:56:192
15.7735;0.9697;3.3206;5.1173;-5.1809;-6.5682;8.8734;3.5641;2.0923;-0.9451;-1.1658;3.6028;2584.0;-25.2;-14.92;-4.14;217.76;26.35;-122.77;5.0;989.65;69.317;35.95735;-83.92504;842.88;NaN;;4.93;12.234062;223.7;16 / 16;143518;2022-10-03 13:47:56:693
0.9159;-7.3714;-3.4487;8.8529;3.314;-2.6105;0.3659;-10.7524;-0.9309;1.084;-0.1331;-3.2441;3416.0;-28.26;5.93;-7.22;313.84;-19.75;-106.43;5.0;989.59;71.428;35.95735;-83.92504;842.88;NaN;;4.93;12.234062;223.7;16 / 16;144018;2022-10-03 13:47:57:193
13.9349;2.6169;-3.8186;5.6816;-5.8931;-5.4001;8.5786;7.7437;2.0372;-1.6829;0.0686;1.7149;2816.0;-30.9;-12.79;-6.99;224.25;20.89;-117.01;5.0;989.65;60.982;35.957344;-83.92506;842.22;NaN;;5.18;12.226105;231.0;16 / 16;144517;2022-10-03 13:47:57:692
1.3621;-10.7267;-1.5323;8.1221;4.3278;-3.3871;0.7798;-10.4699;-0.8891;0.2834;-0.0388;-3.0833;2950.0;-32.51;9.73;-4.37;321.31;-14.58;-107.7;5.0;989.61;61.494;35.957344;-83.92506;842.22;NaN;;5.18;12.226105;231.0;16 / 16;145018;2022-10-03 13:47:58:193
16.5287;-1.0762;0.2994;5.0934;-6.925;-4.7193;9.0502;9.8458;-0.1155;-2.5263;1.094;0.7872;2460.0;-35.12;-7.05;-5.72;234.37;44.92;-132.82;5.0;989.64;66.601;35.95734;-83.92508;840.98;NaN;;5.04;12.226105;227.0;16 / 16;145517;2022-10-03 13:47:58:692
-0.9984;-7.5329;-2.8525;7.8941;5.1277;-2.7496;0.7798;-12.3169;-1.3344;1.4628;-0.2832;-3.4081;3567.0;-33.06;-3.43;-8.1;301.97;-21.64;-100.44;5.0;989.56;71.98;35.95734;-83.92508;840.98;NaN;;5.04;12.226105;227.0;16 / 16;146019;2022-10-03 13:47:59:194
16.6738;1.4773;-0.7217;4.4789;-6.7129;-5.5719;10.8848;8.2313;2.7854;-2.5174;0.9011;1.2942;2435.0;-32.08;-16.14;-5.76;217.68;29.96;-118.33;5.0;989.61;70.275;35.957333;-83.925095;841.57;NaN;;4.97;12.226105;218.2;16 / 16;146517;2022-10-03 13:47:59:692
0.0191;-4.8577;-3.2046;8.5;4.6464;-1.5267;0.3977;-12.6199;-2.1871;0.5397;-0.3861;1.5428;4203.0;-35.7;2.25;-3.9;329.8;-15.25;-94.12;5.0;989.64;69.973;35.957333;-83.925095;841.57;NaN;;4.97;12.226105;218.2;16 / 16;147018;2022-10-03 13:48:00:193
11.5528;-0.2166;-0.1089;6.7178;-6.0422;-3.8123;8.5092;6.8466;-0.054;-0.6779;0.0825;1.0541;2514.0;-39.0;-12.47;-0.75;213.9;42.33;-120.88;5.0;989.71;66.04;35.957325;-83.9251;841.12;NaN;;5.15;12.226105;198.8;16 / 16;147517;2022-10-03 13:48:00:692
5.2968;-6.5779;-2.1691;9.3978;2.1069;-1.8475;-3.106;-9.285;-0.492;0.3588;-0.1447;0.4508;2934.0;-37.44;-6.51;0.99;279.27;-12.41;-101.12;5.0;989.72;61.874;35.957325;-83.9251;841.12;NaN;;5.15;12.226105;198.8;16 / 16;148017;2022-10-03 13:48:01:192
13.529;0.2827;-0.6176;7.3295;-5.5656;-3.387;4.9189;4.7832;1.243;-0.4592;-0.1542;1.738;1984.0;-33.58;-16.99;9.51;187.71;35.02;-113.87;5.0;989.69;64.915;35.957317;-83.92511;840.42;NaN;;5.15;12.226105;185.6;16 / 16;148518;2022-10-03 13:48:01:693
7.3941;-6.5276;-2.0004;9.6442;0.8475;-1.5625;-0.6675;-7.1463;-1.139;0.0042;0.0956;-0.3396;2754.0;-37.24;-7.48;8.64;141.22;-4.96;-99.2;5.0;989.72;65.469;35.957317;-83.92511;840.42;NaN;;5.15;12.226105;185.6;16 / 16;149017;2022-10-03 13:48:02:192
15.2384;-1.0152;-3.2632;6.4163;-5.9625;-4.4102;5.3377;3.2626;1.2739;-0.2982;-1.007;2.1499;2088.0;-35.29;-13.52;13.2;185.02;34.95;-114.8;5.0;989.67;58.658;35.957302;-83.92511;841.39;NaN;;5.08;12.226105;170.7;16 / 16;149518;2022-10-03 13:48:02:693
5.5591;-5.9435;-4.0627;9.2933;2.0421;-2.3737;-0.1158;-9.1005;-2.2744;-0.2404;0.0325;-1.3763;2615.0;-32.74;-12.94;15.79;125.5;-12.02;-104.33;5.0;989.69;62.903;35.957302;-83.92511;841.39;NaN;;5.08;12.226105;170.7;16 / 16;150018;2022-10-03 13:48:03:193
12.7032;2.5475;0.0957;7.142;-4.8136;-4.6894;8.53;4.1051;5.4352;-0.4691;1.4362;-0.2736;1878.0;-26.72;-19.46;19.59;170.25;26.71;-117.14;5.0;989.68;58.508;35.957287;-83.9251;842.5;NaN;;5.18;12.226105;155.8;16 / 16;150518;2022-10-03 13:48:03:693
6.0523;-7.4635;-2.9088;9.4171;1.0499;-2.5269;-1.2368;-7.8357;-1.873;0.2007;-0.2301;-0.9038;2645.0;-33.37;-13.56;16.09;124.57;-13.59;-104.06;5.0;989.67;63.648;35.957287;-83.9251;842.5;NaN;;5.18;12.226105;155.8;16 / 16;151017;2022-10-03 13:48:04:192
14.9596;3.0404;-2.126;6.7397;-5.6202;-4.3772;8.2057;4.9464;1.4019;-1.5692;0.9396;0.0565;1662.0;-31.61;-14.64;20.21;181.11;34.97;-123.0;5.0;989.71;62.883;35.95728;-83.9251;838.92;NaN;;5.51;12.226105;144.6;16 / 16;151518;2022-10-03 13:48:04:693
2.2002;-2.7915;6.6221;-0.2159;-0.2892;9.8;6.9006;-6.4686;-4.844;-0.7097;7.4384;1.3339;8311.0;-29.29;-18.22;-1.01;121.82;1.69;1.26;5.0;989.66;59.194;35.95728;-83.9251;838.92;NaN;;5.51;12.226105;144.6;16 / 16;152017;2022-10-03 13:48:05:192
-6.2928;-2.5451;13.2802;-2.2294;-0.983;9.4991;-1.4197;-2.0267;2.6729;3.1892;2.1546;1.5732;13529.0;-6.6;-13.97;-38.34;146.02;8.95;9.43;5.0;989.54;62.856;35.957264;-83.925095;838.58;NaN;;5.4;12.226105;149.6;14 / 16;152517;2022-10-03 13:48:05:692
-6.9751;1.1288;9.1633;-5.9164;0.9728;7.7602;2.7089;0.3675;1.6557;0.5854;-0.2068;-0.5088;15508.0;4.09;-14.83;-39.94;116.16;-8.77;34.27;5.0;989.57;65.121;35.957264;-83.925095;838.58;NaN;;5.4;12.226105;149.6;14 / 16;153017;2022-10-03 13:48:06:192
-6.877;2.0794;5.7613;-6.2637;1.6811;7.3559;-2.1925;0.3057;-0.6508;-0.7455;0.983;-0.0367;15657.0;9.83;-16.26;-39.23;115.94;-12.07;38.35;5.0;989.5;62.095;35.957256;-83.92509;836.96;NaN;;5.11;12.226105;157.0;15 / 16;153518;2022-10-03 13:48:06:693
-6.1469;1.9283;10.3089;-5.7938;1.4985;7.769;-1.0022;0.7985;2.0597;0.0781;-0.4397;-0.3286;14304.0;11.53;-18.0;-37.37;134.21;-8.79;36.71;5.0;989.54;68.422;35.957256;-83.92509;836.96;NaN;;5.11;12.226105;157.0;15 / 16;154017;2022-10-03 13:48:07:192
-8.5277;1.5873;9.0401;-6.3506;1.597;7.3;-0.4448;1.17;0.1282;-0.681;0.8911;-0.3018;14212.0;9.64;-20.1;-35.83;126.44;-13.93;39.44;5.0;989.5;66.045;35.95725;-83.92508;837.7;NaN;;4.07;12.226105;141.2;15 / 16;154518;2022-10-03 13:48:07:693
-5.6859;0.4765;13.4824;-3.4882;1.5883;9.0267;-1.6626;1.3247;1.2121;-0.295;-0.3207;0.358;16757.0;9.69;-18.39;-36.04;162.74;-9.32;21.13;5.0;989.56;67.539;35.95725;-83.92508;837.7;NaN;;4.07;12.226105;141.2;15 / 16;155018;2022-10-03 13:48:08:193
-2.3498;2.1248;10.0887;-2.0736;2.1208;9.3474;0.8208;0.7508;-0.2037;0.0702;0.4013;0.4118;18818.0;-4.35;-19.67;-36.75;141.29;-10.66;10.15;5.0;989.53;67.93;35.95724;-83.92507;830.24;NaN;;3.96;12.226105;152.5;15 / 16;155518;2022-10-03 13:48:08:693
-1.5921;2.8071;11.4556;-1.9928;1.6637;9.4568;0.4652;1.2598;-0.1095;0.1082;-0.4504;0.0655;18875.0;-4.99;-20.38;-36.0;138.48;-9.77;11.9;5.0;989.5;69.881;35.95724;-83.92507;830.24;NaN;;3.96;12.226105;152.5;15 / 16;156017;2022-10-03 13:48:09:192
-2.9865;1.8458;10.2335;-2.6601;2.0506;9.2135;-0.2154;0.8231;1.3782;-0.2529;0.9528;-0.2095;18782.0;-6.67;-20.59;-35.64;133.71;-11.88;11.81;5.0;989.44;66.431;35.957233;-83.92507;827.57;NaN;;2.34;12.226105;162.8;15 / 16;156517;2022-10-03 13:48:09:692
-1.3657;2.1715;10.5365;-2.5046;1.214;9.4034;0.6759;1.2256;-0.6552;0.2278;-0.8434;-0.1475;19272.0;1.48;-19.82;-37.54;142.87;-6.78;19.6;5.0;989.49;71.147;35.957233;-83.92507;827.57;NaN;;2.34;12.226105;162.8;15 / 16;157018;2022-10-03 13:48:10:193
-4.1943;0.7038;9.5417;0.5904;0.8933;9.748;0.2904;0.7202;-0.5385;-0.3399;1.0044;-0.0922;20817.0;-5.25;-21.75;-36.09;171.4;-5.23;-3.47;5.0;989.5;68.53;35.957226;-83.92507;826.57;NaN;;4.36;12.226105;155.1;15 / 16;157518;2022-10-03 13:48:10:693
-0.3915;0.1472;10.255;-0.9262;0.1286;9.762;0.8033;0.5579;-1.3696;0.6615;0.1025;0.3349;24336.0;-6.96;-15.86;-38.81;145.5;-0.75;5.42;5.0;989.5;68.117;35.957226;-83.92507;826.57;NaN;;4.36;12.226105;155.1;15 / 16;158018;2022-10-03 13:48:11:193
-3.1017;2.1823;9.2665;-1.9659;1.9611;9.4053;0.1906;-0.5036;-0.2541;0.4658;0.5863;-0.0667;23510.0;-9.21;-17.38;-37.57;131.28;-7.44;7.39;5.0;989.48;72.45;35.95721;-83.925064;825.76;NaN;;5.04;12.226105;150.0;14 / 16;158518;2022-10-03 13:48:11:693
-7.2565;1.7154;13.3208;-3.294;2.6212;8.8571;1.6684;-0.2337;-1.4153;-0.5632;-0.6729;-0.4377;21107.0;0.77;-24.58;-33.84;144.04;-15.08;21.39;5.0;989.47;68.25;35.95721;-83.925064;825.76;NaN;;5.04;12.226105;150.0;14 / 16;159018;2022-10-03 13:48:12:193
-4.4973;3.5803;9.0616;-2.0429;4.2544;8.5963;-0.5017;-0.1732;-0.6803;-1.2386;-1.3471;-1.9812;18159.0;4.28;-31.35;-26.31;182.82;-28.93;7.2;5.0;989.46;72.863;35.9572;-83.92506;826.68;NaN;;5.15;12.226105;162.0;13 / 16;159518;2022-10-03 13:48:12:693
1.4378;6.4965;10.0373;-0.4766;4.1945;8.8515;2.7875;2.3226;2.5216;-0.9032;0.4387;0.155;15431.0;4.44;-33.64;-21.09;187.53;-25.32;3.08;5.0;989.51;64.552;35.9572;-83.92506;826.68;NaN;;5.15;12.226105;162.0;13 / 16;160017;2022-10-03 13:48:13:192
-1.2305;3.7289;3.2213;3.7923;5.1972;7.4012;-0.0769;-3.0652;6.4994;2.1491;-0.4583;0.1032;13659.0;-4.52;-33.15;-21.69;185.95;-31.22;-17.2;5.0;989.46;65.521;35.957184;-83.92505;829.51;NaN;;5.0;12.226105;173.9;13 / 16;160518;2022-10-03 13:48:13:693
4.5093;6.4834;5.0444;4.3771;6.8984;5.4243;-1.1572;-1.2674;-0.0475;0.2949;-0.5356;0.1688;5989.0;-12.67;-36.71;-10.74;167.55;-44.7;-38.9;5.0;989.51;61.974;35.957184;-83.92505;829.51;NaN;;5.0;12.226105;173.9;13 / 16;161019;2022-10-03 13:48:14:194
4.7943;9.1083;9.2542;3.8913;7.5245;4.9407;-0.6286;-0.4017;0.3678;1.2458;0.0155;0.299;5006.0;-12.3;-38.57;-2.94;159.11;-46.7;-38.81;5.0;989.53;68.24;35.957176;-83.92505;829.62;NaN;;5.11;12.226105;186.0;13 / 16;161518;2022-10-03 13:48:14:693
2.1667;9.2904;3.4977;2.9037;8.1208;4.6682;2.0193;0.1413;-0.7879;-1.0407;0.4828;-1.2226;4719.0;-8.19;-40.41;-0.21;160.25;-55.9;-31.88;5.0;989.5;59.349;35.957176;-83.92505;829.62;NaN;;5.11;12.226105;186.0;13 / 16;162017;2022-10-03 13:48:15:192
-4.0998;3.4738;7.9412;0.9992;7.1348;6.6533;0.7394;2.1809;-4.1656;-1.5483;-0.7695;-1.4789;12369.0;4.65;-40.16;-8.29;193.38;-44.14;-4.14;5.0;989.53;66.527;35.95716;-83.92505;831.16;NaN;;6.48;12.226105;192.0;14 / 16;162518;2022-10-03 13:48:15:693
6.9954;1.5981;8.3267;5.6651;2.3738;7.6447;2.1567;1.4314;-1.3715;-1.6692;-0.4914;0.4008;16703.0;4.8;-35.64;-20.08;205.94;-18.21;-30.25;5.0;989.5;54.715;35.95716;-83.92505;831.16;NaN;;6.48;12.226105;192.0;14 / 16;163018;2022-10-03 13:48:16:193
4.1393;3.6894;8.6127;4.8353;3.9407;7.5671;-0.7411;1.3082;-0.6004;-0.3908;-0.7107;-0.7419;14163.0;-11.92;-32.04;-25.31;190.4;-23.69;-32.58;5.0;989.55;53.004;35.957146;-83.92506;831.06;NaN;;6.16;12.226105;197.3;13 / 16;163517;2022-10-03 13:48:16:692
7.0519;-1.057;9.4795;6.6162;0.4419;7.225;1.2412;2.3076;-2.2739;-2.7187;-1.2989;-1.0878;14012.0;-11.21;-32.04;-25.52;197.07;-2.58;-42.48;5.0;989.51;53.535;35.957146;-83.92506;831.06;NaN;;6.16;12.226105;197.3;13 / 16;164017;2022-10-03 13:48:17:192
9.95;1.5359;7.3247;6.6599;-0.7511;7.159;-0.2204;2.9032;4.5628;0.6017;-0.674;0.5511;10869.0;-13.56;-23.78;-33.02;207.87;-1.04;-43.17;5.0;989.52;57.086;35.957134;-83.925064;834.16;NaN;;4.68;12.226105;207.1;13 / 16;164518;2022-10-03 13:48:17:693
9.4579;0.3138;6.1756;7.9776;1.2499;5.5647;-1.2104;-2.1828;-3.9529;-1.5772;-0.5311;-0.8941;12999.0;-8.14;-24.04;-33.79;226.66;-16.83;-37.97;5.0;989.49;61.613;35.957134;-83.925064;834.16;NaN;;4.68;12.226105;207.1;13 / 16;165018;2022-10-03 13:48:18:193
7.7091;0.3592;12.2674;7.0002;1.2494;6.7533;0.8595;0.8589;2.5764;-0.6686;1.3345;-0.2388;8753.0;-15.11;-12.9;-38.87;243.59;-3.53;-52.33;5.0;989.51;57.308;35.957123;-83.92507;835.94;NaN;;4.28;12.226105;208.4;13 / 16;165518;2022-10-03 13:48:18:693
8.7697;1.0822;8.4679;7.4518;1.7965;6.1166;0.3786;0.1263;2.3105;-0.9619;-1.5529;0.5168;12110.0;-3.69;-16.58;-39.94;247.95;-10.56;-50.62;5.0;989.48;50.729;35.957123;-83.92507;835.94;NaN;;4.28;12.226105;208.4;13 / 16;166018;2022-10-03 13:48:19:193
11.6103;0.8007;10.716;8.5719;-0.5798;4.7283;0.3281;1.9738;3.5684;-0.4447;0.214;0.3786;6484.0;-16.5;-13.01;-36.82;241.4;3.59;-65.85;5.0;989.49;49.166;35.95711;-83.92507;837.19;NaN;;4.93;12.226105;203.3;13 / 16;166517;2022-10-03 13:48:19:692
9.8997;-0.8091;5.6393;8.0069;0.8854;5.5925;1.0405;-1.7052;0.4027;-1.1601;-1.1737;0.0649;8938.0;-16.54;-11.06;-38.19;250.15;-5.18;-55.07;5.0;989.49;51.051;35.95711;-83.92507;837.19;NaN;;4.93;12.226105;203.3;13 / 16;167018;2022-10-03 13:48:20:193
14.2591;-1.0965;8.2442;8.5847;-1.65;4.4441;-0.4253;1.9648;2.7384;0.8452;0.4384;0.2292;6908.0;-22.54;-5.76;-37.22;247.86;5.89;-65.09;5.0;989.49;54.151;35.9571;-83.92508;840.99;NaN;;5.0;12.226105;202.8;13 / 16;167517;2022-10-03 13:48:20:692
10.4372;-0.0275;6.2354;7.7951;0.4852;5.9305;1.7852;-0.5327;-0.6339;-0.8527;-0.9634;0.3218;9750.0;-18.34;-4.87;-41.34;261.99;-2.84;-52.74;5.0;989.47;57.508;35.9571;-83.92508;840.99;NaN;;5.0;12.226105;202.8;13 / 16;168018;2022-10-03 13:48:21:193
10.0349;0.9482;6.4065;8.5906;-0.7696;4.6669;2.4623;1.954;2.4723;-0.4708;0.4777;-0.0072;7796.0;-20.91;-6.54;-40.18;253.69;0.68;-61.96;5.0;989.48;56.583;35.957092;-83.92509;841.78;NaN;;4.72;12.226105;209.3;12 / 16;168517;2022-10-03 13:48:21:692
11.3348;0.1017;7.8849;8.2739;0.684;5.2196;-1.4648;-0.4428;-3.5465;-1.0577;-1.0521;0.1347;10568.0;-15.52;-4.71;-41.29;277.37;-11.12;-48.76;5.0;989.44;58.244;35.957092;-83.92509;841.78;NaN;;4.72;12.226105;209.3;12 / 16;169018;2022-10-03 13:48:22:193
9.3012;1.8577;7.7402;8.494;0.42;4.8832;-0.0769;0.642;2.6972;0.5897;0.3635;0.3297;8579.0;-19.18;-3.49;-40.29;266.74;-2.45;-60.11;5.0;989.45;51.908;35.95709;-83.925095;843.19;NaN;;5.15;12.226105;226.9;11 / 16;169518;2022-10-03 13:48:22:693
9.1322;1.1922;3.2979;7.5825;2.6105;5.6447;-0.621;-1.6852;-3.0012;-0.0081;-0.0823;-0.3358;9183.0;-13.88;-13.48;-41.87;263.55;-15.44;-53.33;5.0;989.45;51.845;35.95709;-83.925095;843.19;NaN;;5.15;12.226105;226.9;11 / 16;170018;2022-10-03 13:48:23:193
9.015;2.4479;8.8917;8.2562;1.4769;5.0817;-1.3456;1.2008;0.7771;-1.0297;0.3396;0.1601;9145.0;-14.94;-12.92;-41.98;258.45;-11.6;-59.85;5.0;989.45;55.883;35.95708;-83.92511;842.33;NaN;;4.72;12.226105;229.7;12 / 16;170517;2022-10-03 13:48:23:692
10.1581;-2.5917;-2.5283;9.071;1.8852;3.2144;-2.9209;-2.7546;-1.3501;-2.2281;-3.2157;2.0336;10896.0;-13.52;-5.01;-41.79;277.88;-12.67;-51.04;5.0;989.41;53.127;35.95708;-83.92511;842.33;NaN;;4.72;12.226105;229.7;12 / 16;171018;2022-10-03 13:48:24:193
13.8308;-1.4689;2.2899;9.2374;-2.946;-1.47;-0.2934;0.7215;4.8398;-0.1838;-0.5754;0.6009;5414.0;-32.19;8.48;-22.14;272.3;13.57;-97.98;5.0;989.44;57.114;35.95708;-83.925125;843.09;NaN;;4.14;12.226105;247.2;12 / 16;171518;2022-10-03 13:48:24:693
9.1777;-2.5259;2.0112;9.4644;2.5555;0.2557;-1.9155;-4.8992;3.2673;4.1579;-2.9406;0.6937;7152.0;-32.08;8.1;-21.07;308.84;-15.11;-88.45;5.0;989.42;57.634;35.95708;-83.925125;843.09;NaN;;4.14;12.226105;247.2;12 / 16;172018;2022-10-03 13:48:25:193
12.606;3.0176;0.5231;9.5256;0.5989;-2.2528;-0.9497;1.4216;0.2352;-2.5251;0.7607;0.6895;3061.0;-37.76;-9.32;-10.07;250.75;-3.47;-105.61;5.0;989.44;49.697;35.95708;-83.92514;846.26;NaN;;4.54;12.226105;261.8;12 / 16;172517;2022-10-03 13:48:25:692
8.0608;-1.1946;6.2402;6.1866;2.129;7.305;4.0849;-3.0237;-3.1049;0.2584;4.2469;0.2243;14159.0;-32.81;4.84;-20.55;41.79;-12.54;-40.26;5.0;989.41;54.172;35.95708;-83.92514;846.26;NaN;;4.54;12.226105;261.8;12 / 16;173017;2022-10-03 13:48:26:192
0.4418;5.3148;8.7206;1.2221;3.7967;8.9589;-0.8116;0.3;-1.9149;0.0557;0.4291;0.3691;22058.0;10.05;2.16;-42.77;311.81;-23.24;-13.16;5.0;989.36;52.093;35.95708;-83.925156;848.13;NaN;;4.28;12.226105;263.1;12 / 16;173518;2022-10-03 13:48:26:693
-1.2473;-1.1707;9.6757;-0.4485;-0.9016;9.7548;0.0463;0.3126;1.3681;0.5104;-0.7445;-0.3487;20528.0;22.5;3.98;-38.78;270.82;5.28;2.63;5.0;989.39;55.632;35.95708;-83.925156;848.13;NaN;;4.28;12.226105;263.1;12 / 16;174017;2022-10-03 13:48:27:192
-0.4202;2.3677;11.0453;-1.549;1.2687;9.6001;1.3895;-0.59;1.3939;1.2608;1.1985;1.6388;21176.0;18.3;10.48;-39.62;297.66;-4.96;-10.46;5.0;989.36;61.779;35.95708;-83.92517;847.54;NaN;;4.32;12.226105;277.1;12 / 16;174518;2022-10-03 13:48:27:693
-1.0116;3.7265;8.5887;-1.4078;2.7315;9.3128;-0.2217;0.4048;-4.831;-0.2344;-1.4661;-0.0913;11634.0;33.58;-3.77;-29.92;287.43;-21.3;9.27;5.0;989.33;50.749;35.95708;-83.92517;847.54;NaN;;4.32;12.226105;277.1;12 / 16;175018;2022-10-03 13:48:28:193
-3.2931;0.1507;9.1621;-1.6022;0.3403;9.6689;-2.2746;-1.0099;-1.1373;0.4175;-0.0363;0.3381;12703.0;30.71;2.74;-31.71;279.56;-1.99;9.41;5.0;989.34;50.728;35.957085;-83.925186;848.34;NaN;;4.03;12.226105;281.2;12 / 16;175518;2022-10-03 13:48:28:693
-2.1595;1.014;9.8566;-0.8122;1.9369;9.5791;-0.5049;-1.8098;-1.2723;0.6157;-1.1237;1.1301;12125.0;30.68;8.94;-31.59;299.02;-11.39;4.85;5.0;989.37;52.723;35.957085;-83.925186;848.34;NaN;;4.03;12.226105;281.2;12 / 16;176017;2022-10-03 13:48:29:192
-0.9242;5.1245;7.0938;-0.7623;4.2546;8.8027;-0.9728;0.3095;-1.8113;0.4755;-0.3664;0.4461;11872.0;29.63;-4.5;-31.31;290.01;-23.5;5.53;5.0;989.37;52.466;35.957085;-83.92519;848.27;NaN;;4.03;12.226105;259.8;12 / 16;176518;2022-10-03 13:48:29:693
-1.3143;4.7883;6.6006;-0.8642;4.4399;8.7012;-0.0964;-0.3359;-0.6442;-0.2066;0.1154;0.7879;12130.0;26.93;-16.54;-28.59;267.16;-26.09;7.03;5.0;989.37;53.042;35.957085;-83.92519;848.27;NaN;;4.03;12.226105;259.8;12 / 16;177018;2022-10-03 13:48:30:193
-4.4602;2.7712;8.639;-2.9775;2.2045;9.0799;0.3268;0.2388;-1.4263;0.2951;0.1738;-0.3887;15335.0;26.48;-18.41;-28.61;247.45;-15.84;11.72;5.0;989.35;53.655;35.95708;-83.92521;849.28;NaN;;4.32;12.226105;246.8;12 / 16;177517;2022-10-03 13:48:30:692
-1.9522;2.5295;4.8254;-1.5112;3.2583;9.1252;-0.7141;-0.5322;-0.0828;0.1797;0.355;0.5322;17933.0;28.37;-14.02;-30.47;265.34;-19.41;9.4;5.0;989.35;53.478;35.95708;-83.92521;849.28;NaN;;4.32;12.226105;246.8;12 / 16;178019;2022-10-03 13:48:31:194
0.3293;4.2592;9.2785;0.8031;3.7693;9.0176;-0.1301;-1.2748;-0.663;1.3959;-0.2734;-0.2337;21893.0;20.68;-12.81;-35.74;256.74;-12.3;-1.18;5.0;989.36;52.372;35.957073;-83.92522;849.81;NaN;;4.64;12.226105;239.0;12 / 16;178517;2022-10-03 13:48:31:692
-0.6739;2.1045;7.0328;-2.3143;2.4753;9.2026;3.8428;2.1933;-0.1377;-1.0902;2.5544;-0.5869;18904.0;11.4;-21.39;-35.66;189.89;-14.62;14.12;5.0;989.36;50.39;35.957073;-83.92522;849.81;NaN;;4.64;12.226105;239.0;12 / 16;179018;2022-10-03 13:48:32:193
-1.2437;-0.0742;10.5245;-0.0155;-0.5999;9.7883;-2.064;0.6547;-0.9142;-0.3121;-1.6672;-0.288;24076.0;26.48;-5.44;-36.51;250.54;1.84;11.74;5.0;989.36;51.36;35.95707;-83.92523;850.97;NaN;;4.32;12.226105;240.2;12 / 16;179518;2022-10-03 13:48:32:693
-0.2922;3.8127;7.369;0.8887;4.2844;8.7764;0.7429;-0.444;-1.0966;0.4651;0.2726;0.4494;17626.0;14.93;-18.77;-37.18;264.89;-25.91;-5.78;5.0;989.31;52.411;35.95707;-83.92523;850.97;NaN;;4.32;12.226105;240.2;12 / 16;180017;2022-10-03 13:48:33:192
-0.4705;4.3992;5.6919;0.1182;4.8334;8.532;0.8256;-0.1047;-2.5725;-0.1086;0.1035;-0.135;16895.0;16.78;-27.41;-32.01;244.46;-28.83;-0.81;5.0;989.31;51.448;35.95706;-83.92524;855.79;NaN;;4.39;12.226105;236.2;12 / 16;180518;2022-10-03 13:48:33:693
-1.914;1.9116;7.9543;-2.5509;2.8226;9.0386;1.0371;-0.5904;-0.4416;1.2504;-0.7531;-1.2921;19266.0;23.89;-26.44;-29.32;226.16;-18.54;17.59;5.0;989.33;54.495;35.95706;-83.92524;855.79;NaN;;4.39;12.226105;236.2;12 / 16;181018;2022-10-03 13:48:34:193
-1.2999;-3.4786;10.5867;2.5308;-1.0878;9.4118;2.992;-1.3487;4.1275;-1.9471;-1.3245;-2.9133;23743.0;28.09;-10.8;-34.24;249.0;6.37;-15.05;5.0;989.35;57.32;35.957054;-83.925255;856.27;NaN;;4.68;12.226105;239.0;12 / 16;181518;2022-10-03 13:48:34:693
7.8538;-0.3185;3.6377;6.743;-0.3026;7.1141;-0.8277;-0.3254;-0.8048;1.02;-0.2139;0.4692;22873.0;1.46;13.71;-43.14;293.3;1.77;-43.47;5.0;989.29;62.389;35.957054;-83.925255;856.27;NaN;;4.68;12.226105;239.0;12 / 16;182017;2022-10-03 13:48:35:192
7.8766;-3.7851;4.8769;9.2306;-3.3112;-0.0531;6.451;-1.9604;5.3529;-1.1916;-0.5459;1.7733;13610.0;-20.81;6.11;-37.18;272.28;8.79;-72.24;5.0;989.34;53.407;35.95705;-83.92526;856.63;NaN;;4.28;12.226105;252.2;12 / 16;182517;2022-10-03 13:48:35:692
9.9667;-8.3877;-1.2664;9.7094;1.0018;0.9457;2.2924;-9.9244;-0.2343;4.7593;-0.4534;-3.1812;6973.0;-30.22;26.57;-12.86;318.24;22.19;-88.24;5.0;989.26;60.547;35.95705;-83.92526;856.63;NaN;;4.28;12.226105;252.2;12 / 16;183017;2022-10-03 13:48:36:192
16.2284;0.766;-0.4238;6.2901;-6.9755;-2.8191;8.2605;1.784;1.311;-1.6731;-0.4293;3.7562;6125.0;-32.68;-11.29;-20.06;228.45;20.42;-96.56;5.0;989.39;46.781;35.957047;-83.92528;858.69;NaN;;4.79;12.226105;248.8;12 / 16;183517;2022-10-03 13:48:36:692
8.1242;-7.8933;-2.0794;9.5162;2.3402;0.3694;3.8115;-12.186;-0.5618;4.8896;-0.0939;-3.9006;6346.0;-30.75;17.27;-14.31;331.98;-13.81;-87.78;5.0;989.26;54.869;35.957047;-83.92528;858.69;NaN;;4.79;12.226105;248.8;12 / 16;184017;2022-10-03 13:48:37:192
14.2747;1.9175;0.4119;5.7096;-6.6832;-4.3481;8.6279;4.5765;3.9838;-2.0347;0.2181;2.3957;4721.0;-35.06;-10.27;-16.07;227.84;33.44;-108.57;5.0;989.36;48.64;35.95704;-83.92529;859.51;NaN;;4.43;12.226105;243.8;13 / 16;184517;2022-10-03 13:48:37:692
8.5158;-7.1297;-2.0698;8.7597;0.9551;4.3043;3.4741;-10.0353;-4.4695;3.359;2.192;-2.5711;10517.0;-28.57;26.33;-13.72;0.44;-5.59;-63.83;5.0;989.26;69.123;35.95704;-83.92529;859.51;NaN;;4.43;12.226105;243.8;13 / 16;185019;2022-10-03 13:48:38:194
14.8301;-1.3095;2.4778;5.7882;-6.0686;-5.0833;9.14;2.4915;6.931;-1.3956;-2.4049;2.3507;12034.0;-25.07;8.27;-30.47;267.88;26.25;-100.58;5.0;989.36;50.342;35.957035;-83.92531;857.87;NaN;;4.64;12.226105;240.5;14 / 16;185519;2022-10-03 13:48:38:694
8.8235;-7.9173;-1.8984;9.387;2.7925;0.5069;5.9478;-15.111;-1.1712;2.4313;-1.2574;-3.4043;5693.0;-29.87;15.86;-11.34;338.71;-16.54;-86.91;5.0;989.28;66.945;35.957035;-83.92531;857.87;NaN;;4.64;12.226105;240.5;14 / 16;186019;2022-10-03 13:48:39:194
17.866;-1.488;-0.5459;6.4434;-6.5397;-3.4475;8.9718;1.6564;2.9126;-0.9976;-1.5359;4.2148;3806.0;-32.42;-21.58;-14.83;216.97;12.92;-101.2;5.0;989.37;52.104;35.95703;-83.92532;859.77;NaN;;4.43;12.226105;238.1;14 / 15;186519;2022-10-03 13:48:39:694
0.9936;-8.9755;-4.162;8.7616;4.0391;-1.7579;-1.1046;-12.0349;-0.1301;2.1677;-0.6867;-2.8208;5233.0;-34.57;18.88;-14.49;326.7;-5.88;-91.24;5.0;989.33;66.793;35.95703;-83.92532;859.77;NaN;;4.43;12.226105;238.1;14 / 15;187017;2022-10-03 13:48:40:192
16.4486;1.2078;-0.8282;6.214;-7.0994;-2.6748;7.5949;3.8392;1.1426;-0.8443;-0.4503;3.308;4153.0;-36.86;-7.29;-15.26;228.49;46.38;-113.29;5.0;989.36;49.889;35.957024;-83.92534;861.26;NaN;;4.54;12.226105;233.7;14 / 16;187518;2022-10-03 13:48:40:693
0.3018;-7.989;-2.3462;7.657;3.7944;-4.8107;-1.0412;-10.6715;2.0355;2.602;-3.1587;-2.7989;4603.0;-35.16;6.9;-11.94;298.23;-22.76;-122.14;5.0;989.32;57.929;35.957024;-83.92534;861.26;NaN;;4.54;12.226105;233.7;14 / 16;188018;2022-10-03 13:48:41:193
14.7571;0.8967;7.7103;6.7441;-4.6864;-5.3596;7.1076;1.8631;2.8934;-0.9557;1.351;0.2574;3041.0;-37.74;-15.0;-4.95;213.24;21.52;-109.44;5.0;989.37;56.026;35.957016;-83.92535;863.05;NaN;;5.11;12.226105;234.1;15 / 16;188518;2022-10-03 13:48:41:693
5.6512;-7.9639;-2.8777;7.5515;5.8349;-2.2583;1.5921;-13.3624;-0.2115;2.8591;-0.6208;-3.2003;5556.0;-34.01;11.91;-8.68;337.05;-14.56;-89.24;5.0;989.34;61.255;35.957016;-83.92535;863.05;NaN;;5.11;12.226105;234.1;15 / 16;189018;2022-10-03 13:48:42:193
16.7635;-1.7764;5.7745;7.2705;-3.8938;-5.3055;7.3844;5.6794;7.5452;-2.0686;1.0321;0.7904;3612.0;-33.23;-10.72;-6.99;230.09;27.73;-124.66;5.0;989.38;66.862;35.957012;-83.92536;862.98;NaN;;4.61;12.226105;241.4;15 / 16;189518;2022-10-03 13:48:42:693
3.5133;-8.0596;-2.7473;7.003;4.3413;-5.318;1.2857;-11.2945;2.8716;4.404;-2.664;-3.6538;4821.0;-32.53;0.06;-7.09;290.92;-26.28;-127.21;5.0;989.36;64.922;35.957012;-83.92536;862.98;NaN;;4.61;12.226105;241.4;15 / 16;190019;2022-10-03 13:48:43:194
18.2659;-1.7824;-5.0085;5.3016;-7.545;-3.337;9.3916;8.8122;3.742;1.8919;-0.2669;0.499;2754.0;-33.32;-16.71;-1.05;215.24;37.59;-126.93;5.0;989.38;52.1;35.95701;-83.92537;863.58;NaN;;4.64;12.226105;240.9;15 / 16;190518;2022-10-03 13:48:43:693
1.3478;-8.0907;-2.6647;8.8121;2.9551;-3.128;-1.2709;-9.598;1.3077;1.622;-0.9476;-2.6667;3551.0;-36.9;5.18;-10.89;301.92;-17.54;-109.54;5.0;989.38;50.598;35.95701;-83.92537;863.58;NaN;;4.64;12.226105;240.9;15 / 16;191017;2022-10-03 13:48:44:192
16.5936;-3.0344;-2.1595;4.783;-7.3322;-4.4195;11.5161;6.9446;3.2743;-0.2178;0.2669;0.6597;2311.0;-37.82;-2.91;-7.56;234.11;43.76;-125.02;5.0;989.38;54.267;35.957;-83.925385;862.99;NaN;;4.61;12.226105;233.1;15 / 16;191518;2022-10-03 13:48:44:693
2.345;-7.7725;-6.5551;8.7039;1.9849;-4.0587;-1.3578;-8.9527;2.0513;1.776;-1.1414;0.5842;3294.0;-37.16;2.46;-11.51;286.23;-11.68;-115.0;5.0;989.36;55.242;35.957;-83.925385;862.99;NaN;;4.61;12.226105;233.1;15 / 16;192017;2022-10-03 13:48:45:192
18.018;-1.3561;-0.8859;5.8426;-6.457;-4.5102;11.6375;7.6942;1.3968;-1.1152;0.6996;0.4123;2222.0;-38.79;-5.21;-4.74;229.55;38.95;-124.46;5.0;989.38;54.555;35.95699;-83.92539;863.67;NaN;;4.57;12.226105;231.5;15 / 16;192518;2022-10-03 13:48:45:693
8.511;-5.298;-3.6437;8.9678;0.853;-3.8757;-5.2747;-9.1455;0.8802;0.2039;-0.8757;1.4196;3313.0;-36.39;9.9;-13.82;302.68;-13.56;-110.46;5.0;989.37;58.747;35.95699;-83.92539;863.67;NaN;;4.57;12.226105;231.5;15 / 16;193018;2022-10-03 13:48:46:193
17.8397;-1.1815;-0.4478;6.5269;-3.5144;-6.4202;6.2489;5.976;3.6529;-3.6833;1.8714;0.3152;2076.0;-34.69;13.29;-3.41;278.42;21.0;-134.53;5.0;989.37;62.369;35.95698;-83.92539;863.59;NaN;;4.39;12.226105;211.6;15 / 16;193518;2022-10-03 13:48:46:693
4.5248;-5.4335;-5.0336;8.3547;3.6993;-3.5616;-6.9797;-10.2999;-0.8273;-0.0713;-0.3102;1.4596;3589.0;-33.47;-3.17;-3.56;295.93;-22.16;-113.09;5.0;989.34;57.241;35.95698;-83.92539;863.59;NaN;;4.39;12.226105;211.6;15 / 16;194017;2022-10-03 13:48:47:192
16.1949;1.0546;3.3852;7.3925;-4.7659;-4.3368;7.9468;7.7906;5.1446;2.5319;-0.2272;-2.2078;2519.0;-35.87;-6.56;-5.04;226.6;24.82;-115.76;5.0;989.38;49.763;35.95697;-83.92541;861.74;NaN;;5.4;12.226105;243.3;14 / 16;194517;2022-10-03 13:48:47:692
10.5891;-3.2895;-4.5188;9.198;2.6673;-2.1103;-6.1013;-9.3523;-1.6987;-0.7672;-0.0493;1.8335;4691.0;-35.18;-4.05;-12.04;298.07;-26.07;-102.49;5.0;989.33;63.252;35.95697;-83.92541;861.74;NaN;;5.4;12.226105;243.3;14 / 16;195018;2022-10-03 13:48:48:193
19.9418;-5.2071;1.9884;9.4535;-1.5731;-2.0803;9.3762;2.7258;4.4537;0.7562;0.6626;-2.6234;2581.0;-38.03;0.08;-12.19;242.7;25.21;-112.0;5.0;989.39;49.133;35.956963;-83.92542;860.65;NaN;;4.97;12.226105;235.4;14 / 16;195517;2022-10-03 13:48:48:692
-0.1316;4.6086;1.64;1.2775;6.1339;7.5441;2.4693;-6.0488;-6.5077;0.3619;1.085;-0.2668;10763.0;-6.84;-13.89;-25.74;23.67;-38.72;-9.61;5.0;989.33;61.989;35.956963;-83.92542;860.65;NaN;;4.97;12.226105;235.4;14 / 16;196018;2022-10-03 13:48:49:193
-0.0347;3.9897;9.3694;1.2916;4.0292;8.8469;-0.9181;0.641;2.5696;-0.1108;0.0318;0.4887;8236.0;23.89;-19.01;-28.39;258.77;-27.31;-6.48;5.0;989.33;50.583;35.95696;-83.92544;863.31;NaN;;5.15;12.226105;233.3;15 / 16;196517;2022-10-03 13:48:49:692
2.5161;2.7879;13.4237;1.5751;4.059;8.7871;-0.2957;1.2228;1.5087;-0.2064;-0.1947;-0.15;6514.0;22.05;-16.43;-28.69;260.76;-24.45;-10.16;5.0;989.34;52.783;35.95696;-83.92544;863.31;NaN;;5.15;12.226105;233.3;15 / 16;197017;2022-10-03 13:48:50:192
-1.0367;4.168;9.21;1.4707;3.6396;8.9867;-0.3829;0.8229;1.666;-0.2518;-0.1587;0.1975;6274.0;19.28;-16.86;-31.16;261.72;-25.29;-7.79;5.0;989.32;52.455;35.95695;-83.925446;863.28;NaN;;4.5;12.226105;236.0;15 / 16;197518;2022-10-03 13:48:50:693
1.9848;3.3996;7.9759;1.926;3.2014;9.0671;0.1411;0.9415;1.5545;0.0383;-0.0437;-0.1209;7218.0;16.91;-17.62;-34.28;252.85;-19.05;-11.99;5.0;989.33;53.184;35.95695;-83.925446;863.28;NaN;;4.5;12.226105;236.0;15 / 16;198017;2022-10-03 13:48:51:192
1.2054;0.8835;14.307;1.2593;2.6823;9.3483;-0.9727;1.2335;0.5291;-0.1994;-0.0822;0.0182;7380.0;15.68;-16.09;-36.88;255.62;-16.71;-8.97;5.0;989.33;54.754;35.956944;-83.92545;862.41;NaN;;4.5;12.226105;229.1;15 / 16;198517;2022-10-03 13:48:51:692
3.1196;2.2325;15.1834;1.2875;3.4487;9.0895;1.8364;-0.6657;3.7122;0.3522;0.2641;-0.3498;7270.0;16.61;-18.69;-35.44;255.8;-22.05;-9.23;5.0;989.32;57.07;35.956944;-83.92545;862.41;NaN;;4.5;12.226105;229.1;15 / 16;199018;2022-10-03 13:48:52:193
0.5506;2.7915;11.0285;0.1405;3.7432;9.0631;-0.3936;1.3714;0.2971;-0.3598;0.2939;0.212;6757.0;19.41;-20.1;-32.74;252.89;-22.44;-0.89;5.0;989.35;57.811;35.956936;-83.92546;859.65;NaN;;3.56;12.226105;235.5;15 / 16;199517;2022-10-03 13:48:52:692
2.0722;3.6305;9.0329;1.0116;3.3931;9.1451;1.0262;-0.2559;2.2653;-0.1404;-0.3201;-0.3945;6932.0;20.93;-20.74;-30.96;247.94;-20.24;-6.31;5.0;989.33;55.872;35.956936;-83.92546;859.65;NaN;;3.56;12.226105;235.5;15 / 16;200017;2022-10-03 13:48:53:192
-0.4609;3.6751;3.9658;1.083;3.7546;8.9945;-1.134;1.3084;-0.2809;1.2666;-3.8837;0.7099;7668.0;21.47;-17.21;-32.89;258.7;-20.9;-3.54;5.0;989.32;62.491;35.956936;-83.92548;857.24;NaN;;3.74;12.226105;246.3;15 / 16;200518;2022-10-03 13:48:53:693
15.2839;-4.8218;-0.3221;7.7684;-5.6772;-1.895;10.4679;-3.9027;3.0213;-1.9233;1.4429;3.53;3075.0;-13.69;-18.04;-25.63;236.47;9.87;-104.12;5.0;989.37;68.028;35.956936;-83.92548;857.24;NaN;;3.74;12.226105;246.3;15 / 16;201019;2022-10-03 13:48:54:194
8.4559;-5.6847;-1.986;9.1074;-3.1234;-1.8628;4.9313;-4.3346;0.806;0.9788;-0.4199;-3.0455;1901.0;-30.26;27.02;-14.31;284.95;38.03;-105.34;5.0;989.38;68.828;35.956936;-83.92549;857.43;NaN;;2.66;12.226105;269.7;15 / 16;201518;2022-10-03 13:48:54:693
8.9743;-0.8055;-7.3211;7.909;2.0311;-5.4307;-0.5708;-4.5227;-0.379;0.2979;-0.183;0.7857;2266.0;-40.65;-9.0;-8.87;264.67;-11.95;-124.48;5.0;989.36;71.848;35.956936;-83.92549;857.43;NaN;;2.66;12.226105;269.7;15 / 16;202017;2022-10-03 13:48:55:192
15.5749;-1.1527;-2.217;8.8471;-1.9226;-3.7686;5.301;1.7953;1.4726;1.0836;0.9668;-0.6275;2241.0;-39.69;-4.87;0.3;240.95;12.16;-122.64;5.0;989.36;70.427;35.956936;-83.92551;857.83;NaN;;5.94;12.226105;254.5;15 / 16;202518;2022-10-03 13:48:55:693
11.6163;-2.8597;-6.0691;8.8585;-1.1691;-4.0411;-0.0604;-5.2086;-0.9573;-1.3355;0.8991;1.6336;2391.0;-38.68;0.73;-2.48;260.11;6.85;-114.52;5.0;989.38;56.057;35.956936;-83.92551;857.83;NaN;;5.94;12.226105;254.5;15 / 16;203019;2022-10-03 13:48:56:194
13.2491;-3.9347;-2.2959;8.9328;-1.8813;-3.5827;5.259;0.6531;-1.2337;-0.4832;0.5217;-1.5444;2249.0;-41.66;5.55;-2.46;249.11;21.6;-116.75;5.0;989.36;52.35;35.956932;-83.92552;858.74;NaN;;5.54;12.226105;241.9;15 / 16;203519;2022-10-03 13:48:56:694
6.4065;-1.3394;-3.1412;8.9615;-0.8151;-3.8984;0.3688;-5.5684;-0.1131;-0.7322;-0.006;0.9389;2169.0;-41.83;-10.16;-0.79;233.38;4.77;-113.51;5.0;989.35;54.478;35.956932;-83.92552;858.74;NaN;;5.54;12.226105;241.9;15 / 16;204018;2022-10-03 13:48:57:193
12.265;-3.6102;-1.5802;8.705;-3.1934;-3.1931;5.4376;3.245;0.0277;-0.0247;0.7341;-1.7681;2360.0;-41.83;3.53;-1.71;235.19;29.96;-117.44;5.0;989.39;52.616;35.956924;-83.92554;858.95;NaN;;5.18;12.226105;237.4;15 / 16;204518;2022-10-03 13:48:57:693
8.2621;-1.5168;-4.5511;8.8394;-2.3607;-3.5301;1.2735;-0.6605;-1.2228;-0.0148;-0.3002;1.9152;2436.0;-41.96;-5.01;-6.64;258.43;-1.17;-109.66;5.0;989.36;55.049;35.956924;-83.92554;858.95;NaN;;5.18;12.226105;237.4;15 / 16;205018;2022-10-03 13:48:58:193
10.3436;-3.9299;-2.758;8.6352;-3.2648;-3.3083;6.5502;2.4121;0.741;-0.1451;0.9572;-1.9452;2649.0;-40.39;11.57;-4.39;267.96;19.45;-110.96;5.0;989.36;57.42;35.95692;-83.92555;859.42;NaN;;5.08;12.226105;234.7;15 / 16;205517;2022-10-03 13:48:58:692
9.1813;-1.2927;-6.6126;8.5662;-1.0599;-4.6548;2.4177;-0.4739;-2.5114;-0.4601;-0.0291;1.9796;3130.0;-40.76;-10.67;-4.18;237.65;6.2;-118.52;5.0;989.34;62.41;35.95692;-83.92555;859.42;NaN;;5.08;12.226105;234.7;15 / 16;206018;2022-10-03 13:48:59:193
15.0805;-3.2189;-2.5666;8.076;-3.2192;-4.537;6.9218;1.7083;1.0731;1.1656;0.708;-2.8733;3335.0;-40.71;4.14;1.28;246.09;26.07;-128.07;5.0;989.36;55.698;35.956913;-83.92557;860.9;NaN;;5.26;12.226105;239.1;15 / 16;206517;2022-10-03 13:48:59:692
11.4748;-3.1256;-7.1776;8.5566;-0.7539;-4.7315;0.0959;-4.2438;-1.6365;-0.491;0.4123;3.0401;3586.0;-40.01;-7.88;-0.58;269.0;-12.83;-121.96;5.0;989.37;65.792;35.956913;-83.92557;860.9;NaN;;5.26;12.226105;239.1;15 / 16;207017;2022-10-03 13:49:00:192
14.2316;-5.5137;-2.9889;8.7004;-2.6069;-3.6982;6.3883;0.018;-0.1993;0.8927;0.402;-2.624;3232.0;-38.34;12.53;1.71;257.49;29.87;-126.1;5.0;989.34;53.5;35.95691;-83.92558;860.72;NaN;;5.18;12.226105;245.0;15 / 16;207518;2022-10-03 13:49:00:693
10.6741;-3.845;-6.7621;8.2884;1.5179;-5.0169;-3.0663;-6.6591;-0.7106;-0.3842;-0.0677;2.8457;3407.0;-37.78;-11.7;-1.54;251.92;-8.9;-121.19;5.0;989.37;63.057;35.95691;-83.92558;860.72;NaN;;5.18;12.226105;245.0;15 / 16;208017;2022-10-03 13:49:01:192
17.2496;-1.5;-1.3454;8.4643;-2.3387;-4.3654;7.7156;3.7627;2.1704;0.2601;2.2872;-2.3312;3412.0;-36.99;4.84;4.39;250.36;28.29;-137.69;5.0;989.34;54.702;35.956905;-83.9256;862.26;NaN;;5.08;12.226105;240.9;15 / 16;208517;2022-10-03 13:49:01:692
12.7774;-2.819;-5.3521;9.3171;1.3537;-2.7441;-1.7246;-6.3233;-1.0722;0.9745;-2.0746;2.1669;3652.0;-39.54;2.16;-7.27;291.25;-7.93;-106.41;5.0;989.37;63.754;35.956905;-83.9256;862.26;NaN;;5.08;12.226105;240.9;15 / 16;209018;2022-10-03 13:49:02:193
13.0789;-7.9125;-3.9144;8.726;-3.004;-3.3171;7.6735;0.3222;1.6346;2.0987;1.3378;-3.6592;3200.0;-33.64;24.53;3.23;285.02;34.37;-135.15;5.0;989.3;58.681;35.9569;-83.925606;861.75;NaN;;4.39;12.226105;250.2;14 / 16;209518;2022-10-03 13:49:02:693
10.2359;-3.7516;-3.7397;8.5178;-2.6695;-4.0609;-4.9274;-9.5216;1.7668;0.332;-0.1483;3.6239;2497.0;-43.01;-8.25;-4.24;267.11;-10.48;-115.41;5.0;989.36;65.12;35.9569;-83.925606;861.75;NaN;;4.39;12.226105;250.2;14 / 16;210018;2022-10-03 13:49:03:193
14.0928;-6.1433;-4.0783;8.1427;-4.1651;-3.5382;6.1781;2.8499;-1.8769;-0.1733;0.2338;-2.8862;2713.0;-39.02;14.51;-2.29;244.26;44.48;-123.74;5.0;989.4;53.533;35.9569;-83.92562;862.95;NaN;;4.97;12.226105;253.7;14 / 16;210517;2022-10-03 13:49:03:692
7.9843;-5.0695;-4.89;8.8742;-1.0826;-4.0307;-1.9941;-3.7472;-1.4552;-0.7073;-0.4339;3.8522;2040.0;-40.46;-7.91;-3.19;272.95;-15.17;-118.35;5.0;989.34;56.12;35.9569;-83.92562;862.95;NaN;;4.97;12.226105;253.7;14 / 16;211017;2022-10-03 13:49:04:192
16.5565;-4.5488;-0.7983;8.4691;-3.4474;-3.5441;7.9749;5.2064;2.9649;0.6472;0.7572;-1.9161;2546.0;-40.44;11.78;-3.43;265.82;20.58;-112.71;5.0;989.34;56.061;35.956898;-83.92564;862.09;NaN;;4.86;12.226105;259.5;15 / 16;211517;2022-10-03 13:49:04:692
7.6995;-1.2173;-4.1644;9.4385;0.2909;-2.646;2.2321;-2.3416;-2.2721;-1.2212;0.2792;1.9904;2144.0;-39.77;-14.85;-9.06;234.42;-1.7;-105.66;5.0;989.36;56.701;35.956898;-83.92564;862.09;NaN;;4.86;12.226105;259.5;15 / 16;212018;2022-10-03 13:49:05:193
13.8416;-3.0332;-2.5355;8.8268;-2.818;-3.212;8.9049;4.3107;1.4916;2.0948;0.4704;-3.7341;2744.0;-40.73;2.83;-7.37;246.12;27.53;-120.82;5.0;989.32;55.066;35.956898;-83.92567;864.88;NaN;;6.08;12.226105;251.7;15 / 16;212519;2022-10-03 13:49:05:694
10.2969;-1.4665;-3.9431;8.9152;-1.4352;-3.8249;2.0406;-1.2964;-0.6829;-0.1992;-0.72;2.8346;3096.0;-40.24;-10.82;-10.59;260.64;-11.62;-110.29;5.0;989.37;51.81;35.956898;-83.92567;864.88;NaN;;6.08;12.226105;251.7;15 / 16;213018;2022-10-03 13:49:06:193
8.0417;-3.6894;-3.1831;9.4917;0.362;-2.4387;1.7285;-4.7518;-0.739;1.6107;0.4717;-3.2316;2314.0;-38.29;16.56;-5.74;286.86;18.06;-111.08;5.0;989.35;54.194;35.95689;-83.92568;864.5;NaN;;5.22;12.226105;255.7;15 / 16;213517;2022-10-03 13:49:06:692
9.5249;-2.9949;-2.7604;9.0445;-1.8068;-3.3322;1.75;-1.1326;-0.6276;0.1149;-0.3309;2.3227;3470.0;-43.07;-7.11;-11.06;241.61;10.62;-110.22;5.0;989.32;54.195;35.95689;-83.92568;864.5;NaN;;5.22;12.226105;255.7;15 / 16;214017;2022-10-03 13:49:07:192
11.0166;-6.3909;-2.5869;9.6598;-0.0221;-1.6907;7.3383;-6.8925;-0.7477;1.7109;1.7144;-4.2445;2258.0;-37.35;22.41;-4.84;285.51;26.68;-118.0;5.0;989.32;62.318;35.956886;-83.9257;862.22;NaN;;4.72;12.226105;241.7;15 / 16;214517;2022-10-03 13:49:07:692
13.0813;-2.9889;-3.4056;9.1705;0.3072;-3.4608;-1.4846;-5.2335;-1.3546;-0.4442;-0.47;3.3465;3256.0;-40.93;-10.22;-10.44;249.51;-1.8;-110.68;5.0;989.33;58.037;35.956886;-83.9257;862.22;NaN;;4.72;12.226105;241.7;15 / 16;215018;2022-10-03 13:49:08:193
12.7834;-8.3267;-1.7656;9.0387;-2.8953;-2.4678;9.1551;-2.268;2.7729;1.4885;2.1846;-3.4755;2099.0;-36.04;23.51;-3.77;278.02;37.29;-128.82;5.0;989.32;60.88;35.95688;-83.925705;862.17;NaN;;5.11;12.226105;245.2;15 / 16;215517;2022-10-03 13:49:08:692
11.7;-5.6297;-0.6547;7.2603;-5.9494;-2.8396;4.8996;-1.0106;-0.5665;-0.5227;0.5224;4.3492;2219.0;-39.56;-9.28;-3.97;233.85;8.11;-112.55;5.0;989.35;61.093;35.95688;-83.925705;862.17;NaN;;5.11;12.226105;245.2;15 / 16;216018;2022-10-03 13:49:09:193
11.6462;-8.6139;-1.5957;9.2171;-2.6022;-2.1083;7.9509;-6.6735;2.4305;-0.6919;0.9396;-3.8525;3036.0;-36.77;13.99;-11.12;240.6;44.89;-108.31;5.0;989.41;61.885;35.95688;-83.92572;862.21;NaN;;5.15;12.226105;251.8;16 / 16;216518;2022-10-03 13:49:09:693
12.8204;-3.2501;-2.1248;8.2963;-4.1872;-3.1319;5.054;-0.3707;-0.1635;-0.9909;0.5872;4.0221;2672.0;-38.7;-13.86;-7.52;240.19;-2.62;-111.52;5.0;989.38;55.813;35.95688;-83.92572;862.21;NaN;;5.15;12.226105;251.8;16 / 16;217018;2022-10-03 13:49:10:193
11.1386;-6.8518;-2.0207;9.2802;-1.8031;-2.6071;8.134;-4.1696;-0.5431;-1.3559;1.63;-3.6504;2138.0;-38.61;15.68;-9.37;295.76;10.59;-105.69;5.0;989.42;60.363;35.956867;-83.925735;864.38;NaN;;5.65;12.226105;226.5;16 / 16;217517;2022-10-03 13:49:10:692
10.1031;2.9889;-1.8159;8.8275;-2.3695;-3.554;0.5397;4.1484;-0.2248;-1.178;0.667;2.5668;2194.0;-40.54;-15.58;-5.91;220.82;13.98;-111.93;5.0;989.41;57.431;35.956867;-83.925735;864.38;NaN;;5.65;12.226105;226.5;16 / 16;218017;2022-10-03 13:49:11:192
5.0085;-2.5654;-4.5272;9.4451;-0.2175;-2.6294;1.1302;-1.5998;0.5862;-0.4985;-0.2141;-0.8798;1906.0;-42.11;5.91;-9.24;257.09;17.29;-109.44;5.0;989.42;58.219;35.956856;-83.92574;864.61;NaN;;5.22;12.226105;240.1;16 / 16;218518;2022-10-03 13:49:11:693
7.9436;-1.579;-1.4127;8.1488;-3.8775;-3.8383;-0.9451;2.1751;1.9993;-1.0377;-0.3288;1.961;2130.0;-41.68;-0.13;-9.6;251.31;12.54;-109.3;5.0;989.4;53.721;35.956856;-83.92574;864.61;NaN;;5.22;12.226105;240.1;16 / 16;219017;2022-10-03 13:49:12:192
6.5767;-3.2249;-3.8438;9.1015;2.4513;-2.7065;-2.6409;-5.7134;-0.9865;0.4324;-0.2288;-1.7335;2251.0;-35.01;18.62;-6.82;323.47;-1.98;-103.36;5.0;989.42;63.353;35.95685;-83.92576;861.17;NaN;;4.93;12.226105;243.7;16 / 16;219518;2022-10-03 13:49:12:693
10.7363;1.1934;-2.0554;8.286;-3.9041;-3.503;0.493;3.3214;1.2885;-0.4297;-0.098;2.5389;1855.0;-40.41;-3.34;-9.6;237.37;23.46;-112.92;5.0;989.44;51.654;35.95685;-83.92576;861.17;NaN;;4.93;12.226105;243.7;16 / 16;220017;2022-10-03 13:49:13:192
7.8239;-3.6233;-2.339;9.2154;1.9122;-2.7551;-1.6385;-5.4379;0.3762;0.3509;-0.1788;-2.1424;1776.0;-38.04;14.53;-8.83;303.73;4.32;-104.99;5.0;989.4;56.905;35.956844;-83.92577;860.97;NaN;;5.11;12.226105;246.8;16 / 16;220517;2022-10-03 13:49:13:692
14.8098;1.1862;-2.6779;7.9984;-4.4486;-3.5221;1.1531;1.581;0.3115;-1.5265;0.5657;3.6183;1826.0;-41.04;-6.49;-7.93;228.76;26.98;-113.77;5.0;989.42;52.693;35.956844;-83.92577;860.97;NaN;;5.11;12.226105;246.8;16 / 16;221018;2022-10-03 13:49:14:193
5.2167;-4.2245;-2.9674;9.0682;2.2016;-3.0152;-2.5235;-7.7937;0.3846;1.9306;-0.9363;-2.6444;2282.0;-34.22;19.37;-7.78;318.7;4.88;-100.84;5.0;989.39;56.157;35.95684;-83.92579;860.87;NaN;;5.15;12.226105;248.6;16 / 16;221518;2022-10-03 13:49:14:693
9.1872;2.8848;-3.3912;8.3023;-4.3519;-2.8814;1.2721;6.0953;0.0474;-0.3378;0.161;1.3643;1869.0;-42.0;-4.97;-9.53;235.54;16.37;-107.55;5.0;989.47;55.415;35.95684;-83.92579;860.87;NaN;;5.15;12.226105;248.6;16 / 16;222018;2022-10-03 13:49:15:193
6.5169;-4.1895;-3.5635;9.2469;1.504;-2.8988;-2.1411;-4.9595;0.611;1.2012;-0.6552;-2.458;2023.0;-41.32;12.28;-11.04;288.12;7.83;-104.59;5.0;989.43;57.541;35.956837;-83.92581;861.99;NaN;;5.0;12.226105;253.3;16 / 16;222518;2022-10-03 13:49:15:693
12.6012;-0.9147;-0.2142;6.2357;-6.153;-4.4076;6.4488;4.4547;3.5782;-0.9523;-0.6847;2.4962;1906.0;-41.46;-3.07;-11.38;235.01;24.91;-110.52;5.0;989.45;53.656;35.956837;-83.92581;861.99;NaN;;5.0;12.226105;253.3;16 / 16;223018;2022-10-03 13:49:16:193
6.5228;-5.8857;-3.6006;8.631;3.2932;-3.2909;2.1787;-11.6116;0.833;3.6091;-1.1782;-4.6135;2325.0;-32.62;20.98;-6.92;328.01;-19.62;-110.87;5.0;989.39;58.665;35.956837;-83.92583;862.56;NaN;;4.68;12.226105;259.8;16 / 16;223518;2022-10-03 13:49:16:693
13.9947;1.2173;-4.1704;6.2665;-6.0764;-4.4698;7.1634;5.8535;1.0459;-0.2051;-0.8922;3.0959;1825.0;-36.24;-6.73;-6.3;230.19;38.29;-125.5;5.0;989.43;54.971;35.956837;-83.92583;862.56;NaN;;4.68;12.226105;259.8;16 / 16;224017;2022-10-03 13:49:17:192
4.18;-7.2888;-3.0619;8.837;3.2439;-2.7486;2.3286;-10.168;-1.0549;0.2172;-0.5573;-1.5165;2416.0;-32.62;17.16;-6.84;309.24;7.9;-105.54;5.0;989.39;61.017;35.956837;-83.925835;860.79;NaN;;4.97;12.226105;269.7;16 / 16;224517;2022-10-03 13:49:17:692
11.7778;2.9626;-6.5456;7.16;-6.0626;-2.8547;2.4088;7.9907;-6.5167;0.9322;0.6711;1.9591;1953.0;-37.16;-10.44;-7.44;229.59;21.3;-117.9;5.0;989.43;58.266;35.956837;-83.925835;860.79;NaN;;4.97;12.226105;269.7;16 / 16;225017;2022-10-03 13:49:18:192
5.1712;-4.3502;-3.4774;8.1925;2.8164;-4.5959;-2.8309;-6.9209;1.1104;-0.5168;-0.2035;-0.6938;1778.0;-40.54;0.28;-5.94;283.39;-9.94;-117.61;5.0;989.45;56.588;35.95684;-83.92586;858.52;NaN;;5.15;12.226105;276.4;16 / 16;225519;2022-10-03 13:49:18:694
12.9903;-0.364;-1.7548;5.8221;-5.9557;-5.1772;5.6275;3.2793;2.8925;-1.4794;-0.5745;3.2525;1550.0;-39.58;3.21;-4.82;245.6;37.4;-131.64;5.0;989.45;51.92;35.95684;-83.92586;858.52;NaN;;5.15;12.226105;276.4;16 / 16;226019;2022-10-03 13:49:19:194
5.0719;-6.4822;-4.5882;7.0412;4.3097;-5.2932;-1.392;-10.4006;0.9429;-0.1577;-0.3594;-1.8064;2058.0;-33.26;25.93;-1.5;333.3;-14.31;-117.74;5.0;989.43;53.952;35.956837;-83.92587;858.02;NaN;;5.36;12.226105;255.4;16 / 16;226519;2022-10-03 13:49:19:694
13.6941;1.1994;-3.6595;6.1645;-5.6394;-5.1348;5.6951;3.7176;2.0925;-0.5441;-0.742;3.4062;1529.0;-41.19;-2.38;0.41;233.03;35.1;-129.79;5.0;989.46;50.347;35.956837;-83.92587;858.02;NaN;;5.36;12.226105;255.4;16 / 16;227017;2022-10-03 13:49:20:192
1.6591;-9.6386;-1.957;7.8998;3.9393;-4.2714;-1.4932;-9.7406;-0.2623;0.4939;-0.4976;-2.46;2183.0;-33.81;19.52;-0.62;333.3;-8.57;-109.56;5.0;989.45;53.929;35.956833;-83.92589;855.68;NaN;;4.93;12.226105;263.7;16 / 16;227517;2022-10-03 13:49:20:692
12.8456;4.4841;-2.2265;5.9764;-5.8917;-5.0737;8.2964;9.2101;2.8549;-1.3461;1.4904;-0.3588;1568.0;-36.3;10.28;-4.41;252.04;45.6;-135.0;5.0;989.46;51.379;35.956833;-83.92589;855.68;NaN;;4.93;12.226105;263.7;16 / 16;228017;2022-10-03 13:49:21:192
5.2896;-6.2246;-4.0053;7.807;4.4155;-3.9654;-1.0381;-9.5347;1.3051;0.9979;-0.5493;-2.4708;2281.0;-32.46;22.61;-5.59;332.66;-11.66;-106.19;5.0;989.44;54.708;35.956837;-83.9259;853.91;NaN;;4.97;12.226105;273.7;16 / 16;228518;2022-10-03 13:49:21:693
15.6634;-0.5243;0.3927;4.5303;-6.5238;-5.7521;9.8448;7.3576;3.2448;-1.8577;0.7165;1.4485;1448.0;-37.56;3.19;-7.63;244.73;42.92;-129.47;5.0;989.48;52.411;35.956837;-83.9259;853.91;NaN;;4.97;12.226105;273.7;16 / 16;229017;2022-10-03 13:49:22:192
6.1181;-7.424;-2.6695;8.6367;3.8978;-2.5267;-0.5287;-10.6665;-0.6617;0.4828;-0.078;-3.1128;1904.0;-28.71;21.36;-5.89;334.89;-23.42;-106.31;5.0;989.47;57.215;35.95684;-83.92592;855.24;NaN;;5.0;12.226105;273.4;16 / 16;229519;2022-10-03 13:49:22:694
13.389;3.0739;5.2932;8.9492;-0.5512;-3.9721;1.6384;5.8523;5.3107;-0.6436;-0.3967;-0.3502;1477.0;-38.31;3.66;-11.19;275.14;3.22;-113.93;5.0;989.49;52.228;35.95684;-83.92592;855.24;NaN;;5.0;12.226105;273.4;16 / 16;230018;2022-10-03 13:49:23:193
6.1947;-3.5719;-5.7434;8.5106;4.8077;-0.7915;-2.0663;-6.1232;-4.3489;-0.8308;-0.9425;1.3181;2147.0;-38.83;5.91;-9.19;321.92;-16.64;-95.95;5.0;989.46;52.454;35.95684;-83.925934;854.24;NaN;;5.04;12.226105;275.0;16 / 16;230518;2022-10-03 13:49:23:693
13.547;-5.7637;6.2186;8.9692;-1.4965;-3.6722;2.6477;0.5767;10.9557;-1.0947;-0.4799;0.0267;2797.0;-37.09;2.98;-10.39;261.35;10.78;-107.13;5.0;989.5;55.727;35.95684;-83.925934;854.24;NaN;;5.04;12.226105;275.0;16 / 16;231018;2022-10-03 13:49:24:193
5.3112;-8.4787;-6.3814;9.4365;1.3615;-2.2954;-5.1343;-8.4573;-4.0025;-0.2132;-1.3251;2.2843;2349.0;-37.84;10.5;-7.5;334.5;-20.79;-94.87;5.0;989.47;54.195;35.956844;-83.92595;854.7;NaN;;4.93;12.226105;285.2;16 / 16;231519;2022-10-03 13:49:24:694
20.3151;-2.0243;1.3932;5.1019;-6.3477;-5.4634;6.8294;5.8197;7.7864;-0.0104;0.2672;2.2881;1407.0;-31.05;19.48;-2.83;275.1;40.34;-136.96;5.0;989.53;56.56;35.956844;-83.92595;854.7;NaN;;4.93;12.226105;285.2;16 / 16;232019;2022-10-03 13:49:25:194
5.0683;-8.1509;-2.9865;8.6897;1.4575;-4.3053;-6.3242;-8.386;1.3189;-0.1848;-0.2829;2.2631;1471.0;-31.33;14.25;-4.07;323.83;-21.28;-114.66;5.0;989.45;51.782;35.95685;-83.925964;858.08;NaN;;5.08;12.226105;279.5;16 / 16;232519;2022-10-03 13:49:25:694
19.4952;-6.2462;-2.473;5.0938;-6.061;-5.7869;7.6089;7.6681;4.1731;1.2575;1.8286;-2.877;1322.0;-33.88;16.16;-2.19;269.19;38.17;-138.64;5.0;989.5;53.951;35.95685;-83.925964;858.08;NaN;;5.08;12.226105;279.5;16 / 16;233018;2022-10-03 13:49:26:193
7.0902;-6.0081;-3.0093;8.0762;3.4169;-4.3898;-5.2913;-10.239;1.1241;0.0312;-0.5018;0.8175;2252.0;-35.72;8.66;-5.76;315.03;-23.88;-114.61;5.0;989.48;52.484;35.956852;-83.92599;858.12;NaN;;5.15;12.226105;290.7;16 / 16;233517;2022-10-03 13:49:26:692
17.5511;-1.6651;0.7983;6.6847;-5.2937;-4.8438;10.9873;2.6959;6.693;0.5721;1.4128;-1.846;1236.0;-30.07;21.11;-2.64;279.81;44.88;-145.27;5.0;989.5;54.302;35.956852;-83.92599;858.12;NaN;;5.15;12.226105;290.7;16 / 16;234017;2022-10-03 13:49:27:192
2.3785;-7.0256;-2.4706;7.1684;4.4526;-4.9958;-6.027;-12.5119;2.2679;0.2932;-0.5654;0.049;2625.0;-28.82;19.01;-1.74;332.15;-25.8;-116.64;5.0;989.47;53.751;35.956856;-83.926;858.7;NaN;;5.4;12.226105;274.4;16 / 16;234518;2022-10-03 13:49:27:693
18.1651;-2.4622;0.498;6.5071;-5.3976;-4.9693;10.4402;4.372;4.8225;-0.7079;2.2434;-1.0779;1516.0;-31.46;12.23;-1.88;262.22;45.46;-143.54;5.0;989.53;56.268;35.956856;-83.926;858.7;NaN;;5.4;12.226105;274.4;16 / 16;235017;2022-10-03 13:49:28:192
4.7306;-8.0094;-2.7497;7.4542;4.9302;-4.0372;-2.6337;-11.0101;0.8397;0.0315;-0.4048;-1.2799;3317.0;-30.54;9.51;-4.24;319.48;-30.18;-118.44;5.0;989.49;54.686;35.95686;-83.92602;853.86;NaN;;5.26;12.226105;286.4;16 / 16;235518;2022-10-03 13:49:28:693
18.4262;-5.8092;-1.4952;5.5335;-6.3922;-4.969;11.0271;6.8635;4.8332;-0.1816;0.5278;-0.4324;1868.0;-25.56;16.86;-2.16;273.5;40.68;-131.92;5.0;989.49;56.204;35.95686;-83.92602;853.86;NaN;;5.26;12.226105;286.4;16 / 16;236018;2022-10-03 13:49:29:193
7.0472;-8.3459;-3.3063;7.5723;4.373;-4.4394;-2.4606;-11.0026;1.1224;0.249;0.1632;3.5153;3553.0;-25.91;16.84;-3.28;335.77;-12.97;-105.65;5.0;989.5;54.047;35.956863;-83.92603;852.79;NaN;;4.93;12.226105;287.2;16 / 16;236517;2022-10-03 13:49:29:692
16.5637;-5.2992;0.5435;5.3954;-6.6276;-4.8098;8.9976;8.7971;6.976;-0.1338;0.6847;0.0306;2108.0;-30.94;12.04;-1.76;256.3;43.45;-134.18;5.0;989.51;52.525;35.956863;-83.92603;852.79;NaN;;4.93;12.226105;287.2;16 / 16;237017;2022-10-03 13:49:30:192
6.4989;-8.2669;-1.4976;8.8559;2.7254;-3.2118;-9.9812;-10.1321;1.5843;-1.8968;0.8269;2.7607;3389.0;-29.31;8.66;-5.44;311.83;-27.29;-123.02;5.0;989.47;60.09;35.956867;-83.92605;851.64;NaN;;4.82;12.226105;287.5;16 / 16;237517;2022-10-03 13:49:30:692
17.252;-4.9247;0.6511;4.7607;-7.5453;-4.0712;9.58;8.8032;3.8841;-0.9471;0.9041;1.6822;2230.0;-24.94;18.92;-5.96;271.43;50.3;-130.54;5.0;989.54;52.48;35.956867;-83.92605;851.64;NaN;;4.82;12.226105;287.5;16 / 16;238017;2022-10-03 13:49:31:192
3.3206;-5.9375;-2.764;8.9777;3.5437;-1.7357;-4.7382;-9.2385;-0.5423;-0.479;-0.3213;-0.5223;4772.0;-23.89;20.48;-10.37;332.56;-16.39;-97.99;5.0;989.49;55.083;35.95687;-83.92606;852.7;NaN;;4.39;12.226105;285.8;16 / 16;238519;2022-10-03 13:49:31:694
14.161;-1.6017;3.536;5.3335;-6.6511;-4.8463;9.5078;5.473;5.1104;0.3475;1.8586;-1.2237;2609.0;-32.32;10.89;-9.64;263.26;42.71;-132.26;5.0;989.51;53.567;35.95687;-83.92606;852.7;NaN;;4.39;12.226105;285.8;16 / 16;239018;2022-10-03 13:49:32:193
3.7002;-6.2665;-3.0129;8.267;3.8356;-3.6214;-3.0262;-8.6772;0.0799;0.8056;-1.2174;-1.5083;4400.0;-32.12;18.66;-6.43;335.32;-13.33;-100.47;5.0;989.52;53.954;35.956875;-83.92608;854.86;NaN;;4.86;12.226105;295.6;16 / 16;239519;2022-10-03 13:49:32:694
13.6929;1.914;-0.0359;6.5948;-4.2924;-5.8528;7.0271;6.2751;5.1683;-1.911;0.6021;1.5305;2926.0;-41.04;7.63;0.21;253.52;25.83;-126.34;5.0;989.52;54.846;35.956875;-83.92608;854.86;NaN;;4.86;12.226105;295.6;16 / 16;240017;2022-10-03 13:49:33:192
3.8127;-6.044;-3.323;8.1228;4.1145;-3.6416;-1.0107;-9.2059;-0.1572;1.4955;-0.8175;-2.5985;4290.0;-36.69;26.01;3.15;350.2;-8.73;-103.01;5.0;989.5;54.105;35.95688;-83.92609;855.83;NaN;;4.64;12.226105;290.9;16 / 16;240518;2022-10-03 13:49:33:693
12.7451;1.3705;-0.2154;6.331;-5.5958;-4.9776;6.3586;6.1481;3.8303;-1.5793;0.2747;1.7254;2739.0;-45.09;5.98;-5.64;244.02;29.73;-118.4;5.0;989.53;53.608;35.95688;-83.92609;855.83;NaN;;4.64;12.226105;290.9;16 / 16;241017;2022-10-03 13:49:34:192
6.6102;-3.8509;-2.9614;8.7212;3.4444;-2.8717;-1.0541;-7.0953;-1.0421;0.4067;0.0166;-2.3728;4338.0;-35.14;25.5;-8.1;332.18;-20.56;-108.23;5.0;989.5;53.486;35.956882;-83.9261;856.2;NaN;;4.75;12.226105;296.9;16 / 16;241518;2022-10-03 13:49:34:693
12.4014;0.0108;3.2369;7.4043;-1.1321;-6.3297;3.4122;-0.8135;6.0144;-4.0525;-1.2929;2.1391;3323.0;-42.52;3.83;-6.82;271.25;6.63;-130.53;5.0;989.48;52.544;35.956882;-83.9261;856.2;NaN;;4.75;12.226105;296.9;16 / 16;242017;2022-10-03 13:49:35:192
7.1716;-3.8342;-4.3442;8.3191;4.7214;-2.1614;2.5457;-8.2316;-2.7834;1.1495;-0.227;-1.0849;5068.0;-37.73;20.59;7.76;357.2;-28.78;-104.56;5.0;989.49;55.99;35.956886;-83.92612;860.53;NaN;;4.64;12.226105;300.2;16 / 16;242517;2022-10-03 13:49:35:692
14.5789;2.9877;-1.3956;7.1951;-4.5451;-4.8726;6.0918;5.5493;3.6529;-0.3322;-1.1198;2.8181;3511.0;-43.14;-0.94;-5.16;250.61;9.39;-111.61;5.0;989.53;53.725;35.956886;-83.92612;860.53;NaN;;4.64;12.226105;300.2;16 / 16;243018;2022-10-03 13:49:36:193
7.0328;-4.8039;-1.841;8.8202;3.8349;-1.9154;-1.3364;-8.2209;-1.6881;-0.4613;-0.1176;-0.7179;5012.0;-35.16;23.1;-5.17;339.97;-15.98;-100.71;5.0;989.5;53.751;35.956898;-83.926125;861.03;NaN;;4.72;12.226105;289.9;16 / 16;243518;2022-10-03 13:49:36:693
15.673;2.0614;-0.7828;7.9279;-3.9456;-4.2132;3.3248;6.1054;2.426;0.2703;-0.798;1.9273;3129.0;-41.79;8.55;-7.82;259.07;23.72;-117.99;5.0;989.52;52.969;35.956898;-83.926125;861.03;NaN;;4.72;12.226105;289.9;16 / 16;244017;2022-10-03 13:49:37:192
