ACCELEROMETER X (m/s²);ACCELEROMETER Y (m/s²);ACCELEROMETER Z (m/s²);GRAVITY X (m/s²);GRAVITY Y (m/s²);GRAVITY Z (m/s²);LINEAR ACCELERATION X (m/s²);LINEAR ACCELERATION Y (m/s²);LINEAR ACCELERATION Z (m/s²);GYROSCOPE X (rad/s);GYROSCOPE Y (rad/s);GYROSCOPE Z (rad/s);LIGHT (lux);MAGNETIC FIELD X (μT);MAGNETIC FIELD Y (μT);MAGNETIC FIELD Z (μT);ORIENTATION Z (azimuth °);ORIENTATION X (pitch °);ORIENTATION Y (roll °);PROXIMITY (i);ATMOSPHERIC PRESSURE (hPa);SOUND LEVEL (dB);LOCATION Latitude : ;LOCATION Longitude : ;LOCATION Altitude ( m);LOCATION Altitude-google ( m);LOCATION Altitude-atmospheric pressure ( m);LOCATION Speed ( Kmh);LOCATION Accuracy ( m);LOCATION ORIENTATION (°);Satellites in range;Time since start in ms ;YYYY-MO-DD HH-MI-SS_SSS
-2.3964;2.7939;8.4;-3.7517;1.8779;8.8639;0.8949;1.2633;-1.8097;0.4352;-0.2372;-0.3142;1799.0;6.32;-26.42;-35.59;160.09;-13.88;18.95;5.0;984.34;53.054;35.95847;-83.92483;789.51;NaN;;5.08;20.405602;150.9;11 / 18;22;2022-10-18 09:31:59:932
-1.9319;3.6452;8.1476;-2.2608;3.1378;9.0119;0.9238;-0.3383;0.767;-0.0547;0.1114;0.2873;1162.0;3.68;-26.19;-36.64;158.25;-18.66;14.08;5.0;984.3;51.585;35.95847;-83.92483;789.51;NaN;;5.08;20.405602;150.9;11 / 18;520;2022-10-18 09:32:00:430
-0.8435;2.2331;9.2539;0.0194;0.4025;9.7984;-1.3904;1.3379;-2.6404;-1.378;-0.2124;0.3015;2262.0;-3.09;-26.12;-37.11;173.18;-2.35;-0.11;5.0;984.31;54.015;35.958454;-83.924805;788.48;NaN;;5.04;17.352877;153.8;14 / 18;1020;2022-10-18 09:32:00:930
-1.4821;-0.6646;9.0562;-2.2003;-1.3996;9.4536;0.7804;0.1422;-0.6444;-1.1812;0.9857;1.019;6855.0;-6.02;-15.11;-43.65;148.37;12.23;11.3;5.0;984.29;52.915;35.958454;-83.924805;788.48;NaN;;5.04;17.352877;153.8;14 / 18;1520;2022-10-18 09:32:01:430
-0.6135;2.4347;7.7862;-0.0127;1.7273;9.6533;-0.182;-0.1233;-1.834;0.6274;-0.3067;-0.4209;5657.0;-7.41;-17.29;-42.43;142.93;-10.14;0.08;5.0;984.29;51.779;35.95844;-83.924805;781.66;NaN;;4.64;15.741685;153.7;14 / 18;2020;2022-10-18 09:32:01:930
-0.8124;2.2639;8.4933;-0.1266;2.1161;9.5748;-0.0081;0.476;-1.7139;-0.0077;-0.1843;0.2989;3964.0;-9.6;-26.32;-37.28;148.97;-12.46;0.76;5.0;984.27;53.088;35.95844;-83.924805;781.66;NaN;;4.64;15.741685;153.7;14 / 18;2520;2022-10-18 09:32:02:430
0.382;2.4269;7.7321;-0.1836;2.0606;9.586;0.5961;-0.0923;-0.6712;0.4334;0.0795;-0.3797;4414.0;-11.12;-25.54;-37.56;149.58;-10.11;0.18;5.0;984.26;52.362;35.95842;-83.92481;783.79;NaN;;4.97;13.524254;151.4;15 / 18;3021;2022-10-18 09:32:02:931
-0.0027;2.93;8.2633;-0.3186;3.2969;9.2304;-0.0475;-0.5424;-0.3067;0.6141;-0.4381;-0.2539;3696.0;-8.14;-29.51;-34.82;155.05;-15.17;2.05;5.0;984.27;54.536;35.95842;-83.92481;783.79;NaN;;4.97;13.524254;151.4;15 / 18;3520;2022-10-18 09:32:03:430
-1.5586;3.8097;9.169;-0.7001;2.6532;9.4149;0.4201;0.5239;-1.5287;0.3867;0.1314;-0.0874;4220.0;-5.76;-30.39;-34.43;161.09;-14.69;1.7;5.0;984.29;51.426;35.9584;-83.924805;785.14;NaN;;4.61;12.608957;152.1;15 / 18;4020;2022-10-18 09:32:03:930
-1.2018;3.5812;6.7146;-0.2351;3.6168;9.1123;-0.9069;-0.4814;-2.723;0.7698;-1.3056;0.4671;3605.0;-4.29;-31.61;-32.19;164.98;-21.64;1.48;5.0;984.27;51.967;35.9584;-83.924805;785.14;NaN;;4.61;12.608957;152.1;15 / 18;4521;2022-10-18 09:32:04:431
0.6508;3.8976;7.7611;-0.4164;3.4362;9.1755;1.3608;1.2459;-2.1757;-0.014;0.1452;0.1907;3255.0;-6.94;-34.5;-28.37;162.1;-22.99;-0.89;5.0;984.29;51.041;35.95839;-83.924805;778.29;NaN;;4.61;12.418575;154.5;15 / 18;5020;2022-10-18 09:32:04:930
-0.0254;1.2374;10.433;-0.6744;0.2834;9.7793;1.2389;0.546;0.399;0.3047;-0.2805;0.0696;5081.0;-5.96;-28.88;-35.51;163.16;-1.66;3.95;5.0;984.3;52.654;35.95839;-83.924805;778.29;NaN;;4.61;12.418575;154.5;15 / 18;5520;2022-10-18 09:32:05:430
-1.6923;3.5791;9.6814;-1.1806;3.3433;9.1433;0.519;0.4868;-2.5968;0.3173;0.5068;0.5221;4045.0;-7.33;-27.17;-36.13;145.61;-18.3;4.76;5.0;984.27;50.83;35.958378;-83.924805;771.27;NaN;;5.0;12.226105;148.5;15 / 18;6020;2022-10-18 09:32:05:930
-4.1369;1.8754;11.1945;-0.9291;3.7819;9.0002;0.9845;0.6047;-4.2157;-0.7473;0.3202;-0.2753;2807.0;-6.41;-30.73;-32.85;149.96;-22.68;5.89;5.0;984.3;50.815;35.958378;-83.924805;771.27;NaN;;5.0;12.226105;148.5;15 / 18;6520;2022-10-18 09:32:06:430
-12.0936;-1.5876;2.5612;-8.4587;1.9928;4.5442;-0.8361;-0.7878;-2.2209;-0.9933;-3.852;-1.0628;275.0;5.61;-32.14;-23.89;135.75;-29.59;69.24;5.0;984.26;54.817;35.958363;-83.924805;767.95;NaN;;4.72;12.226105;148.3;14 / 18;7023;2022-10-18 09:32:06:933
-16.5377;-4.1405;4.6513;-9.7984;-0.3366;-0.2197;-2.893;-0.589;-2.0793;-2.7827;3.1262;1.6456;468.0;36.77;-14.36;-18.26;173.29;10.36;67.53;5.0;984.28;53.753;35.958363;-83.924805;767.95;NaN;;4.72;12.226105;148.3;14 / 18;7521;2022-10-18 09:32:07:431
-11.0575;0.1768;-1.5996;-9.5852;-1.4477;1.4827;-1.2059;4.1748;0.5961;-1.1117;0.1427;-1.8002;212.0;39.81;-18.0;-3.97;185.21;8.49;81.21;5.0;984.24;52.097;35.958355;-83.9248;762.82;NaN;;4.28;12.226105;140.8;14 / 18;8021;2022-10-18 09:32:07:931
-10.4216;-0.2656;0.4657;-9.7428;-1.1142;0.0807;1.8846;0.4475;2.1023;-0.9458;2.215;1.1506;17.0;42.9;-9.9;-9.66;146.97;6.52;89.53;5.0;984.27;52.144;35.958355;-83.9248;762.82;NaN;;4.28;12.226105;140.8;14 / 18;8520;2022-10-18 09:32:08:430
-9.2632;-6.0386;-5.7165;-5.429;-7.7581;-2.5511;-6.0744;-0.5759;-7.251;-1.0617;-2.0708;-0.4092;0.0;41.76;1.54;9.39;163.05;52.29;115.17;5.0;984.3;50.971;35.958344;-83.9248;765.67;NaN;;5.62;12.226105;153.1;14 / 18;9020;2022-10-18 09:32:08:930
5.2047;-3.3826;-2.0934;-8.5896;-3.2975;-3.3935;2.5344;-1.3343;-1.6068;-0.8019;-4.8514;-3.3585;0.0;39.15;-1.24;19.82;195.3;19.65;111.56;5.0;984.3;51.725;35.958344;-83.9248;765.67;NaN;;5.62;12.226105;153.1;14 / 18;9520;2022-10-18 09:32:09:430
-0.3745;-12.7412;0.8013;2.1735;-9.3646;1.9367;-2.1919;-0.4051;-2.5495;-1.3014;-1.5545;0.8319;0.0;29.27;25.14;3.77;331.98;72.73;-48.3;0.0;984.39;52.128;35.958336;-83.92479;767.6;NaN;;4.39;12.226105;158.6;13 / 18;10021;2022-10-18 09:32:09:931
-9.4304;-18.0748;-2.7885;-1.6072;-9.6367;-0.8497;0.3116;-0.3204;-6.5614;0.4242;-0.1225;-0.0696;1.0;25.86;36.79;2.76;150.95;79.32;117.86;0.0;984.43;52.867;35.958336;-83.92479;767.6;NaN;;4.39;12.226105;158.6;13 / 18;10520;2022-10-18 09:32:10:430
-1.998;-12.8958;-0.1807;0.7248;-9.7349;-0.9361;-3.6826;-4.1723;-3.7643;-2.1888;-1.2487;1.27;0.0;24.0;38.04;0.34;332.32;72.27;-50.38;0.0;984.22;53.335;35.95833;-83.92478;775.5;NaN;;4.1;12.226105;162.9;15 / 18;11020;2022-10-18 09:32:10:930
3.6317;-5.3172;1.9223;-1.3087;-9.7119;-0.3692;0.7476;-2.5456;-7.0079;-0.722;1.1565;-0.3378;1.0;26.42;36.69;0.28;160.24;82.03;105.76;0.0;984.01;52.826;35.95833;-83.92478;775.5;NaN;;4.1;12.226105;162.9;15 / 18;11520;2022-10-18 09:32:11:430
0.5818;-13.5362;1.264;0.2348;-9.7775;-0.7185;-4.6554;-4.4027;-2.173;-2.0707;-0.576;1.6813;1.0;22.61;37.82;-0.71;326.85;81.56;-48.35;0.0;984.22;52.446;35.958324;-83.92478;779.58;NaN;;5.11;12.226105;151.9;15 / 18;12021;2022-10-18 09:32:11:931
4.0388;-2.5726;0.4262;-1.4047;-9.6744;-0.7765;3.6402;1.7735;-1.4827;-0.0642;-1.4079;-0.0561;1.0;28.44;33.24;6.28;155.0;79.59;121.67;0.0;984.12;52.445;35.958324;-83.92478;779.58;NaN;;5.11;12.226105;151.9;15 / 18;12520;2022-10-18 09:32:12:430
4.7704;-14.4772;-0.1137;1.1141;-9.7359;-0.3769;-4.811;-4.7175;-1.7048;-1.8666;-1.1373;1.3389;1.0;23.1;37.18;-1.8;329.85;68.75;-49.29;0.0;984.22;53.219;35.958317;-83.92477;781.26;NaN;;3.96;12.226105;147.1;15 / 18;13020;2022-10-18 09:32:12:930
2.4586;-8.4404;3.3446;-0.8919;-9.7178;-0.9696;2.2845;-1.9192;-4.1117;-0.033;0.1107;0.0446;1.0;26.03;36.71;1.43;140.51;81.32;123.48;0.0;984.19;52.174;35.958317;-83.92477;781.26;NaN;;3.96;12.226105;147.1;15 / 18;13520;2022-10-18 09:32:13:430
3.784;-9.9571;-2.3414;0.9651;-9.7254;-0.8092;-3.2059;-4.4673;-5.1908;-2.5765;-0.616;1.1878;1.0;21.15;39.54;-2.96;25.94;82.62;-129.98;0.0;984.24;52.84;35.958313;-83.92476;786.02;NaN;;3.13;12.334714;146.9;15 / 18;14020;2022-10-18 09:32:13:930
4.9959;-15.7226;-2.4245;-0.8986;-9.6765;-1.3148;-3.4088;0.7004;2.5172;0.2876;-1.7699;0.1707;1.0;30.13;35.51;3.81;122.09;80.65;145.65;0.0;984.65;53.736;35.958313;-83.92476;786.02;NaN;;3.13;12.334714;146.9;15 / 18;14521;2022-10-18 09:32:14:431
6.1176;-14.6085;0.0652;-1.0124;-9.6329;-1.5338;1.7502;-6.4799;3.4748;-1.8322;-0.6148;2.1975;1.0;19.69;40.93;1.03;103.78;79.2;146.57;0.0;984.38;52.541;35.95831;-83.92475;782.36;NaN;;2.27;12.651135;152.0;15 / 18;15021;2022-10-18 09:32:14:931
3.2118;-7.0977;3.0102;-0.1183;-9.7963;-0.435;4.971;1.0918;3.8074;1.3562;0.8492;-1.2491;1.0;30.24;35.21;6.58;115.63;87.37;164.78;0.0;983.97;50.892;35.95831;-83.92475;782.36;NaN;;2.27;12.651135;152.0;15 / 18;15520;2022-10-18 09:32:15:430
4.649;-15.839;2.8241;-0.4068;-9.6197;-1.8617;-0.0354;-4.101;2.9462;0.7124;-4.0402;1.5347;1.0;21.09;39.6;2.42;85.85;78.79;167.67;0.0;984.16;56.266;35.958305;-83.92474;780.97;NaN;;4.25;12.424967;145.5;15 / 18;16021;2022-10-18 09:32:15:931
1.657;-7.6223;1.6011;1.0652;-9.7423;0.35;2.7793;0.6647;2.9712;2.1739;2.4223;-1.4027;1.0;26.53;36.09;5.79;355.05;83.43;-71.81;0.0;984.14;50.596;35.958305;-83.92474;780.97;NaN;;4.25;12.424967;145.5;15 / 18;16520;2022-10-18 09:32:16:430
4.59;-9.7286;-1.3893;-1.516;-9.609;-1.2409;7.2509;-6.7696;4.4126;0.4108;-0.719;1.49;1.0;18.36;39.49;2.79;130.37;78.48;129.3;0.0;984.43;56.906;35.958298;-83.92473;782.19;NaN;;5.98;12.97993;135.6;15 / 18;17022;2022-10-18 09:32:16:932
1.0466;-9.0814;1.0753;0.9596;-9.7172;0.9089;0.3649;1.5231;2.1715;-0.0682;0.2811;-1.2343;1.0;26.21;35.21;6.73;335.58;82.25;-46.55;0.0;984.16;55.047;35.958298;-83.92473;782.19;NaN;;5.98;12.97993;135.6;15 / 18;17521;2022-10-18 09:32:17:431
2.1374;-2.9686;1.6965;-1.8709;-9.4122;-2.0202;2.9645;4.9536;2.3282;-0.7868;0.73;0.5416;1.0;17.01;39.64;-0.04;89.34;73.69;137.2;0.0;984.23;55.759;35.958286;-83.92471;787.22;NaN;;5.98;14.420742;133.2;15 / 18;18020;2022-10-18 09:32:17:930
-0.0308;-10.1868;-4.0502;1.9879;-9.5092;1.3392;-1.5249;-0.1358;-0.1937;0.5957;-1.4998;-1.038;1.0;20.72;39.66;3.98;343.73;75.85;-56.03;0.0;984.17;54.078;35.958286;-83.92471;787.22;NaN;;5.98;14.420742;133.2;15 / 18;18520;2022-10-18 09:32:18:430
1.5832;-4.4874;1.3161;-2.0083;-9.5452;-1.0127;7.5779;-1.2065;-1.3375;-0.4602;0.5935;1.0206;1.0;14.27;45.0;-4.31;90.54;76.74;116.76;0.0;984.27;49.99;35.958282;-83.924706;791.78;NaN;;5.58;14.495414;143.4;15 / 18;19021;2022-10-18 09:32:18:931
-4.7593;-13.2383;-8.8618;1.9907;-9.5011;1.3913;-1.43;1.0444;-0.412;2.2015;0.6867;-1.3813;1.0;20.7;51.77;-5.29;328.94;75.66;-55.05;0.0;984.37;51.262;35.958282;-83.924706;791.78;NaN;;5.58;14.495414;143.4;15 / 18;19521;2022-10-18 09:32:19:431
-2.4335;-12.952;-9.4699;-0.45;-9.6965;-1.3952;3.1231;8.4179;2.2669;-0.5463;0.4248;-1.559;1.0;15.81;55.01;-8.03;84.8;75.85;108.3;0.0;984.5;53.056;35.958275;-83.9247;801.28;NaN;;5.18;14.934892;148.9;15 / 18;20021;2022-10-18 09:32:19:931
-2.9004;-10.9866;0.4992;1.9027;-9.5488;1.1711;-1.3412;2.0353;-1.6694;-0.0069;-0.7279;-0.4367;1.0;26.68;46.76;-0.9;335.28;76.83;-58.39;0.0;984.29;51.3;35.958275;-83.9247;801.28;NaN;;5.18;14.934892;148.9;15 / 18;20520;2022-10-18 09:32:20:430
-11.3839;-23.4156;-8.6163;-0.7602;-9.6235;-1.7262;2.9436;8.3383;2.4461;0.4244;2.9897;-1.7563;1.0;17.79;44.51;-4.03;83.18;72.56;125.1;0.0;984.19;50.081;35.958263;-83.92469;808.98;NaN;;5.4;17.040655;150.2;15 / 18;21020;2022-10-18 09:32:20:930
-7.0831;-15.545;-5.091;2.6126;-9.418;0.8038;-5.908;-2.9395;-5.6457;0.0125;-0.8576;-0.3715;1.0;14.61;47.25;-0.71;343.85;74.75;-64.95;0.0;984.14;51.643;35.958263;-83.92469;808.98;NaN;;5.4;17.040655;150.2;15 / 18;21521;2022-10-18 09:32:21:431
-5.6082;-10.3352;6.5551;-0.2549;-9.6568;-1.6887;3.7878;8.5728;3.0881;-0.0186;2.4369;-1.7121;1.0;15.43;45.94;-3.94;70.64;72.37;123.21;0.0;984.01;54.128;35.958256;-83.92469;811.18;NaN;;5.26;16.69381;146.1;15 / 18;22021;2022-10-18 09:32:21:931
-3.481;-14.9668;-6.8327;2.3156;-9.519;0.4432;-6.4871;-2.5994;-1.2722;-0.3403;-1.1277;-0.0355;1.0;23.21;43.73;-0.66;332.53;73.64;-51.48;0.0;984.16;50.172;35.958256;-83.92469;811.18;NaN;;5.26;16.69381;146.1;15 / 18;22520;2022-10-18 09:32:22:430
-7.0184;-17.0779;-5.0393;-1.2681;-9.7147;-0.4318;-7.8095;-8.9109;-4.0029;-0.0088;1.4844;-1.7047;1.0;23.66;40.74;-3.26;146.45;82.15;108.8;0.0;984.12;50.637;35.95824;-83.92468;816.37;NaN;;5.51;17.069399;158.3;15 / 18;23020;2022-10-18 09:32:22:930
-3.3308;-13.7432;-3.137;2.7618;-9.2568;1.6895;-4.5686;-1.8883;-2.0543;-1.4521;-1.3276;0.5908;1.0;20.57;40.43;-6.54;327.59;70.72;-58.54;0.0;984.19;53.63;35.95824;-83.92468;816.37;NaN;;5.51;17.069399;158.3;15 / 18;23521;2022-10-18 09:32:23:431
-11.8143;-20.2819;-3.5231;-1.4499;-9.6793;-0.616;-9.6274;-7.2386;0.6772;0.4675;1.5533;0.3606;1.0;24.26;38.12;-2.68;102.53;80.54;145.39;0.0;984.79;52.031;35.958225;-83.92468;812.2;NaN;;5.54;17.38132;147.8;15 / 18;24020;2022-10-18 09:32:23:930
-5.8283;-13.5389;-5.3282;0.4921;-9.7685;-0.7109;-6.2165;-3.2698;-3.4036;-1.6046;1.0946;3.1527;1.0;21.45;38.96;-5.48;330.45;66.33;-54.56;0.0;984.12;53.86;35.958225;-83.92468;812.2;NaN;;5.54;17.38132;147.8;15 / 18;24520;2022-10-18 09:32:24:430
3.2249;-6.9335;1.8852;-1.1575;-9.6793;-1.0684;-3.4477;-8.4209;-6.4505;-0.3871;-1.6572;0.3961;1.0;27.58;38.79;-3.34;119.59;80.76;132.71;0.0;984.01;52.632;35.958214;-83.924675;812.86;NaN;;5.4;17.395348;155.8;15 / 18;25021;2022-10-18 09:32:24:931
3.3966;-6.7657;-0.8468;-0.8887;-9.504;-2.2482;-0.7414;-4.0079;4.401;1.0315;-3.4905;1.9064;1.0;23.08;44.44;-8.46;67.93;75.73;158.43;0.0;984.09;57.698;35.958214;-83.924675;812.86;NaN;;5.4;17.395348;155.8;15 / 18;25520;2022-10-18 09:32:25:430
3.0194;-9.6706;3.1292;0.6412;-9.7806;0.315;2.4114;0.7931;3.3235;-1.5325;2.2038;-1.0029;1.0;36.43;36.92;-4.27;140.24;84.76;119.88;0.0;984.11;50.848;35.95819;-83.924675;814.94;NaN;;5.4;17.116682;162.9;14 / 18;26020;2022-10-18 09:32:25:930
4.5042;-11.1601;-0.3703;-1.3886;-9.6495;-1.0627;6.1341;-6.0981;4.9954;0.9578;-0.2582;1.6116;1.0;29.91;37.39;-5.55;119.96;79.73;127.43;0.0;984.36;53.128;35.95819;-83.924675;814.94;NaN;;5.4;17.116682;162.9;14 / 18;26521;2022-10-18 09:32:26:431
0.7208;-9.2934;0.6912;1.2551;-9.6816;0.9282;0.856;1.5904;2.3217;1.7326;2.4224;-1.6429;1.0;35.46;29.59;1.56;330.35;80.84;-53.52;0.0;984.29;51.164;35.958176;-83.924675;812.55;NaN;;5.44;16.924498;171.2;14 / 18;27023;2022-10-18 09:32:26:933
3.947;-8.1135;0.3535;-1.9067;-9.5624;-1.0466;5.4813;3.1298;1.8606;0.3316;0.0327;-0.0895;1.0;24.68;34.8;-0.28;138.52;77.19;118.76;0.0;984.29;50.432;35.958176;-83.924675;812.55;NaN;;5.44;16.924498;171.2;14 / 18;27520;2022-10-18 09:32:27:430
-1.1109;-12.0003;-3.0523;2.5079;-9.2386;2.128;-2.147;-0.3959;-2.0536;1.735;1.6552;-1.4604;1.0;29.16;31.39;1.09;9.87;86.24;-98.57;0.0;984.23;51.739;35.958164;-83.924675;810.29;NaN;;5.0;15.630725;155.3;14 / 18;28021;2022-10-18 09:32:27:931
-3.2082;-11.476;-8.5887;-2.4616;-9.4333;-1.0599;4.739;3.7592;2.1983;0.2433;0.6343;-0.1907;1.0;22.99;35.4;-3.82;90.04;78.19;151.83;0.0;984.06;51.245;35.958164;-83.924675;810.29;NaN;;5.0;15.630725;155.3;14 / 18;28520;2022-10-18 09:32:28:430
-0.2489;-10.1115;-1.3729;2.7045;-9.2688;1.7163;-2.7328;-0.3239;-1.3674;1.0374;-0.6366;-1.1217;1.0;30.98;28.48;-0.3;33.67;85.68;-125.76;0.0;984.23;53.92;35.958153;-83.924675;813.02;NaN;;5.54;14.313819;149.0;14 / 18;29020;2022-10-18 09:32:28:930
4.4973;-3.7062;-0.1172;-2.2787;-9.4554;-1.2539;6.9403;3.5071;2.1176;-0.2139;0.8876;-0.1626;1.0;22.99;26.66;1.59;144.73;74.62;118.82;0.0;984.01;53.759;35.958153;-83.924675;813.02;NaN;;5.54;14.313819;149.0;14 / 18;29520;2022-10-18 09:32:29:430
-3.3075;-13.7025;-0.553;2.3552;-9.3807;1.6206;-0.9582;-0.3456;-4.0249;0.8926;-1.3813;-1.0161;1.0;19.82;17.63;6.3;38.17;86.62;-113.22;0.0;984.18;51.731;35.958134;-83.92467;812.5;NaN;;5.4;13.905587;153.5;14 / 18;30021;2022-10-18 09:32:29:931
-16.433;-24.3897;-0.9589;-1.6223;-9.6503;-0.641;2.1335;1.1574;-4.3878;0.212;0.0522;-0.9944;1.0;9.19;22.37;-3.56;86.59;74.8;122.29;0.0;984.2;53.152;35.958134;-83.92467;812.5;NaN;;5.4;13.905587;153.5;14 / 18;30520;2022-10-18 09:32:30:430
-6.725;-16.433;-8.3518;3.0786;-9.0539;2.1726;-4.1592;-0.558;-3.2987;0.1123;-0.6204;-0.527;1.0;15.71;31.56;-13.84;309.3;67.4;-54.79;0.0;984.12;53.361;35.95812;-83.92467;807.77;NaN;;5.29;13.422394;143.5;16 / 18;31021;2022-10-18 09:32:30:931
-5.4751;-17.8795;-6.993;-1.4985;-9.6757;-0.5523;-8.2995;-10.041;-2.8974;0.2907;2.3471;-1.8196;1.0;23.34;35.51;-12.39;120.54;80.63;110.23;0.0;984.32;53.456;35.95812;-83.92467;807.77;NaN;;5.29;13.422394;143.5;16 / 18;31521;2022-10-18 09:32:31:431
-5.3154;-13.9528;-6.5707;2.8182;-9.3377;1.0174;-5.049;-1.476;1.427;-2.4193;-0.8053;1.3154;1.0;24.71;39.13;-10.5;330.06;72.21;-70.15;0.0;984.02;52.44;35.9581;-83.92466;803.86;NaN;;5.44;13.543697;156.7;16 / 18;32021;2022-10-18 09:32:31:931
1.3639;-13.4563;-3.6709;-1.0153;-9.7523;-0.1808;-2.9125;-5.4142;-3.1219;-0.3121;-0.9993;-0.2259;1.0;26.42;44.33;-8.76;145.14;83.96;100.09;0.0;984.11;57.322;35.9581;-83.92466;803.86;NaN;;5.44;13.543697;156.7;16 / 18;32520;2022-10-18 09:32:32:430
-6.7822;-14.3483;-4.3092;0.4398;-9.7339;-1.1081;-6.2385;-3.277;-1.3235;-2.4862;-1.2308;2.7034;1.0;23.91;47.87;-10.78;36.38;83.02;-158.35;0.0;984.13;52.609;35.958084;-83.92467;801.52;NaN;;5.22;13.260989;155.9;16 / 18;33020;2022-10-18 09:32:32:930
2.7873;-12.6284;-4.1901;-1.5635;-9.6564;-0.6927;-1.1075;-3.3922;1.8696;-0.8422;-0.3526;-0.4484;1.0;31.52;39.28;-2.76;142.96;79.96;113.9;0.0;984.54;52.63;35.958084;-83.92467;801.52;NaN;;5.22;13.260989;155.9;16 / 18;33520;2022-10-18 09:32:33:430
-6.8148;-14.7781;-4.1124;1.5391;-9.6843;-0.1294;-8.1101;-5.0623;-4.4357;-2.6879;0.3344;3.0142;1.0;20.59;39.84;-5.57;351.27;80.94;-94.81;0.0;984.4;57.107;35.958065;-83.92467;803.72;NaN;;5.26;12.953752;155.7;16 / 18;34021;2022-10-18 09:32:33:931
6.3503;-8.1323;1.6433;-0.8987;-9.6882;-1.2257;5.5413;-3.1024;-1.433;0.1664;0.0205;-1.2759;1.0;27.0;36.32;-2.12;110.54;81.08;143.75;0.0;983.95;51.792;35.958065;-83.92467;803.72;NaN;;5.26;12.953752;155.7;16 / 18;34521;2022-10-18 09:32:34:431
5.4808;-6.8411;0.3799;-0.8225;-9.6263;-1.6817;0.1615;-3.1612;3.6014;0.6631;-2.6179;1.7662;1.0;18.58;40.01;-7.78;72.48;78.99;153.94;0.0;983.96;50.955;35.95805;-83.92467;804.03;NaN;;5.4;12.949201;158.8;16 / 18;35021;2022-10-18 09:32:34:931
2.6369;-8.2149;2.1894;0.0975;-9.7757;-0.7723;4.6628;1.346;2.4749;1.7054;0.7733;-1.2838;1.0;28.39;35.25;-3.75;69.44;85.45;-172.81;0.0;983.99;51.736;35.95805;-83.92467;804.03;NaN;;5.4;12.949201;158.8;16 / 18;35520;2022-10-18 09:32:35:430
3.7128;-9.3996;-0.8145;-2.1864;-9.453;-1.4249;5.7081;2.702;1.0082;-0.1997;0.5103;1.2269;1.0;22.05;36.73;-6.43;105.62;74.57;123.09;0.0;983.97;51.215;35.95803;-83.92467;804.68;NaN;;5.36;13.099938;160.0;16 / 18;36020;2022-10-18 09:32:35:930
0.7932;-9.4445;1.9376;1.2769;-9.7039;0.6121;0.0936;0.9304;2.5003;2.2009;0.3515;-1.3369;1.0;26.64;33.08;-2.1;334.3;81.7;-64.39;0.0;983.99;53.305;35.95803;-83.92467;804.68;NaN;;5.36;13.099938;160.0;16 / 18;36520;2022-10-18 09:32:36:430
2.1332;-2.7314;0.6748;-1.8801;-9.564;-1.0796;5.7253;3.3363;1.9537;0.4796;0.96;0.8374;1.0;19.39;35.08;-7.86;105.17;77.23;119.87;0.0;984.0;51.531;35.95802;-83.92466;802.4;NaN;;5.29;12.905762;162.7;15 / 18;37020;2022-10-18 09:32:36:930
2.3737;-9.0389;0.591;2.7085;-9.2521;1.7983;-1.1648;-0.1583;-3.9681;1.6132;1.0722;-1.4401;1.0;23.27;34.07;-5.68;325.95;70.64;-56.42;0.0;984.16;51.435;35.95802;-83.92466;802.4;NaN;;5.29;12.905762;162.7;15 / 18;37521;2022-10-18 09:32:37:431
2.4206;-4.3364;-1.7521;-2.0363;-9.5167;-1.2069;3.0912;6.6328;2.4069;-0.2704;1.64;0.7132;1.0;21.02;34.43;-7.63;106.97;76.03;120.65;0.0;984.42;51.936;35.958008;-83.92466;804.16;NaN;;5.33;12.474004;155.5;15 / 18;38020;2022-10-18 09:32:37:930
-4.2386;-13.1928;0.4005;2.4715;-9.3847;1.4106;-1.4006;-0.1089;-1.1504;0.9803;-1.7439;-1.6915;1.0;27.09;31.5;-4.5;330.53;73.13;-60.28;0.0;984.1;52.881;35.958008;-83.92466;804.16;NaN;;5.33;12.474004;155.5;15 / 18;38521;2022-10-18 09:32:38:431
3.7513;-2.5427;0.6159;-0.8423;-9.7585;-0.4823;4.9303;5.0977;-2.2849;0.0825;2.4309;-1.6857;1.0;26.14;34.56;-6.75;129.27;84.32;119.79;0.0;983.83;52.408;35.957996;-83.92464;806.66;NaN;;5.29;12.812924;145.9;16 / 18;39021;2022-10-18 09:32:38:931
-3.9455;-15.2025;-4.0639;1.8448;-9.63;0.1707;-5.4385;-4.1554;-5.262;-2.9952;-1.6114;2.501;1.0;29.61;37.39;-4.61;347.82;79.11;-84.71;0.0;984.16;52.2;35.957996;-83.92464;806.66;NaN;;5.29;12.812924;145.9;16 / 18;39520;2022-10-18 09:32:39:430
1.0217;-9.6568;-0.4268;-2.0487;-9.5391;-0.9891;-6.4485;-2.9765;0.2659;1.133;-0.429;-1.1237;1.0;36.09;27.08;0.86;150.14;76.59;115.77;0.0;983.77;53.795;35.957985;-83.92462;805.74;NaN;;5.04;12.703309;142.6;16 / 18;40021;2022-10-18 09:32:39:931
-5.9417;-14.9928;-3.4373;0.0829;-9.6915;-1.4958;-5.4462;-3.425;-0.8109;-2.3966;-0.6092;3.0237;1.0;25.44;35.31;-1.5;72.82;81.21;-176.83;0.0;983.99;51.84;35.957985;-83.92462;805.74;NaN;;5.04;12.703309;142.6;16 / 18;40521;2022-10-18 09:32:40:431
-1.8544;-12.9272;-1.2162;-1.7729;-9.5437;-1.3945;-9.9299;-10.5759;-2.4215;0.4537;-1.3872;0.5559;1.0;34.84;33.71;1.78;135.13;76.7;128.19;0.0;983.69;53.706;35.957977;-83.92461;807.93;NaN;;5.04;12.401988;143.2;16 / 18;41020;2022-10-18 09:32:40:930
3.4831;-16.6466;4.1049;0.7636;-9.7106;-1.1365;-5.5249;-3.4971;-3.8647;-2.6531;0.803;2.5218;1.0;28.78;38.76;1.13;50.04;81.97;-146.1;0.0;983.95;53.498;35.957977;-83.92461;807.93;NaN;;5.04;12.401988;143.2;16 / 18;41520;2022-10-18 09:32:41:430
1.1124;-13.3657;-3.0727;-0.4172;-9.7653;-0.7975;2.9504;-0.3608;2.3857;-0.8177;1.0701;-0.328;1.0;35.89;33.75;0.23;164.01;84.43;104.47;0.0;983.92;54.205;35.95797;-83.9246;806.59;NaN;;5.18;12.226105;159.2;16 / 18;42020;2022-10-18 09:32:41:930
5.5167;-17.1817;-1.0744;-0.8861;-9.6494;-1.5079;1.0504;-5.0465;5.3313;0.3968;-2.2824;1.7485;1.0;29.16;38.1;-4.48;99.01;79.73;149.56;0.0;983.96;52.703;35.95797;-83.9246;806.59;NaN;;5.18;12.226105;159.2;16 / 18;42520;2022-10-18 09:32:42:430
2.5319;-9.0203;3.9365;0.4842;-9.7545;-0.8865;2.4822;2.3568;3.5969;-0.7881;2.1368;-1.0357;1.0;33.81;30.47;-1.12;55.51;84.09;-151.36;0.0;983.94;58.92;35.957954;-83.92458;803.64;NaN;;5.08;12.226105;156.8;16 / 18;43021;2022-10-18 09:32:42:931
0.6987;-6.0736;-0.0476;-2.0186;-9.4824;-1.4761;2.1464;4.6736;1.6013;-0.222;0.7826;0.7282;1.0;26.61;33.32;1.11;131.17;75.23;126.18;0.0;984.08;57.468;35.957954;-83.92458;803.64;NaN;;5.08;12.226105;156.8;16 / 18;43521;2022-10-18 09:32:43:431
0.2665;-9.9227;-1.541;0.8408;-9.762;0.4074;1.9245;1.2494;3.386;1.2674;0.9241;-1.2432;1.0;31.11;30.47;0.9;337.89;84.53;-64.15;0.0;984.12;55.266;35.957947;-83.924576;803.7;NaN;;4.9;12.226105;153.9;16 / 18;44020;2022-10-18 09:32:43:930
1.0561;-4.0953;1.5401;-1.8176;-9.5826;-1.02;7.4735;0.3934;0.1761;-0.2575;0.4704;0.7009;1.0;24.84;36.28;-4.48;126.75;77.73;119.3;0.0;983.89;54.662;35.957947;-83.924576;803.7;NaN;;4.9;12.226105;153.9;16 / 18;44521;2022-10-18 09:32:44:431
2.2403;-8.2134;1.5915;2.0323;-9.4546;1.6281;-0.2534;0.6682;-0.2724;2.3608;2.119;-1.4461;1.0;29.93;35.7;-0.66;328.22;74.6;-51.3;0.0;983.99;52.748;35.957935;-83.92456;802.03;NaN;;5.11;12.226105;151.0;15 / 18;45020;2022-10-18 09:32:44:930
0.3434;-3.7684;1.2138;-1.6542;-9.6071;-1.0666;6.4072;-0.021;-0.2418;0.2828;0.1682;-0.8969;1.0;25.97;38.61;-3.6;123.28;78.42;122.81;0.0;983.85;53.625;35.957935;-83.92456;802.03;NaN;;5.11;12.226105;151.0;15 / 18;45520;2022-10-18 09:32:45:430
-0.1851;-10.5135;-2.6423;2.0821;-9.4133;1.7961;-0.3569;0.5027;-0.4813;0.688;-1.289;-1.2299;1.0;33.19;35.98;-3.24;86.57;85.13;172.96;0.0;983.95;52.467;35.957924;-83.92456;798.82;NaN;;5.36;12.226105;171.0;15 / 18;46020;2022-10-18 09:32:45:930
2.2977;-2.872;1.2072;0.1866;-9.7288;-1.2187;2.9907;7.661;2.4948;-0.2855;0.831;0.2919;1.0;27.17;39.51;-7.74;109.89;74.97;122.03;0.0;983.91;53.337;35.957924;-83.92456;798.82;NaN;;5.36;12.226105;171.0;15 / 18;46520;2022-10-18 09:32:46:430
-0.172;-9.8626;-5.9273;2.4002;-9.3804;1.555;-0.4696;-0.0918;-2.8248;0.6525;-2.1691;-1.272;1.0;31.56;38.59;-3.24;330.71;73.04;-57.06;0.0;983.94;52.751;35.957912;-83.924545;798.38;NaN;;5.29;12.226105;156.0;15 / 18;47021;2022-10-18 09:32:46:931
-4.4922;-16.8646;-9.5569;-0.0992;-9.7391;-1.1446;1.4313;5.7495;2.6756;0.0275;2.7842;-2.2363;1.0;30.53;38.18;-3.21;81.31;83.27;175.05;0.0;983.93;53.503;35.957912;-83.924545;798.38;NaN;;5.29;12.226105;156.0;15 / 18;47521;2022-10-18 09:32:47:431
3.5411;-12.0784;-4.314;3.6716;-8.9285;1.7237;-2.9812;-4.2797;-0.8667;0.3173;1.8574;-1.5028;1.0;25.41;38.85;3.19;14.12;75.56;-102.26;0.0;984.16;52.881;35.957905;-83.92454;808.36;NaN;;4.25;12.226105;143.7;14 / 18;48021;2022-10-18 09:32:47:931
-1.7566;-9.7953;3.4654;-1.9044;-8.8061;3.8724;-0.3764;3.8572;-5.6247;1.5432;-4.3925;-2.6385;150.0;31.93;30.99;-5.44;263.4;63.89;26.19;0.0;984.04;53.237;35.957905;-83.92454;808.36;NaN;;4.25;12.226105;143.7;14 / 18;48521;2022-10-18 09:32:48:431
0.5515;-4.9472;5.8597;-2.9207;-1.0821;9.2989;4.3329;-4.5318;-3.3688;1.2981;-0.931;0.4923;2271.0;20.91;18.71;-35.18;252.29;29.81;16.8;2.0;983.89;53.109;35.957897;-83.92453;808.1;NaN;;4.93;12.226105;156.6;15 / 18;49021;2022-10-18 09:32:48:931
-4.1363;4.4423;4.5724;-3.4527;3.3745;8.5359;-1.1541;1.0372;-4.9525;0.129;1.2959;0.306;2265.0;16.71;-31.03;-30.07;186.07;-22.69;26.83;2.0;983.9;53.306;35.957897;-83.92453;808.1;NaN;;4.93;12.226105;156.6;15 / 18;49520;2022-10-18 09:32:49:430
-2.712;4.5191;9.1199;-1.9391;3.2892;9.0328;0.9849;2.0273;-1.3974;0.1578;-0.4837;0.1949;2949.0;3.56;-38.19;-27.45;185.4;-17.92;11.56;2.0;983.96;54.045;35.957886;-83.92452;811.42;NaN;;4.9;12.226105;164.8;15 / 18;50020;2022-10-18 09:32:49:930
-0.9559;4.8245;10.8449;-1.8486;4.7382;8.3847;1.9721;0.0689;0.8504;0.8555;0.2673;-0.0473;2636.0;-7.27;-37.82;-28.59;147.23;-28.89;12.43;2.0;983.95;52.829;35.957886;-83.92452;811.42;NaN;;4.9;12.226105;164.8;15 / 18;50521;2022-10-18 09:32:50:431
-2.1517;7.0184;8.0985;-3.0503;5.304;7.6638;0.8739;1.7953;1.1974;-0.0567;0.0192;-0.131;2449.0;-6.04;-39.51;-27.17;149.82;-27.54;18.48;2.0;983.94;53.709;35.95787;-83.924515;813.01;NaN;;5.18;12.226105;145.2;15 / 18;51021;2022-10-18 09:32:50:931
0.8082;4.0472;10.6134;-1.0831;4.5714;8.6081;0.3311;0.7314;-0.4286;-0.3631;-0.7736;0.085;2203.0;-9.06;-39.49;-26.92;146.15;-29.63;12.53;2.0;983.97;54.011;35.95787;-83.924515;813.01;NaN;;5.18;12.226105;145.2;15 / 18;51521;2022-10-18 09:32:51:431
-3.8127;6.4008;8.1485;-3.4998;3.8618;8.3071;-0.6529;2.0418;1.2912;-0.427;-0.0815;-0.4987;2436.0;-7.67;-38.57;-27.69;143.23;-27.91;21.37;2.0;983.9;54.912;35.957863;-83.92451;817.64;NaN;;5.65;12.226105;155.6;15 / 18;52021;2022-10-18 09:32:51:931
-2.3752;3.2809;10.9669;-2.6918;3.7884;8.6356;0.3086;0.653;0.1279;0.1038;-0.4872;-0.1655;2236.0;-1.42;-35.46;-30.19;155.15;-22.72;17.31;2.0;983.96;53.353;35.957863;-83.92451;817.64;NaN;;5.65;12.226105;155.6;15 / 18;52520;2022-10-18 09:32:52:430
-3.842;4.7432;7.896;-3.2562;3.331;8.6297;-1.1092;1.1866;0.1528;-0.7017;0.1512;-0.1565;2232.0;-1.41;-34.35;-30.32;151.28;-23.24;19.77;2.0;983.89;52.982;35.95785;-83.9245;818.44;NaN;;5.04;12.226105;156.2;15 / 18;53020;2022-10-18 09:32:52:930
-1.9878;3.5524;10.6508;-1.9548;3.5004;8.9497;-0.079;0.6212;0.6851;-0.2836;-0.9309;-0.1607;1833.0;-1.41;-33.79;-31.61;159.32;-20.91;12.32;2.0;983.94;52.289;35.95785;-83.9245;818.44;NaN;;5.04;12.226105;156.2;15 / 18;53521;2022-10-18 09:32:53:431
-3.5955;0.5234;9.1211;-3.3524;0.8021;9.1809;-0.4753;3.2937;-0.4879;-1.6465;0.6733;-1.1031;1777.0;-2.77;-34.28;-33.04;153.94;-18.53;14.01;2.0;983.95;51.859;35.95784;-83.924484;817.52;NaN;;4.86;12.226105;155.0;15 / 18;54020;2022-10-18 09:32:53:930
-3.8539;1.2882;11.1577;-2.9241;2.4983;9.021;-0.8732;-2.0478;1.4533;0.979;-0.6289;-0.244;1297.0;3.24;-29.01;-38.53;151.55;-11.66;21.17;2.0;984.07;52.323;35.95784;-83.924484;817.52;NaN;;4.86;12.226105;155.0;15 / 18;54520;2022-10-18 09:32:54:430
-3.708;2.6776;7.5165;-4.2867;3.6961;8.0084;-3.472;-0.2846;-2.8009;0.3254;-1.5249;-0.025;1145.0;4.28;-34.41;-31.05;149.2;-21.25;31.37;2.0;983.95;52.152;35.957832;-83.92448;818.16;NaN;;4.68;12.226105;152.5;15 / 18;55020;2022-10-18 09:32:54:930
-5.147;3.1699;7.177;-4.7764;3.2623;7.9192;-0.0281;-0.706;1.1962;0.049;-0.6832;-1.0423;1026.0;8.48;-37.99;-23.31;163.9;-24.13;36.54;2.0;984.03;52.475;35.957832;-83.92448;818.16;NaN;;4.68;12.226105;152.5;15 / 18;55520;2022-10-18 09:32:55:430
-4.317;1.1587;7.3878;-4.9645;2.6047;8.0461;-0.0364;1.3871;1.9831;-0.2591;-0.1629;-0.154;1030.0;12.84;-34.09;-25.67;170.76;-17.01;34.23;2.0;983.93;52.938;35.957825;-83.92447;823.13;NaN;;4.82;12.226105;153.4;15 / 18;56020;2022-10-18 09:32:55:930
-4.1429;1.7228;7.5215;-4.3538;1.0004;8.7301;-0.8437;0.9979;-0.7814;0.4334;-1.0319;-0.9331;1227.0;11.72;-29.17;-31.16;173.07;-5.85;26.51;2.0;983.92;50.746;35.957825;-83.92447;823.13;NaN;;4.82;12.226105;153.4;15 / 18;56521;2022-10-18 09:32:56:431
-1.9863;1.7019;8.6082;-1.1855;1.8425;9.5588;0.9004;-1.014;1.4672;0.5013;0.676;1.0755;1274.0;6.34;-27.54;-34.16;184.81;-10.83;7.07;2.0;983.92;54.044;35.957813;-83.92446;821.92;NaN;;4.97;12.226105;150.1;15 / 18;57020;2022-10-18 09:32:56:930
-2.3049;0.7026;10.689;-1.7039;-0.2627;9.6539;0.5041;2.516;-1.9656;-1.2932;-0.2041;-0.3334;1391.0;-0.56;-27.86;-36.9;163.21;-7.42;9.29;2.0;983.92;52.993;35.957813;-83.92446;821.92;NaN;;4.97;12.226105;150.1;15 / 18;57521;2022-10-18 09:32:57:431
-2.2837;-0.0215;8.7661;-1.6251;-0.7022;9.6455;-0.1766;0.62;-0.2845;-0.4392;0.1776;-0.0352;1928.0;0.68;-22.09;-42.39;163.83;3.89;11.2;2.0;983.9;53.066;35.9578;-83.92445;822.25;NaN;;5.15;12.226105;149.9;15 / 18;58021;2022-10-18 09:32:57:931
-0.8647;0.8782;10.6834;-0.6348;0.9657;9.7383;0.543;-0.1018;0.3837;1.1243;-0.171;0.2762;2510.0;-2.04;-23.49;-41.14;166.12;-5.65;3.73;2.0;983.91;51.161;35.9578;-83.92445;822.25;NaN;;5.15;12.226105;149.9;15 / 18;58521;2022-10-18 09:32:58:431
-0.3607;3.2306;11.1721;-0.8497;2.2517;9.5067;-0.5676;1.5678;0.1917;-0.1993;-0.8304;0.1449;1948.0;-1.37;-30.64;-35.74;169.17;-13.27;5.11;2.0;983.9;50.997;35.957787;-83.924446;821.59;NaN;;5.08;12.226105;148.6;15 / 18;59020;2022-10-18 09:32:58:930
-1.7348;1.736;11.7574;-1.2436;1.3415;9.6345;0.0443;0.7801;-1.4667;-0.2331;0.4447;-0.0997;2039.0;-3.81;-30.3;-36.6;160.64;-7.86;7.36;2.0;983.88;51.27;35.957787;-83.924446;821.59;NaN;;5.08;12.226105;148.6;15 / 18;59521;2022-10-18 09:32:59:431
0.4783;1.9905;9.9808;-0.9375;2.3645;9.471;0.6771;0.2148;0.7957;0.3097;-0.2931;-0.2444;2418.0;-2.08;-30.15;-36.75;163.53;-12.39;6.76;2.0;983.88;53.023;35.957775;-83.92444;823.99;NaN;;5.18;12.226105;146.2;14 / 18;60020;2022-10-18 09:32:59:930
0.1923;0.4537;12.382;0.5979;0.9917;9.738;-0.8134;-0.1389;0.2938;-0.5224;-1.3562;0.02;2580.0;-4.27;-31.13;-35.59;169.98;-9.23;0.62;2.0;983.88;51.631;35.957775;-83.92444;823.99;NaN;;5.18;12.226105;146.2;14 / 18;60520;2022-10-18 09:33:00:430
1.3714;2.356;8.5433;-0.0684;1.4635;9.6966;0.6531;0.567;-0.4613;-0.1588;0.2944;0.0723;2977.0;-7.78;-29.04;-36.88;161.05;-10.64;-0.87;2.0;983.89;51.77;35.957764;-83.92443;824.83;NaN;;5.15;12.226105;152.9;14 / 18;61021;2022-10-18 09:33:00:931
-2.2795;0.8378;10.1635;-1.0879;1.4586;9.6364;-0.2193;0.0354;0.9925;-0.1848;0.5548;0.6181;3493.0;-7.2;-28.2;-37.31;157.67;-7.84;3.67;2.0;983.86;51.31;35.957764;-83.92443;824.83;NaN;;5.15;12.226105;152.9;14 / 18;61521;2022-10-18 09:33:01:431
-0.5677;3.1253;8.5579;-1.6907;2.9227;9.207;1.7135;0.9065;0.9158;-0.2776;-0.3183;0.2317;3598.0;-6.28;-29.7;-35.89;146.03;-17.34;10.41;2.0;983.85;51.594;35.957752;-83.92442;825.25;NaN;;4.75;12.226105;163.2;15 / 18;62020;2022-10-18 09:33:01:930
-2.5226;2.3877;10.0301;-1.2237;2.8137;9.3143;-0.8546;0.0162;0.9487;-0.1177;0.1117;0.1371;3187.0;-4.89;-31.52;-33.94;156.09;-16.67;7.48;2.0;983.85;51.086;35.957752;-83.92442;825.25;NaN;;4.75;12.226105;163.2;15 / 18;62520;2022-10-18 09:33:02:430
-0.6431;2.2499;10.1982;-1.5571;2.4137;9.3766;0.1123;-0.8694;0.371;-0.2595;0.1687;-0.4333;3311.0;-5.29;-31.33;-33.98;155.09;-17.65;6.91;2.0;983.82;52.796;35.95774;-83.924416;828.84;NaN;;5.47;12.226105;149.1;15 / 18;63021;2022-10-18 09:33:02:931
-1.6301;0.1253;8.3886;-1.3923;2.4311;9.398;0.2315;0.2745;2.0387;-0.1028;0.0969;0.0316;3701.0;-2.85;-30.97;-34.41;162.73;-15.44;5.97;2.0;983.85;52.034;35.95774;-83.924416;828.84;NaN;;5.47;12.226105;149.1;15 / 18;63520;2022-10-18 09:33:03:430
-4.6292;-0.0793;11.1757;0.0413;3.8916;9.0013;-3.8894;-3.3127;1.0106;1.2837;-3.0075;0.4923;3801.0;6.54;-28.13;-35.64;164.06;-12.41;19.76;2.0;983.82;52.476;35.957726;-83.92441;831.15;NaN;;5.33;12.226105;148.3;15 / 18;64022;2022-10-18 09:33:03:932
-0.4391;3.2734;9.6969;-1.17;3.643;9.0294;-0.9988;0.3312;2.2806;-0.3496;-0.6548;0.3635;3655.0;3.23;-35.04;-28.69;178.01;-21.81;7.38;2.0;983.82;51.663;35.957726;-83.92441;831.15;NaN;;5.33;12.226105;148.3;15 / 18;64521;2022-10-18 09:33:04:431
1.1237;4.0211;7.9938;1.616;4.3661;8.6311;0.6462;1.9201;-2.327;-0.6389;-1.0041;-0.3383;3729.0;-0.17;-36.17;-27.21;188.79;-28.57;-6.17;2.0;983.85;51.25;35.95771;-83.92439;834.41;NaN;;5.51;12.226105;148.7;15 / 18;65021;2022-10-18 09:33:04:931
-0.0185;3.5133;7.1545;0.6522;3.7552;9.0357;0.4788;-0.4987;2.9841;0.7891;0.1812;0.4565;4070.0;-2.59;-36.36;-26.66;177.37;-22.51;-4.13;2.0;983.8;52.408;35.95771;-83.92439;834.41;NaN;;5.51;12.226105;148.7;15 / 18;65520;2022-10-18 09:33:05:430
0.6811;5.339;6.6562;0.7299;4.1423;8.8588;0.3339;-0.4023;-0.056;0.0156;-0.2674;-0.0354;3973.0;-5.55;-37.28;-26.01;168.06;-25.5;-2.91;2.0;983.81;50.489;35.957695;-83.924385;834.45;NaN;;5.44;12.226105;155.1;15 / 18;66020;2022-10-18 09:33:05:930
-1.509;1.4635;6.2118;-1.3986;2.9835;9.2365;-0.7089;-2.2343;-2.9144;0.0239;2.1764;2.7113;4201.0;-5.7;-35.49;-28.86;169.55;-20.88;-3.73;2.0;983.96;49.442;35.957695;-83.924385;834.45;NaN;;5.44;12.226105;155.1;15 / 18;66521;2022-10-18 09:33:06:431
-7.0675;1.0917;8.4514;-4.0261;2.765;8.5039;-2.1182;0.0098;-1.6907;0.6558;-0.1766;0.662;3110.0;2.64;-24.39;-39.79;130.88;-16.38;25.33;2.0;983.83;51.387;35.957684;-83.92438;832.95;NaN;;5.33;12.226105;149.7;15 / 18;67021;2022-10-18 09:33:06:931
-12.5614;3.9933;-3.3829;-8.6626;1.4821;-4.3512;-1.4878;0.9287;1.3169;0.9981;2.0941;1.1443;675.0;21.08;-29.25;-14.92;139.62;-8.69;116.67;2.0;983.81;50.314;35.957684;-83.92438;832.95;NaN;;5.33;12.226105;149.7;15 / 18;67521;2022-10-18 09:33:07:431
-7.8523;-4.3786;2.5475;-8.3712;-4.8272;1.6708;-2.9382;1.3719;-2.7483;-0.8463;-2.8884;-3.3168;110.0;40.41;-20.04;3.02;196.47;29.49;78.71;2.0;983.84;51.915;35.957672;-83.92436;834.38;NaN;;5.4;12.226105;150.9;15 / 18;68023;2022-10-18 09:33:07:933
-8.2531;1.232;1.7623;-9.7733;0.7564;0.2839;3.443;-2.3552;1.8914;-0.5601;-0.1516;0.1319;205.0;42.84;-2.93;-17.08;88.68;-4.42;88.34;0.0;983.85;49.294;35.957672;-83.92436;834.38;NaN;;5.4;12.226105;150.9;15 / 18;68520;2022-10-18 09:33:08:430
-12.9951;2.2146;-1.171;-9.0567;-2.7472;2.569;1.3851;1.2006;-1.0553;1.3379;-1.2142;1.0271;7.0;46.52;-16.16;-2.53;199.38;16.27;74.16;0.0;983.86;52.229;35.957657;-83.924355;834.79;NaN;;5.4;12.226105;165.8;15 / 18;69021;2022-10-18 09:33:08:931
-13.9633;-6.6981;-11.6429;-9.2046;-2.9614;-1.6358;7.3451;-0.4096;4.4657;2.6447;1.7807;-2.9418;5.0;46.59;-5.57;-5.66;143.9;17.58;100.08;0.0;983.84;49.253;35.957657;-83.924355;834.79;NaN;;5.4;12.226105;165.8;15 / 18;69520;2022-10-18 09:33:09:430
-5.214;-5.0916;-5.1114;-5.0969;-8.1493;-1.9443;0.8983;2.0632;-7.7541;0.1205;0.2646;-1.8807;1.0;40.14;6.71;21.71;190.59;56.2;110.88;0.0;983.81;49.592;35.957645;-83.924355;831.89;NaN;;5.33;12.226105;162.6;15 / 18;70020;2022-10-18 09:33:09:930
-6.1505;-10.6041;-11.2412;-4.3757;-8.7301;-0.8998;5.581;4.6871;2.9492;-0.1184;-1.5352;1.4962;0.0;34.8;20.85;16.05;199.9;62.9;101.62;0.0;984.29;48.809;35.957645;-83.924355;831.89;NaN;;5.33;12.226105;162.6;15 / 18;70520;2022-10-18 09:33:10:430
-12.0371;-11.3097;-2.6578;-2.1159;-9.5081;1.1354;-5.0097;0.8835;-1.8456;0.3925;-0.814;-0.7863;0.0;37.13;24.38;1.33;209.58;71.2;69.29;0.0;983.77;50.028;35.95763;-83.92435;829.48;NaN;;5.11;12.226105;157.0;15 / 18;71021;2022-10-18 09:33:10:931
-17.1168;-11.4278;1.1004;-5.077;-8.3407;-0.9097;-3.3467;-3.3046;-6.7902;-0.5449;0.308;-0.2646;0.0;40.97;20.25;2.27;167.68;58.27;100.16;0.0;983.54;48.279;35.95763;-83.92435;829.48;NaN;;5.11;12.226105;157.0;15 / 18;71520;2022-10-18 09:33:11:430
-7.6352;-11.869;3.2686;-4.4159;-8.5424;-1.9228;-6.7718;-0.9259;-1.7171;-2.1787;2.3099;2.3625;0.0;37.71;25.58;-1.09;136.97;60.58;113.53;0.0;983.81;53.258;35.95762;-83.92434;829.57;NaN;;5.36;12.226105;157.1;14 / 18;72020;2022-10-18 09:33:11:930
-0.4092;-9.4098;4.1746;-5.6464;-8.0158;-0.1914;-12.3682;-5.6902;-1.8169;-0.2372;-1.2839;0.3349;0.0;42.66;18.23;2.19;181.25;54.82;91.94;0.0;984.01;48.897;35.95762;-83.92434;829.57;NaN;;5.36;12.226105;157.1;14 / 18;72520;2022-10-18 09:33:12:430
-5.8008;-15.297;2.7455;-2.2266;-9.4154;1.6006;-4.8431;0.4747;-2.7439;-1.9017;-2.7976;1.7598;0.0;37.78;25.14;-1.88;220.87;73.76;54.29;0.0;984.01;49.733;35.957607;-83.92432;829.93;NaN;;5.47;12.226105;153.5;14 / 18;73020;2022-10-18 09:33:12:930
0.5883;-9.5049;2.4317;-5.2278;-8.182;-1.3769;1.2233;-2.4725;0.6137;0.9577;0.6167;-0.7633;0.0;42.69;18.66;3.6;164.22;56.55;104.76;0.0;983.73;49.739;35.957607;-83.92432;829.93;NaN;;5.47;12.226105;153.5;14 / 18;73520;2022-10-18 09:33:13:430
-0.6419;-10.7411;0.798;-5.1929;-8.0708;-2.0165;-2.36;-3.0231;2.7762;-2.2801;2.2727;2.1655;1.0;37.71;26.34;-1.03;133.8;55.39;111.22;0.0;983.95;49.054;35.957596;-83.92431;830.27;NaN;;5.51;12.226105;155.0;15 / 18;74021;2022-10-18 09:33:13:931
1.9167;-6.8641;4.2084;-4.974;-8.3727;-1.1518;2.2693;-5.1726;-2.6068;2.2043;-0.4846;-1.0676;1.0;43.84;19.24;2.31;178.06;54.13;93.69;0.0;983.6;48.402;35.957596;-83.92431;830.27;NaN;;5.51;12.226105;155.0;15 / 18;74521;2022-10-18 09:33:14:431
-0.7394;-13.424;-0.8243;-6.2426;-7.4803;-1.1158;-1.1335;-12.4839;-0.8297;-1.0926;-4.6411;2.214;1.0;38.78;27.43;-5.23;133.43;49.71;100.13;0.0;983.76;47.816;35.957584;-83.9243;829.08;NaN;;5.26;12.226105;155.8;15 / 18;75021;2022-10-18 09:33:14:931
-0.8716;-9.3802;3.1848;-4.7865;-8.5218;-0.7989;2.6597;-5.1773;3.767;1.6236;1.9741;-1.5364;1.0;44.63;21.32;-2.03;161.41;60.34;99.48;0.0;983.81;49.589;35.957584;-83.9243;829.08;NaN;;5.26;12.226105;155.8;15 / 18;75520;2022-10-18 09:33:15:430
-0.9634;-4.2233;-0.0643;-6.7097;-7.0259;-1.3366;9.3011;-0.3267;2.781;0.804;-0.0444;-0.3785;0.0;41.49;24.23;-4.54;131.35;45.76;101.27;0.0;983.84;48.25;35.957573;-83.92429;830.04;NaN;;5.4;12.226105;157.7;15 / 18;76020;2022-10-18 09:33:15:930
-3.8767;-8.4796;-3.5447;-2.8713;-9.2679;1.4253;-0.3622;1.3397;-0.9587;-0.2429;-1.0529;-1.235;1.0;42.9;21.62;-6.3;203.42;70.92;63.6;0.0;983.77;49.012;35.957573;-83.92429;830.04;NaN;;5.4;12.226105;157.7;15 / 18;76521;2022-10-18 09:33:16:431
-3.6894;-2.2579;-4.4632;-7.3056;-6.1115;-2.334;4.241;2.1223;2.6621;0.5081;1.2903;0.8845;1.0;41.46;21.64;-7.95;105.61;38.55;107.72;0.0;983.72;48.221;35.95756;-83.924286;830.0;NaN;;5.26;12.226105;153.8;15 / 18;77020;2022-10-18 09:33:16:930
-6.1164;-7.2846;-1.3128;-2.5906;-9.4191;0.8606;-1.5936;2.6202;-2.0032;1.0203;-1.7492;-0.3722;1.0;43.56;21.08;-3.49;197.4;73.84;71.62;0.0;983.87;46.702;35.95756;-83.924286;830.0;NaN;;5.26;12.226105;153.8;15 / 18;77520;2022-10-18 09:33:17:430
0.6254;-3.623;-1.9828;-4.9734;-8.2421;-1.872;6.1161;5.4673;3.4596;0.6661;0.1342;-1.3751;1.0;41.72;23.87;-5.96;125.01;46.99;105.7;0.0;983.73;50.55;35.957546;-83.92427;829.99;NaN;;5.51;12.226105;151.9;15 / 18;78021;2022-10-18 09:33:17:931
-5.6432;-8.8816;1.1671;-2.4656;-9.3748;1.4847;-2.271;1.4062;-1.6648;0.0381;0.0552;-0.9959;1.0;43.78;21.79;-4.99;209.88;72.93;58.95;0.0;983.86;49.401;35.957546;-83.92427;829.99;NaN;;5.51;12.226105;151.9;15 / 18;78521;2022-10-18 09:33:18:431
1.6881;-3.6042;1.2577;-6.3929;-7.2929;-1.4544;7.9658;0.069;2.4544;0.8059;-0.0023;-1.5131;1.0;41.51;26.1;-7.33;126.44;48.04;102.82;0.0;983.67;49.632;35.95754;-83.92426;829.08;NaN;;5.04;12.226105;151.5;15 / 18;79020;2022-10-18 09:33:18:930
-6.4995;-8.5065;-2.5241;-2.1068;-9.4408;1.6137;-2.9889;1.4403;-3.7554;-0.3473;-0.1043;-0.3961;1.0;45.11;25.67;-7.93;213.26;74.3;52.55;0.0;983.78;49.491;35.95754;-83.92426;829.08;NaN;;5.04;12.226105;151.5;15 / 18;79520;2022-10-18 09:33:19:430
-18.4792;-10.8544;1.1856;-4.7737;-8.5535;-0.4684;5.578;5.7028;1.7507;0.9475;0.3929;-2.0043;0.0;45.75;23.44;-6.9;157.8;60.72;95.6;0.0;984.01;49.692;35.957527;-83.92425;826.21;NaN;;5.18;12.226105;159.7;14 / 18;80021;2022-10-18 09:33:19:931
-10.1533;-9.1857;-1.9911;-1.9972;-9.4103;1.9049;-4.196;0.8151;-3.5348;-2.48;1.9931;2.8294;1.0;44.89;26.19;-7.57;220.84;73.65;46.36;0.0;983.69;47.41;35.957527;-83.92425;826.21;NaN;;5.18;12.226105;159.7;14 / 18;80520;2022-10-18 09:33:20:430
-8.3124;-8.9264;-0.588;-5.6606;-8.0068;-0.1396;-11.1944;-3.6431;0.7335;0.2472;-0.4458;0.1678;1.0;46.69;20.27;-3.21;149.46;56.23;105.29;0.0;983.48;48.48;35.957516;-83.92424;822.54;NaN;;5.33;12.226105;151.8;14 / 18;81020;2022-10-18 09:33:20:930
-9.9793;-11.4096;-1.4512;-4.1927;-8.8185;-0.9086;-7.6812;-1.4615;-2.6427;-2.3844;0.5372;1.9426;1.0;43.35;23.57;-5.36;227.59;72.21;44.56;0.0;983.72;48.017;35.957516;-83.92424;822.54;NaN;;5.33;12.226105;151.8;14 / 18;81520;2022-10-18 09:33:21:430
-0.1259;-10.0738;3.8055;-5.5245;-8.0683;-0.7441;-3.0066;0.7955;2.1186;-0.3043;-1.443;0.5133;1.0;43.93;19.2;-1.52;163.05;60.18;98.59;0.0;983.63;59.482;35.957504;-83.924225;819.78;NaN;;5.18;12.226105;159.6;14 / 18;82020;2022-10-18 09:33:21:930
-6.6939;-18.5264;2.4897;-5.4554;-7.8717;-2.1083;-3.3207;-3.3514;3.2457;0.0415;-3.1988;1.9328;1.0;38.66;24.68;-5.16;124.45;53.39;111.13;0.0;984.14;54.841;35.957504;-83.924225;819.78;NaN;;5.18;12.226105;159.6;14 / 18;82520;2022-10-18 09:33:22:430
-1.9573;-7.0065;1.8479;-4.5314;-8.6121;-1.2117;7.3888;0.0596;3.4714;-0.1998;4.7803;-0.9483;1.0;44.46;20.66;-0.24;157.38;61.42;104.97;0.0;983.55;53.857;35.957493;-83.92422;819.43;NaN;;5.33;12.226105;148.4;14 / 18;83020;2022-10-18 09:33:22:930
1.8446;-12.344;0.9266;-6.0553;-7.5484;-1.5894;1.2334;-11.0361;-1.3342;0.7241;-0.1799;-0.1211;1.0;40.41;25.52;-4.43;131.48;50.33;104.71;0.0;983.64;48.683;35.957493;-83.92422;819.43;NaN;;5.33;12.226105;148.4;14 / 18;83521;2022-10-18 09:33:23:431
-3.1995;-9.5363;-3.7256;-2.9955;-9.154;1.8445;0.7321;1.0577;-0.8353;2.4516;-1.4566;-1.0423;1.0;42.81;20.46;-4.01;213.46;68.98;58.38;0.0;983.74;48.805;35.95748;-83.92421;818.93;NaN;;5.33;12.226105;145.2;15 / 18;84021;2022-10-18 09:33:23:931
0.7932;-1.8514;0.7555;-5.6872;-7.9198;-1.0497;5.0754;5.3633;1.2915;0.918;0.8262;-2.108;1.0;41.4;24.26;-4.84;145.04;53.86;100.46;0.0;983.96;49.884;35.95748;-83.92421;818.93;NaN;;5.33;12.226105;145.2;15 / 18;84521;2022-10-18 09:33:24:431
-8.4646;-8.7485;-1.5368;-2.1397;-9.4462;1.5366;-1.703;0.2464;-4.9727;0.4077;-0.9718;-1.3885;1.0;44.36;22.37;-2.42;170.41;65.78;94.19;0.0;983.99;49.255;35.957474;-83.924194;816.79;NaN;;5.29;12.226105;150.8;15 / 18;85020;2022-10-18 09:33:24:930
1.462;-3.9296;0.8318;-5.1018;-8.2659;-1.3482;5.2765;5.675;2.4613;1.4309;-0.0442;-1.7599;1.0;40.84;24.21;-4.43;143.86;57.45;104.8;0.0;983.46;49.041;35.957474;-83.924194;816.79;NaN;;5.29;12.226105;150.8;15 / 18;85520;2022-10-18 09:33:25:430
-10.611;-9.629;-4.3002;-2.0093;-9.3313;2.2496;-3.314;1.4693;-5.7931;-0.0205;-1.1436;-1.0358;1.0;40.58;24.71;-4.39;232.87;72.09;41.77;0.0;983.65;49.089;35.95746;-83.92419;814.41;NaN;;5.29;12.226105;154.5;15 / 18;86021;2022-10-18 09:33:25:931
-14.3587;-17.0501;-10.4877;-5.2101;-8.2444;-1.0271;5.4264;3.6269;0.0432;-0.1054;-1.327;0.4686;1.0;43.03;21.56;-1.18;158.32;57.21;101.15;0.0;983.65;53.229;35.95746;-83.92419;814.41;NaN;;5.29;12.226105;154.5;15 / 18;86520;2022-10-18 09:33:26:430
-12.1412;-12.253;-2.4673;-1.721;-9.4949;1.748;-4.8514;1.4086;-0.9658;-1.2545;0.5685;0.7093;1.0;39.32;26.72;-5.27;226.32;75.51;44.55;0.0;983.91;49.536;35.957447;-83.92418;810.23;NaN;;5.51;12.226105;140.7;15 / 18;87021;2022-10-18 09:33:26:931
-10.7557;-9.1801;0.4499;-5.3639;-8.2018;-0.3587;-8.7351;-3.4158;-1.272;-0.6054;-3.7231;1.1101;1.0;42.38;22.28;-0.02;173.05;56.76;93.83;0.0;983.78;47.087;35.957447;-83.92418;810.23;NaN;;5.51;12.226105;140.7;15 / 18;87521;2022-10-18 09:33:27:431
-9.4645;-12.912;0.1352;-2.2982;-9.489;0.921;-5.5285;1.8695;-0.1223;-2.564;0.9262;2.5835;0.0;38.19;26.27;-4.27;199.76;75.38;68.16;0.0;983.75;46.796;35.957436;-83.92416;808.25;NaN;;5.36;12.226105;141.4;15 / 18;88020;2022-10-18 09:33:27:930
-2.0462;-9.7484;0.396;-5.1507;-8.3408;-0.2656;-2.285;-0.1055;-0.1403;0.0157;2.4899;-0.5844;1.0;41.27;24.21;-0.92;173.91;60.79;92.18;0.0;983.68;47.757;35.957436;-83.92416;808.25;NaN;;5.36;12.226105;141.4;15 / 18;88520;2022-10-18 09:33:28:430
-0.1932;-7.0822;0.8273;-5.8661;-7.7863;-1.0645;-1.0985;-4.385;6.6775;-2.213;0.2298;2.0781;1.0;38.16;28.18;-5.34;135.61;52.56;100.29;0.0;983.67;49.08;35.957424;-83.92415;808.11;NaN;;5.33;12.226105;144.2;15 / 18;89021;2022-10-18 09:33:28:931
-5.0853;-8.3635;-1.264;-4.1846;-8.8225;-0.9078;8.7137;-2.1312;6.6266;0.8219;-0.7073;-1.4758;1.0;43.63;19.28;-1.44;163.97;55.31;97.84;0.0;983.76;50.753;35.957424;-83.92415;808.11;NaN;;5.33;12.226105;144.2;15 / 18;89520;2022-10-18 09:33:29:430
0.7268;-10.5159;3.1819;-6.2901;-7.4238;-1.2219;3.2313;-9.7901;-0.3682;1.2922;1.2916;0.7672;1.0;38.06;26.66;-4.37;131.88;49.2;100.99;0.0;983.92;50.899;35.957417;-83.92413;805.67;NaN;;5.65;12.226105;137.9;14 / 18;90021;2022-10-18 09:33:29:931
-3.8237;-8.6028;-1.3591;-2.5499;-9.2224;2.1483;0.3307;1.4258;-1.6627;0.7136;-1.0237;-1.4413;1.0;41.7;25.01;-2.36;228.09;70.12;49.89;0.0;983.98;47.303;35.957417;-83.92413;805.67;NaN;;5.65;12.226105;137.9;14 / 18;90520;2022-10-18 09:33:30:430
0.0742;-1.6196;0.6781;-5.8589;-7.8012;-0.9924;7.7692;-2.005;2.711;0.3037;-0.1226;0.2401;1.0;38.63;27.47;-5.59;137.22;52.7;99.61;0.0;983.64;53.374;35.957405;-83.924126;802.67;NaN;;5.58;12.226105;149.4;14 / 18;91020;2022-10-18 09:33:30:930
-14.5442;-13.043;-1.386;-1.6702;-9.5467;1.4971;-3.8599;1.0039;-6.9307;0.7051;-2.101;-0.9327;1.0;39.41;26.08;-4.89;221.1;76.78;48.13;0.0;983.8;50.526;35.957405;-83.924126;802.67;NaN;;5.58;12.226105;149.4;14 / 18;91520;2022-10-18 09:33:31:430
-5.4371;-0.5148;9.1011;-5.0218;-8.3798;-0.8549;-2.2063;-4.34;-7.3993;-0.0999;-1.9877;0.064;1.0;39.64;25.95;-2.68;142.63;52.72;102.15;0.0;983.97;48.495;35.957394;-83.92412;799.79;NaN;;5.44;12.226105;152.7;14 / 18;92020;2022-10-18 09:33:31:930
-9.6709;-10.6334;-1.9669;-1.4086;-9.5287;1.8414;-4.977;0.588;-1.1227;-1.2636;0.4029;0.6598;1.0;39.38;27.17;-5.51;232.11;76.33;37.41;0.0;983.69;53.401;35.957394;-83.92412;799.79;NaN;;5.44;12.226105;152.7;14 / 18;92521;2022-10-18 09:33:32:431
-0.3497;-13.6152;4.4602;-5.7964;-7.8566;-0.9202;-12.236;-5.9364;-2.2532;0.2324;-1.155;0.4257;1.0;42.58;24.84;-2.96;152.55;53.24;99.02;0.0;983.74;49.631;35.95738;-83.92411;798.31;NaN;;5.83;12.226105;151.1;14 / 18;93021;2022-10-18 09:33:32:931
0.3832;-15.8692;0.3927;-4.8066;-8.3509;-1.8246;-5.8829;-3.8354;1.3398;-1.3772;0.6118;1.4226;1.0;37.56;30.92;-5.85;217.76;77.77;49.95;0.0;983.68;55.731;35.95738;-83.92411;798.31;NaN;;5.83;12.226105;151.1;14 / 18;93520;2022-10-18 09:33:33:430
-1.9379;-9.2195;2.9626;-6.0028;-7.7539;0.1162;-8.7534;0.6313;4.5843;-0.8947;1.1421;-0.3402;1.0;42.06;25.86;-2.62;153.17;60.57;101.61;0.0;983.53;53.749;35.957367;-83.924095;800.47;NaN;;5.65;12.226105;150.7;14 / 18;94020;2022-10-18 09:33:33:930
0.8007;-1.9008;1.2532;-5.9677;-7.6795;-1.258;2.6945;-9.8582;0.8245;1.1191;1.0381;0.6219;1.0;38.61;29.98;-5.19;151.51;66.4;100.6;0.0;983.88;49.737;35.957367;-83.924095;800.47;NaN;;5.65;12.226105;150.7;14 / 18;94521;2022-10-18 09:33:34:431
-1.9304;-8.1858;0.76;-3.1724;-9.193;1.263;2.8428;0.5876;1.8324;2.2717;0.8541;-1.3161;1.0;43.52;25.2;-0.62;207.12;69.62;68.29;0.0;983.6;49.146;35.957355;-83.92409;800.98;NaN;;5.62;12.226105;152.7;14 / 18;95021;2022-10-18 09:33:34:931
0.0042;-6.0224;-1.2168;-5.7724;-7.8311;-1.2343;6.9184;4.1679;3.1314;0.778;0.2746;-1.1782;0.0;39.92;29.66;-1.29;144.32;52.99;102.07;0.0;983.58;49.672;35.957355;-83.92409;800.98;NaN;;5.62;12.226105;152.7;14 / 18;95521;2022-10-18 09:33:35:431
-1.5876;-7.8314;1.3902;-3.7218;-8.9721;1.349;3.1265;0.4727;0.7339;1.9969;-1.1993;-1.3394;1.0;45.92;24.09;4.2;214.17;66.19;70.08;0.0;983.69;53.236;35.957344;-83.92408;800.12;NaN;;5.47;12.226105;152.3;14 / 18;96020;2022-10-18 09:33:35:930
-0.7214;-2.5579;1.5045;-5.7045;-7.8414;-1.463;4.5851;5.2663;2.1859;0.8808;0.924;-1.7303;1.0;41.38;28.03;0.15;145.72;53.09;104.38;0.0;983.81;49.822;35.957344;-83.92408;800.12;NaN;;5.47;12.226105;152.3;14 / 18;96521;2022-10-18 09:33:36:431
-4.5655;-8.5062;-2.4631;-3.1517;-9.1895;1.3378;1.3074;2.0313;0.265;1.2858;-1.2301;-1.3508;1.0;43.43;24.23;2.55;215.32;69.57;67.0;0.0;983.76;52.527;35.95733;-83.92407;797.36;NaN;;5.65;12.226105;146.9;14 / 18;97021;2022-10-18 09:33:36:931
1.0594;-2.825;1.1079;-5.3085;-8.1485;-1.2615;4.9558;6.0344;2.0454;1.2173;1.2406;-1.8107;1.0;42.62;23.53;0.68;157.45;56.19;103.37;0.0;984.41;53.873;35.95733;-83.92407;797.36;NaN;;5.65;12.226105;146.9;14 / 18;97520;2022-10-18 09:33:37:430
-12.2925;-9.5486;-4.156;-1.6521;-9.5652;1.3959;-5.7202;2.279;0.579;0.8829;-2.5542;-1.1898;1.0;41.12;25.63;0.71;228.39;77.26;49.81;0.0;983.53;53.399;35.95732;-83.92406;798.41;NaN;;5.87;12.226105;146.0;15 / 18;98020;2022-10-18 09:33:37:930
-16.8832;-12.6072;-0.6239;-4.8526;-8.4867;-0.7739;-0.6286;-2.4778;-4.8063;-0.2396;-1.1619;0.658;1.0;42.11;23.49;1.41;167.07;59.93;99.06;0.0;983.46;48.791;35.95732;-83.92406;798.41;NaN;;5.87;12.226105;146.0;15 / 18;98520;2022-10-18 09:33:38:430
-7.3576;-8.5678;0.766;-1.5783;-9.4316;2.1738;-3.7327;1.3935;-3.0697;0.4232;-0.7161;-0.5674;1.0;41.12;25.54;-1.63;241.19;74.1;35.98;0.0;983.65;47.27;35.957302;-83.92405;799.88;NaN;;5.62;12.226105;154.1;15 / 18;99021;2022-10-18 09:33:38:931
-19.7327;-12.3123;-2.0725;-5.2006;-8.3075;-0.3312;-1.0219;-0.3223;-4.2608;-0.0453;-0.8443;0.5114;1.0;41.7;23.91;-0.49;173.31;57.9;93.64;0.0;983.52;47.079;35.957302;-83.92405;799.88;NaN;;5.62;12.226105;154.1;15 / 18;99521;2022-10-18 09:33:39:431
-12.186;-8.9958;-2.7796;-1.8989;-9.6133;0.3848;-6.1877;-0.8606;-1.7077;0.0284;-1.5897;-0.9602;1.0;40.41;27.39;-4.01;228.62;74.79;44.44;0.0;983.72;50.373;35.95729;-83.92404;799.16;NaN;;5.62;12.226105;156.4;15 / 18;100020;2022-10-18 09:33:39:930
-17.8875;-17.0195;-3.8964;-5.0078;-8.3547;-1.1367;6.7932;5.4299;1.7375;1.1739;-0.3724;-0.9948;1.0;42.08;23.63;1.41;159.72;58.42;102.79;0.0;983.91;50.906;35.95729;-83.92404;799.16;NaN;;5.62;12.226105;156.4;15 / 18;100521;2022-10-18 09:33:40:431
-6.5049;-21.0646;-1.3274;-2.4242;-9.4995;0.2283;-8.795;0.8066;-3.683;-2.54;2.2051;3.2814;1.0;41.42;23.93;2.18;238.01;73.27;44.37;0.0;983.54;51.928;35.95728;-83.924034;800.32;NaN;;6.01;12.226105;159.0;15 / 18;101020;2022-10-18 09:33:40:930
3.28;-8.1844;5.7649;-5.5868;-8.0575;-0.187;-0.7578;-3.6334;0.6884;-0.0129;0.4584;0.6796;1.0;40.82;23.21;3.17;179.04;57.36;94.7;0.0;983.56;45.45;35.95728;-83.924034;800.32;NaN;;6.01;12.226105;159.0;15 / 18;101521;2022-10-18 09:33:41:431
-0.492;-13.7794;3.8174;-4.2612;-8.6584;-1.7452;-8.8543;-0.3267;-1.8387;-2.0265;0.8016;2.2999;1.0;38.53;27.08;1.13;144.63;62.0;112.27;0.0;983.88;47.727;35.957264;-83.92403;802.76;NaN;;5.4;12.226105;160.0;15 / 18;102021;2022-10-18 09:33:41:931
-2.8047;-11.1649;2.4132;-4.5221;-8.6814;-0.596;7.6815;2.304;4.6176;-0.2168;-2.098;0.869;1.0;43.26;19.86;6.96;202.48;54.32;86.69;0.0;983.55;47.844;35.957264;-83.92403;802.76;NaN;;5.4;12.226105;160.0;15 / 18;102520;2022-10-18 09:33:42:430
1.2796;-7.6493;0.8608;-5.7045;-7.8717;-1.2902;-2.4318;-3.397;4.7179;-0.2622;-3.1582;2.1105;1.0;37.56;28.56;2.06;223.58;76.43;57.42;0.0;983.65;48.155;35.957253;-83.92402;802.03;NaN;;5.33;12.226105;157.4;15 / 18;103021;2022-10-18 09:33:42:931
-1.5805;-7.4079;1.9457;-4.3307;-8.7935;-0.3009;4.1018;0.3283;6.0064;1.8949;0.3311;-1.2189;1.0;44.68;20.57;6.62;187.02;63.73;93.97;0.0;983.7;49.217;35.957253;-83.92402;802.03;NaN;;5.33;12.226105;157.4;15 / 18;103521;2022-10-18 09:33:43:431
0.1403;-5.1344;1.6421;-6.057;-7.6009;-1.3074;4.3469;-8.462;0.2404;0.6129;0.9519;0.6173;1.0;40.67;28.05;2.63;157.58;50.81;102.18;0.0;983.85;49.072;35.95724;-83.92401;804.39;NaN;;5.26;12.226105;159.9;14 / 18;104020;2022-10-18 09:33:43:930
-2.3252;-8.7467;-0.8979;-2.7299;-9.288;1.5657;0.6288;1.3996;-0.6517;0.0409;-1.1193;-1.3077;1.0;43.88;23.68;6.32;226.6;71.28;60.16;0.0;983.58;46.879;35.95724;-83.92401;804.39;NaN;;5.26;12.226105;159.9;14 / 18;104520;2022-10-18 09:33:44:430
-1.6442;-2.3142;0.0293;-6.0332;-7.6411;-1.1766;8.0935;-0.7845;4.0522;0.5755;0.3179;0.2521;1.0;40.73;26.31;6.21;173.0;51.19;101.04;0.0;983.66;46.923;35.95723;-83.924;802.61;NaN;;5.65;12.226105;159.2;14 / 18;105021;2022-10-18 09:33:44:931
-7.7934;-8.415;-1.5571;-2.1663;-9.4124;1.6984;-2.6138;0.7011;-2.5464;0.2337;-1.3428;-1.1929;1.0;41.91;24.73;7.73;238.2;73.7;51.9;0.0;983.73;46.722;35.95723;-83.924;802.61;NaN;;5.65;12.226105;159.2;14 / 18;105521;2022-10-18 09:33:45:431
-0.1499;-2.7667;1.212;-6.1829;-7.4792;-1.4155;7.0596;1.2522;3.3874;1.4566;0.0473;-2.2856;1.0;39.71;26.03;5.53;167.55;49.7;102.89;0.0;983.61;48.103;35.95721;-83.924;802.78;NaN;;5.72;12.226105;160.0;14 / 18;106020;2022-10-18 09:33:45:930
-10.4459;-9.6266;-3.7968;-1.4592;-9.4959;1.9669;-4.3195;0.8529;-4.7506;-0.4752;-0.1088;-0.1365;1.0;40.24;24.45;6.79;252.22;75.54;36.57;0.0;983.56;49.124;35.95721;-83.924;802.78;NaN;;5.72;12.226105;160.0;14 / 18;106521;2022-10-18 09:33:46:431
-16.6179;-12.1089;1.9735;-5.5475;-8.0797;0.3365;-8.5712;-5.9451;-3.1359;0.2123;-0.3935;0.5076;1.0;39.94;22.2;9.64;211.9;55.48;86.53;0.0;984.23;48.429;35.9572;-83.92399;802.6;NaN;;5.69;12.226105;166.0;14 / 18;107020;2022-10-18 09:33:46:930
-7.392;-13.5861;2.5561;-3.8122;-9.0229;-0.4737;-7.9508;-0.6497;-1.8738;-0.2377;-1.7059;-0.6408;1.0;37.37;26.7;4.31;178.56;66.94;97.08;0.0;983.67;48.798;35.9572;-83.92399;802.6;NaN;;5.69;12.226105;166.0;14 / 18;107520;2022-10-18 09:33:47:430
-0.4576;-8.8729;4.8888;-4.8984;-8.4937;-0.1817;-7.3283;-5.4436;-3.2822;-0.6774;-3.9126;0.7629;1.0;41.23;21.19;7.88;194.38;60.01;92.12;0.0;983.56;48.386;35.957184;-83.92399;804.28;NaN;;5.83;12.226105;172.8;15 / 18;108021;2022-10-18 09:33:47:931
0.7074;-12.5423;1.107;-5.63;-7.9177;-1.3354;-1.2753;-5.3098;5.1096;-0.1842;-1.4923;1.6654;1.0;37.05;26.96;5.63;169.27;53.84;103.34;0.0;983.89;50.76;35.957184;-83.92399;804.28;NaN;;5.83;12.226105;172.8;15 / 18;108520;2022-10-18 09:33:48:430
-0.99;-7.3932;2.1203;-3.1604;-9.2153;1.1232;3.6285;1.9088;1.8491;-0.1327;1.9103;-1.2473;0.0;42.28;19.74;8.7;183.28;58.26;100.11;0.0;983.6;48.478;35.957172;-83.92399;805.38;NaN;;5.62;12.226105;170.9;15 / 18;109020;2022-10-18 09:33:48:930
-0.4507;-4.7303;0.1388;-5.7519;-7.877;-1.0197;5.7063;-3.1716;1.8592;0.3231;0.6437;0.0045;1.0;38.01;25.73;6.68;180.96;53.44;100.05;0.0;983.58;46.884;35.957172;-83.92399;805.38;NaN;;5.62;12.226105;170.9;15 / 18;109521;2022-10-18 09:33:49:431
-4.73;-8.6279;-3.2151;-2.3919;-9.4732;0.8408;-1.4547;0.9191;-4.9095;-0.0595;-1.0307;-1.3217;1.0;42.54;20.68;5.29;186.9;64.26;91.87;0.0;984.13;48.668;35.95716;-83.92399;806.15;NaN;;5.8;12.226105;168.4;15 / 18;110020;2022-10-18 09:33:49:930
-0.9751;-8.2756;-3.0897;-3.8951;-8.8735;-1.5029;3.7955;3.6472;0.2776;-0.4733;1.2787;0.0832;1.0;38.33;25.11;6.86;160.32;55.38;109.59;0.0;983.4;47.426;35.95716;-83.92399;806.15;NaN;;5.8;12.226105;168.4;15 / 18;110520;2022-10-18 09:33:50:430
-9.4475;-9.0371;-2.8756;-1.2457;-9.5824;1.6724;-2.7421;0.6607;-0.9052;-0.7294;-0.1442;-0.252;0.0;29.96;30.58;14.96;271.45;77.72;36.68;0.0;983.72;49.448;35.95715;-83.92398;805.81;NaN;;4.79;12.226105;165.2;15 / 18;111020;2022-10-18 09:33:50:930
-14.6318;-18.2246;-12.5551;-5.6798;-7.994;-0.0761;2.2688;7.2671;1.7098;-0.8197;-1.537;0.4652;1.0;34.14;22.74;21.43;234.56;54.6;90.77;0.0;983.82;48.47;35.95715;-83.92398;805.81;NaN;;4.79;12.226105;165.2;15 / 18;111520;2022-10-18 09:33:51:430
-12.9643;-9.1466;-4.5039;-1.3106;-9.3891;2.5093;-5.7043;1.9421;-2.2341;0.6358;-3.7685;-0.9686;1.0;35.72;27.47;11.4;271.82;73.22;27.58;0.0;983.7;50.243;35.957134;-83.92399;805.81;NaN;;6.3;12.226105;197.2;15 / 18;112020;2022-10-18 09:33:51:930
-5.0091;-7.6597;0.7792;-5.4179;-8.0939;-1.143;7.155;6.3476;1.6119;0.1005;-1.195;0.0231;0.0;43.14;18.73;7.69;177.63;55.62;101.91;0.0;983.5;59.078;35.957134;-83.92399;805.81;NaN;;6.3;12.226105;197.2;15 / 18;112521;2022-10-18 09:33:52:431
-10.2924;-10.733;-3.728;-2.1119;-9.5267;0.9753;-7.1163;-0.4483;-3.5705;-0.0708;-0.2272;-0.2697;1.0;39.21;25.48;6.08;220.12;74.31;66.13;0.0;983.69;50.702;35.95712;-83.92399;805.53;NaN;;6.16;12.226105;171.8;15 / 18;113020;2022-10-18 09:33:52:930
-14.6536;-13.2051;-2.0121;-5.0512;-8.4028;-0.2213;-5.1242;-5.4886;-6.7365;-0.6638;-3.0773;0.8247;1.0;41.19;21.96;9.69;198.76;58.96;92.51;0.0;983.54;53.704;35.95712;-83.92399;805.53;NaN;;6.16;12.226105;171.8;15 / 18;113521;2022-10-18 09:33:53:431
-9.9227;-9.1382;-2.1389;-1.6027;-9.5211;1.7177;-4.4356;1.1882;-2.133;-0.647;-0.4227;0.0591;1.0;39.43;25.71;7.2;246.27;76.14;43.02;0.0;983.62;51.057;35.957108;-83.92399;805.01;NaN;;6.08;12.226105;171.9;15 / 18;114024;2022-10-18 09:33:53:934
-5.4377;-12.3679;-0.4253;-5.1489;-8.3321;-0.4843;-11.3336;-4.6851;-8.6206;-0.3838;1.1602;-0.0726;1.0;41.79;21.98;9.69;193.69;58.17;95.37;0.0;983.54;48.96;35.957108;-83.92399;805.01;NaN;;6.08;12.226105;171.9;15 / 18;114520;2022-10-18 09:33:54:430
-10.4557;-10.8829;0.041;-3.1199;-9.2961;-0.1401;-6.6606;-0.3762;-4.0385;-3.0179;1.4031;2.7429;1.0;37.59;26.74;8.89;194.7;71.43;92.57;0.0;983.6;51.885;35.957096;-83.92399;804.76;NaN;;5.98;12.226105;179.0;15 / 18;115020;2022-10-18 09:33:54:930
-1.0962;-11.726;4.3651;-5.6332;-8.0231;-0.2592;-10.2669;-4.5838;-0.669;-0.2795;0.0516;-0.1313;1.0;39.84;19.01;14.4;208.59;54.9;92.63;0.0;983.39;50.838;35.957096;-83.92399;804.76;NaN;;5.98;12.226105;179.0;15 / 18;115521;2022-10-18 09:33:55:431
-7.5942;-12.4068;2.2382;-4.9056;-8.3534;-1.525;-3.4207;-1.6811;0.9912;-2.3899;2.334;2.7309;1.0;32.81;28.59;10.99;182.81;58.41;107.27;0.0;983.57;50.401;35.957085;-83.92399;805.36;NaN;;5.11;12.226105;182.4;15 / 18;116020;2022-10-18 09:33:55:930
1.9262;-8.8612;2.5875;-5.1321;-8.2784;-1.1403;3.5839;-3.6161;0.5944;0.77;1.0453;-1.0559;1.0;38.14;20.06;14.25;193.18;57.58;102.53;0.0;983.52;46.143;35.957085;-83.92399;805.36;NaN;;5.11;12.226105;182.4;15 / 18;116521;2022-10-18 09:33:56:431
-1.7737;-13.7845;0.8967;-3.9082;-8.926;-1.1061;-8.6141;-1.659;-3.3466;-1.7861;1.6744;2.1887;1.0;33.47;28.56;8.51;179.02;65.53;105.8;0.0;983.57;50.285;35.957073;-83.924;803.78;NaN;;5.22;12.226105;193.2;15 / 18;117020;2022-10-18 09:33:56:930
1.2757;-10.5981;1.066;-5.0561;-8.3398;-1.0269;3.329;-5.4876;-0.6321;0.6824;1.1503;-0.9586;1.0;39.6;20.68;13.61;205.84;58.87;93.35;0.0;983.51;52.799;35.957073;-83.924;803.78;NaN;;5.22;12.226105;193.2;15 / 18;117520;2022-10-18 09:33:57:430
-2.8325;-15.1388;0.3021;-4.6324;-8.5114;-1.5057;-3.8179;-2.7602;1.0205;-2.1622;1.869;2.2271;1.0;34.41;27.73;10.88;179.84;60.22;108.01;0.0;983.58;48.408;35.95706;-83.924;802.75;NaN;;5.11;12.226105;191.1;15 / 18;118020;2022-10-18 09:33:57:930
-1.4136;-7.9418;2.0979;-5.2072;-8.2455;-1.0327;-1.4524;-4.4283;-0.1356;0.7066;2.2958;-0.8723;1.0;36.32;15.06;13.8;195.75;57.23;101.22;0.0;983.59;49.155;35.95706;-83.924;802.75;NaN;;5.11;12.226105;191.1;15 / 18;118520;2022-10-18 09:33:58:430
-4.5452;-16.1276;-0.207;-5.9382;-7.7317;-1.0629;0.3195;-8.4272;2.2038;-1.3761;-3.5625;1.9731;1.0;24.84;25.65;13.22;238.15;52.04;100.15;0.0;983.55;48.435;35.957047;-83.924;803.8;NaN;;5.18;12.226105;189.7;15 / 18;119020;2022-10-18 09:33:58:930
0.3425;-8.9399;4.5335;-4.4657;-8.7171;-0.4894;6.0833;0.4971;5.673;1.6869;0.8224;-1.2441;1.0;30.75;29.7;15.83;219.5;62.74;96.25;0.0;983.53;49.399;35.957047;-83.924;803.8;NaN;;5.18;12.226105;189.7;15 / 18;119520;2022-10-18 09:33:59:430
0.1292;-7.1713;1.6642;-5.944;-7.6937;-1.2832;3.0678;-7.4667;0.3549;-1.0885;-2.5953;1.8175;1.0;29.08;42.13;13.14;284.08;51.68;102.18;0.0;983.65;49.795;35.957035;-83.924;802.45;NaN;;5.33;12.226105;203.4;15 / 18;120020;2022-10-18 09:33:59:930
1.1154;-10.433;4.5383;-3.4245;-9.0967;1.3015;3.2044;0.4767;0.2866;2.4511;-0.1841;-1.1346;1.0;42.28;29.04;20.48;240.53;68.06;69.19;0.0;983.8;50.465;35.957035;-83.924;802.45;NaN;;5.33;12.226105;203.4;15 / 18;120521;2022-10-18 09:34:00:431
-0.4131;-2.8693;0.7504;-5.6735;-7.8545;-1.5129;7.0234;-4.9019;2.5919;5.0E-4;0.5281;0.8621;1.0;32.93;32.57;17.06;220.47;53.22;104.93;0.0;983.87;50.284;35.957024;-83.92401;804.4;NaN;;5.26;12.226105;204.5;15 / 18;121021;2022-10-18 09:34:00:931
-4.5332;-9.0398;-1.3268;-3.5878;-9.0147;1.4256;2.2477;1.6176;2.0617;1.9822;-1.6311;-0.9751;1.0;35.63;26.31;19.22;245.55;66.82;68.33;0.0;983.96;53.673;35.957024;-83.92401;804.4;NaN;;5.26;12.226105;204.5;15 / 18;121520;2022-10-18 09:34:01:430
-1.7524;-2.5995;-0.259;-5.4158;-8.0586;-1.3781;4.1903;5.7088;1.6106;0.5143;-0.4664;0.2309;1.0;32.36;27.84;15.19;207.87;55.26;104.28;0.0;983.44;47.421;35.957016;-83.92402;803.17;NaN;;5.15;12.226105;212.1;15 / 18;122021;2022-10-18 09:34:01:931
-6.7893;-7.9714;-2.3372;-2.3782;-9.4145;1.3716;-4.8674;0.9739;-5.9266;1.2994;-0.6076;-0.6129;1.0;32.38;27.68;16.69;250.93;73.74;60.03;0.0;983.53;49.05;35.957016;-83.92402;803.17;NaN;;5.15;12.226105;212.1;15 / 18;122521;2022-10-18 09:34:02:431
-6.1508;-9.559;-6.125;-5.011;-8.3948;-0.7664;4.0701;5.1322;1.3909;0.5715;-0.3595;-0.9821;1.0;29.04;28.88;17.51;228.46;58.87;98.7;0.0;983.56;46.52;35.957005;-83.92402;803.1;NaN;;5.22;12.226105;197.0;15 / 18;123021;2022-10-18 09:34:02:931
-5.7565;-7.4148;-0.8734;-2.0402;-9.4072;1.8743;-4.7672;1.4532;-2.1963;0.607;-1.4554;-0.7255;1.0;29.93;31.37;15.06;265.08;73.59;47.43;0.0;983.7;47.347;35.957005;-83.92402;803.1;NaN;;5.22;12.226105;197.0;15 / 18;123520;2022-10-18 09:34:03:430
-8.4721;-12.8701;-3.7561;-4.8356;-8.4748;-0.983;6.3762;5.2852;1.51;0.564;0.5856;-1.6744;1.0;31.43;32.01;14.12;210.99;59.79;101.49;0.0;983.59;48.958;35.956993;-83.92403;802.7;NaN;;5.26;12.226105;191.6;15 / 18;124021;2022-10-18 09:34:03:931
-10.3205;-10.1064;-2.8902;-2.2794;-9.3727;1.7683;-2.2835;1.235;-3.6184;-1.0713;-0.1704;0.2033;1.0;34.33;32.85;15.0;257.61;72.89;52.2;0.0;983.55;51.456;35.956993;-83.92403;802.7;NaN;;5.26;12.226105;191.6;15 / 18;124520;2022-10-18 09:34:04:430
-12.1418;-4.6484;4.0842;-5.2088;-8.306;0.2219;-11.4148;-1.7538;0.7182;-0.0637;-0.4233;0.1894;1.0;35.66;26.44;18.47;230.67;57.88;87.56;0.0;984.38;51.011;35.956978;-83.92403;803.3;NaN;;5.08;12.226105;194.1;15 / 18;125020;2022-10-18 09:34:04:930
-9.7911;-12.0212;-4.7016;-3.8537;-8.9969;-0.6132;-5.4942;-2.5124;-4.3513;-1.7879;1.2577;2.118;1.0;32.03;32.44;11.78;200.77;66.55;99.04;0.0;983.58;47.372;35.956978;-83.92403;803.3;NaN;;5.08;12.226105;194.1;15 / 18;125521;2022-10-18 09:34:05:431
-1.2359;-10.954;-0.7747;-5.6895;-7.9695;-0.5359;-9.0363;-0.759;0.5444;0.0082;-0.5892;0.4386;1.0;38.89;25.56;20.21;222.2;54.36;95.38;0.0;983.33;50.508;35.956966;-83.924034;803.47;NaN;;5.26;12.226105;201.6;15 / 18;126020;2022-10-18 09:34:05:930
-11.2998;-11.2466;-3.6326;-5.0727;-8.1867;-1.8483;-4.6908;-2.4783;0.3181;-2.6331;1.5509;2.7858;1.0;32.78;31.29;16.29;241.75;71.21;69.65;0.0;983.58;50.79;35.956966;-83.924034;803.47;NaN;;5.26;12.226105;201.6;15 / 18;126521;2022-10-18 09:34:06:431
-1.9113;-11.9061;2.4526;-5.454;-8.1355;-0.4871;-5.1555;1.6326;1.7404;-0.285;-1.4768;0.1393;1.0;35.48;23.06;18.98;222.13;56.06;95.1;0.0;983.35;48.534;35.956955;-83.92404;802.72;NaN;;5.36;12.226105;211.6;15 / 18;127020;2022-10-18 09:34:06:930
-0.594;-12.5961;-1.1139;-4.4216;-8.5663;-1.7994;-6.5661;-0.9621;-4.0456;-2.0453;0.0848;2.1757;1.0;28.65;30.66;16.33;195.91;60.87;112.14;0.0;983.73;49.009;35.956955;-83.92404;802.72;NaN;;5.36;12.226105;211.6;15 / 18;127520;2022-10-18 09:34:07:430
-0.1624;-8.6755;1.4874;-4.8955;-8.4681;-0.704;3.7828;-1.4077;1.0387;-0.0052;1.1566;-0.3331;1.0;33.43;24.15;20.1;227.64;57.74;93.86;0.0;983.53;47.485;35.956944;-83.92404;804.94;NaN;;5.51;12.226105;194.7;15 / 18;128021;2022-10-18 09:34:07:931
-4.4369;-18.5584;0.1128;-6.0438;-7.6166;-1.277;0.6187;-8.7566;4.9146;-0.6386;-0.6283;1.1387;0.0;27.24;32.27;14.89;253.07;50.96;101.93;0.0;983.65;48.644;35.956944;-83.92404;804.94;NaN;;5.51;12.226105;194.7;15 / 18;128521;2022-10-18 09:34:08:431
-1.8027;-8.2651;2.4526;-4.6603;-8.6217;-0.345;4.7815;-0.0388;4.2053;0.5808;0.9572;-0.702;1.0;36.11;23.34;18.41;215.08;61.54;94.23;0.0;983.54;50.54;35.95693;-83.92405;804.54;NaN;;5.04;12.226105;213.9;15 / 18;129021;2022-10-18 09:34:08:931
-1.5535;-15.5004;-1.1411;-6.5922;-7.1917;-0.9963;7.8945;-0.4634;4.1224;1.0106;0.5689;1.0688;1.0;30.13;30.98;14.16;256.7;47.17;98.59;0.0;983.42;52.704;35.95693;-83.92405;804.54;NaN;;5.04;12.226105;213.9;15 / 18;129521;2022-10-18 09:34:09:431
-1.5099;-7.6358;1.0328;-4.5102;-8.7056;0.205;3.2868;-3.205;3.6387;1.0943;1.9406;-0.9626;1.0;35.42;24.36;17.51;225.45;62.59;87.4;0.0;983.55;46.515;35.95692;-83.92405;804.91;NaN;;4.75;12.226105;200.8;15 / 18;130020;2022-10-18 09:34:09:930
0.2127;-2.3587;0.7762;-6.1803;-7.5416;-1.0483;3.4976;-8.275;1.103;0.2113;1.4544;0.4931;1.0;30.9;29.63;13.39;231.83;50.27;99.63;0.0;983.47;47.058;35.95692;-83.92405;804.91;NaN;;4.75;12.226105;200.8;15 / 18;130521;2022-10-18 09:34:10:431
-4.0588;-8.2582;-1.2903;-2.8168;-9.3553;0.8456;-0.8541;1.6414;0.2056;2.4797;-0.8408;-1.4159;1.0;35.1;24.21;16.63;232.63;72.55;73.29;0.0;983.55;50.05;35.956905;-83.92406;804.57;NaN;;5.11;12.226105;190.4;16 / 18;131021;2022-10-18 09:34:10:931
-0.9649;-4.8218;0.472;-5.8678;-7.7507;-1.2909;5.3241;-4.1965;3.694;0.8114;0.3859;-0.8879;1.0;28.8;29.16;15.9;232.02;52.22;102.41;0.0;983.55;49.404;35.956905;-83.92406;804.57;NaN;;5.11;12.226105;190.4;16 / 18;131521;2022-10-18 09:34:11:431
-5.5756;-8.1464;-2.7658;-2.8936;-9.2379;1.5681;0.6408;0.5474;-0.0649;2.4221;-0.3903;-1.2994;1.0;30.47;26.81;20.01;219.99;61.74;101.07;0.0;983.7;47.087;35.95689;-83.92406;804.39;NaN;;5.26;12.226105;200.6;16 / 18;132021;2022-10-18 09:34:11:931
-2.0139;-2.8068;0.6102;-4.5805;-8.6446;-0.6785;4.1052;5.791;1.8398;0.7374;0.5688;-1.6627;1.0;25.22;31.89;16.52;266.13;50.13;100.97;0.0;983.71;47.936;35.95689;-83.92406;804.39;NaN;;5.26;12.226105;200.6;16 / 18;132521;2022-10-18 09:34:12:431
-5.8573;-8.1649;-1.0412;-2.6064;-9.3155;1.6123;-0.9351;0.9205;-1.4647;1.8936;-1.0299;-1.3294;1.0;27.94;31.8;18.02;263.12;71.79;58.26;0.0;983.78;48.57;35.95688;-83.924065;802.4;NaN;;5.76;12.226105;228.2;16 / 18;133020;2022-10-18 09:34:12:930
-15.0613;-14.7236;-5.5723;-5.8928;-7.8048;-0.728;4.7342;4.3244;1.8939;0.7187;0.6097;-1.8809;1.0;27.9;31.76;17.79;252.69;52.74;97.04;0.0;984.31;49.544;35.95688;-83.924065;802.4;NaN;;5.76;12.226105;228.2;16 / 18;133520;2022-10-18 09:34:13:430
-7.803;-8.6695;0.2345;-1.7186;-9.469;1.8857;-4.5161;1.3789;-3.0234;1.0981;-0.9492;-1.5064;1.0;28.05;33.02;18.02;261.08;68.11;65.46;0.0;983.51;50.165;35.956867;-83.92408;802.28;NaN;;5.62;12.226105;209.8;16 / 18;134020;2022-10-18 09:34:13:930
-10.8401;-13.5027;-6.1454;-4.5583;-8.6463;-0.796;4.5696;5.4689;1.9404;1.3459;0.109;-0.7807;1.0;28.29;29.27;21.54;230.34;61.85;99.91;0.0;983.67;47.268;35.956867;-83.92408;802.28;NaN;;5.62;12.226105;209.8;16 / 18;134520;2022-10-18 09:34:14:430
-10.1342;-10.8664;-0.5109;-3.0894;-9.3048;0.2174;-7.7585;0.7686;-2.9319;-2.3178;2.1693;2.7409;1.0;25.22;32.18;18.62;268.66;73.32;56.41;0.0;983.65;48.182;35.956856;-83.92409;801.5;NaN;;5.36;12.226105;226.3;16 / 18;135021;2022-10-18 09:34:14:931
-15.3072;-9.8198;1.6448;-4.9211;-8.4402;-0.8469;0.7336;-1.7801;-4.0812;-0.6095;-0.6242;0.4073;1.0;24.88;28.26;22.52;247.07;61.67;91.9;0.0;983.36;48.779;35.956856;-83.92409;801.5;NaN;;5.36;12.226105;226.3;16 / 18;135521;2022-10-18 09:34:15:431
-5.9713;-13.5141;2.5714;-3.8959;-8.9466;-0.9756;-6.9095;-1.8622;-3.4894;-1.7071;1.9359;2.2114;1.0;19.24;32.23;19.54;241.16;65.82;104.06;0.0;983.55;50.4;35.95685;-83.9241;801.92;NaN;;5.22;12.226105;228.4;16 / 18;136020;2022-10-18 09:34:15:930
-2.4583;-10.6241;3.8587;-5.5341;-8.0957;-0.067;-4.5384;2.3456;-3.0515;-0.3928;3.2116;-0.5471;1.0;26.46;23.83;25.48;251.69;55.64;90.69;0.0;983.41;49.879;35.95685;-83.9241;801.92;NaN;;5.22;12.226105;228.4;16 / 18;136520;2022-10-18 09:34:16:430
-1.346;-14.4903;-1.9415;-6.068;-7.5962;-1.2836;2.8544;-8.6501;-0.9015;-1.829;2.2165;2.0356;1.0;23.57;27.28;23.55;255.01;50.77;101.94;0.0;983.59;48.148;35.95684;-83.92412;802.38;NaN;;4.86;12.226105;240.7;16 / 18;137020;2022-10-18 09:34:16:930
-1.1447;-8.9916;2.9791;-4.723;-8.5016;-1.2596;6.6036;-0.3553;3.894;1.5399;1.1073;-0.9983;1.0;33.06;22.03;22.18;210.57;60.1;104.93;0.0;983.64;50.208;35.95684;-83.92412;802.38;NaN;;4.86;12.226105;240.7;16 / 18;137521;2022-10-18 09:34:17:431
0.6395;-5.6025;-3.2429;-5.5607;-8.0584;-0.5577;5.3915;4.1002;-0.355;0.1236;-1.0163;-1.9378;0.0;32.18;24.34;19.82;229.78;55.26;95.73;0.0;983.82;51.013;35.956833;-83.924126;800.85;NaN;;5.33;12.226105;236.8;16 / 18;138021;2022-10-18 09:34:17:931
-8.3856;-8.3695;-2.4476;-4.2081;-8.7071;-1.6276;-7.3073;0.7703;-3.5233;0.186;-1.0518;-0.9589;0.0;33.34;24.96;16.39;188.2;62.61;111.15;0.0;983.48;49.703;35.956833;-83.924126;800.85;NaN;;5.33;12.226105;236.8;16 / 18;138520;2022-10-18 09:34:18:430
-10.2458;-9.6709;-1.8003;-5.0823;-8.3792;-0.3587;-5.5014;-4.226;-4.9765;-0.2188;-2.3911;0.9183;0.0;30.47;18.06;18.64;224.13;58.7;94.04;0.0;983.28;48.482;35.95682;-83.92414;801.35;NaN;;4.82;12.226105;232.3;16 / 18;139020;2022-10-18 09:34:18:930
-9.3586;-11.2902;0.1917;-3.414;-9.1923;-0.1258;-6.6673;0.6486;-4.1106;-2.6775;1.7598;2.8637;1.0;22.09;24.15;13.01;223.81;69.61;92.11;0.0;983.54;51.664;35.95682;-83.92414;801.35;NaN;;4.82;12.226105;232.3;16 / 18;139521;2022-10-18 09:34:19:431
-4.3848;-13.2595;-3.9353;-5.1551;-8.2463;-1.2622;-1.8537;-3.3283;-1.6315;-0.441;0.3919;0.5927;1.0;26.49;21.99;19.93;224.81;57.23;103.76;0.0;983.42;50.173;35.956806;-83.92415;800.61;NaN;;5.26;12.226105;229.9;16 / 18;140021;2022-10-18 09:34:19:931
-7.887;-11.6501;2.8869;-3.6467;-9.0748;-0.7211;-7.8498;0.6737;-2.6038;-1.919;1.9528;2.7046;1.0;18.36;29.96;16.18;237.28;67.72;101.18;0.0;983.7;52.255;35.956806;-83.92415;800.61;NaN;;5.26;12.226105;229.9;16 / 18;140520;2022-10-18 09:34:20:430
0.2148;-10.4862;4.3211;-4.6255;-8.5474;-1.3107;6.4039;0.8212;2.1386;1.2691;1.4436;-1.1016;1.0;24.75;26.23;21.02;225.39;60.64;105.82;0.0;983.58;49.563;35.9568;-83.92417;798.83;NaN;;5.62;12.226105;226.2;16 / 18;141020;2022-10-18 09:34:20:930
-7.1889;-19.7895;0.5737;-5.8783;-7.728;-1.3765;5.5461;-7.2423;1.345;0.2795;0.0982;1.33;1.0;16.99;32.57;18.23;286.48;52.0;103.18;0.0;983.68;48.246;35.9568;-83.92417;798.83;NaN;;5.62;12.226105;226.2;16 / 18;141520;2022-10-18 09:34:21:430
-0.7929;-8.3492;2.2834;-4.3708;-8.7548;-0.6486;6.401;-1.0719;6.5635;0.6344;3.0419;-1.0518;1.0;23.72;28.07;23.29;262.55;55.19;88.16;0.0;983.39;48.304;35.95679;-83.92418;799.32;NaN;;5.58;12.226105;241.9;16 / 18;142020;2022-10-18 09:34:21:930
1.5616;-7.9875;1.0807;-5.7626;-7.8175;-1.3603;2.4217;-8.8528;0.5544;0.282;-0.0859;0.1235;1.0;16.13;34.16;18.51;287.37;52.86;103.28;0.0;983.42;51.0;35.95679;-83.92418;799.32;NaN;;5.58;12.226105;241.9;16 / 18;142520;2022-10-18 09:34:22:430
-2.5729;-8.6847;1.5837;-3.42;-9.0074;1.828;1.6697;0.694;0.895;2.2895;-0.967;-0.9061;1.0;23.08;29.4;22.37;274.47;66.71;61.88;0.0;983.5;44.691;35.95678;-83.924194;802.86;NaN;;5.58;12.226105;231.9;16 / 18;143021;2022-10-18 09:34:22:931
-0.6054;-3.9981;0.1092;-6.3158;-7.3096;-1.6885;3.9386;-6.8738;1.0173;0.3113;1.2698;0.6354;1.0;20.19;31.16;20.23;279.68;48.19;104.97;0.0;983.48;47.858;35.95678;-83.924194;802.86;NaN;;5.58;12.226105;231.9;16 / 18;143521;2022-10-18 09:34:23:431
-4.4788;-8.0498;-1.9669;-2.9618;-9.2192;1.5505;0.7491;1.3609;-0.3019;-0.4445;-0.8845;-1.0863;1.0;20.78;30.09;22.99;275.25;70.07;62.37;0.0;983.58;49.543;35.95677;-83.9242;805.59;NaN;;4.72;12.226105;225.9;16 / 18;144020;2022-10-18 09:34:23:930
-0.4896;-4.2024;1.369;-4.9142;-8.461;-0.6575;3.6712;5.68;1.1347;0.4706;-0.3654;0.5111;1.0;18.54;31.8;20.72;262.3;59.63;97.62;0.0;983.49;49.562;35.95677;-83.9242;805.59;NaN;;4.72;12.226105;225.9;16 / 18;144521;2022-10-18 09:34:24:431
-0.5976;-7.6053;1.7079;-2.4302;-9.4192;1.2422;-1.2131;0.8646;-4.9055;0.1096;-1.3884;-1.1175;1.0;19.67;32.38;22.05;272.83;73.84;62.93;0.0;984.13;48.502;35.95676;-83.92422;809.26;NaN;;5.65;12.226105;231.9;16 / 18;145021;2022-10-18 09:34:24:931
0.1813;-5.4248;-0.5339;-5.228;-8.2311;-1.0425;4.2514;5.8775;1.3881;0.0522;-0.8787;0.9916;1.0;19.03;31.35;24.66;262.09;57.07;101.28;0.0;984.44;48.204;35.95676;-83.92422;809.26;NaN;;5.65;12.226105;231.9;16 / 18;145520;2022-10-18 09:34:25:430
-6.9174;-7.6908;0.4678;-1.7058;-9.4939;1.7683;-3.9253;2.1012;-0.8189;0.8466;-1.6876;-1.2044;1.0;18.92;31.56;24.06;275.83;69.7;68.03;0.0;983.39;49.998;35.956753;-83.924225;809.97;NaN;;5.33;12.226105;236.4;16 / 18;146020;2022-10-18 09:34:25:930
-7.7653;-11.9707;-7.7539;-4.6884;-8.5657;-0.9039;3.4828;5.5348;1.8812;0.8515;0.4265;-1.0755;1.0;16.5;31.01;22.93;260.36;60.86;100.91;0.0;983.27;48.123;35.956753;-83.924225;809.97;NaN;;5.33;12.226105;236.4;16 / 18;146520;2022-10-18 09:34:26:430
-12.2943;-9.492;-4.4548;-1.8757;-9.5465;1.2318;-6.1417;2.0531;-0.7921;-2.4302;0.4976;1.7215;1.0;16.58;33.54;19.29;279.24;76.77;56.7;0.0;983.52;45.657;35.95675;-83.92424;808.59;NaN;;5.33;12.226105;251.0;16 / 18;147021;2022-10-18 09:34:26:931
-13.308;-14.3779;-6.8127;-5.6363;-8.0167;-0.3676;-10.1803;-1.7364;-0.3823;-0.5554;-1.6731;1.2099;1.0;20.12;29.06;23.27;272.01;51.03;103.11;0.0;983.6;45.387;35.95675;-83.92424;808.59;NaN;;5.33;12.226105;251.0;16 / 18;147521;2022-10-18 09:34:27:431
-10.9092;-10.7309;-3.1047;-4.2178;-8.742;-1.3995;-6.042;1.4643;-1.9075;-1.9995;1.0632;2.339;1.0;16.24;33.71;18.96;265.73;75.44;75.07;0.0;983.6;46.797;35.95674;-83.924255;805.89;NaN;;5.26;12.226105;240.0;16 / 18;148020;2022-10-18 09:34:27:930
-12.8895;-9.1113;-2.2813;-4.9954;-8.439;-0.0045;-3.2744;-2.5559;-6.4673;-0.0611;4.4215;-0.5216;1.0;20.93;28.69;24.86;262.43;59.38;90.05;0.0;983.83;48.138;35.95674;-83.924255;805.89;NaN;;5.26;12.226105;240.0;16 / 18;148521;2022-10-18 09:34:28:431
-9.4756;-12.1893;-0.07;-4.2336;-8.6712;-1.7485;-6.0441;-1.5044;-1.3864;-2.41;2.4907;2.5478;1.0;13.69;34.35;18.64;305.67;74.25;35.91;0.0;983.62;47.358;35.956738;-83.92427;804.19;NaN;;5.4;12.226105;251.1;16 / 18;149020;2022-10-18 09:34:28:930
-5.846;-16.6044;-1.6211;-5.4329;-8.1563;0.3585;-10.1092;-2.0405;-5.0259;-0.6077;-0.5084;0.8995;1.0;19.18;29.96;23.19;275.07;56.28;86.22;0.0;983.36;54.194;35.956738;-83.92427;804.19;NaN;;5.4;12.226105;251.1;16 / 18;149520;2022-10-18 09:34:29:430
-3.3535;-16.873;-0.8001;-5.0772;-8.2835;-1.3328;-3.7969;-4.5408;3.2232;-0.689;-2.575;2.09;1.0;13.07;34.82;18.66;285.0;57.64;104.71;0.0;983.53;47.036;35.95673;-83.924286;802.22;NaN;;5.26;12.226105;250.9;16 / 19;150024;2022-10-18 09:34:29:934
-1.5132;-11.4275;4.0457;-4.5773;-8.593;-1.1745;2.5884;-1.6275;3.4861;0.5381;1.1883;-0.8056;1.0;18.77;29.91;23.83;249.58;61.19;104.39;0.0;983.59;47.312;35.95673;-83.924286;802.22;NaN;;5.26;12.226105;250.9;16 / 19;150520;2022-10-18 09:34:30:430
-7.2494;-18.4651;2.607;-5.6934;-7.9221;-0.9983;-1.8822;-6.8353;5.0891;-1.9113;-0.752;2.4028;1.0;9.66;35.81;16.67;305.95;53.88;99.95;0.0;983.55;50.292;35.956722;-83.9243;802.16;NaN;;5.36;12.226105;240.9;16 / 19;151021;2022-10-18 09:34:30:931
-1.0807;-9.181;2.0426;-4.8112;-8.5091;-0.7861;7.9269;1.2709;4.0033;0.6205;-0.072;-1.4292;1.0;20.87;28.61;23.34;250.64;60.19;99.28;0.0;983.86;51.63;35.956722;-83.9243;802.16;NaN;;5.36;12.226105;240.9;16 / 19;151520;2022-10-18 09:34:31:430
-3.2889;-12.7277;-0.2285;-5.9216;-7.8031;-0.4657;2.3231;-5.413;2.309;-0.1504;-1.8929;1.8743;1.0;12.88;34.35;16.46;301.87;52.72;94.5;0.0;983.57;49.59;35.956715;-83.92431;802.44;NaN;;5.33;12.305469;248.6;15 / 19;152020;2022-10-18 09:34:31:930
0.1693;-7.3648;3.5094;-5.1225;-8.358;-0.2723;-2.6495;-2.9273;0.9539;0.25;1.6255;-0.7773;1.0;21.58;29.48;19.76;256.66;58.46;93.04;0.0;983.54;49.716;35.956715;-83.92431;802.44;NaN;;5.33;12.305469;248.6;15 / 19;152521;2022-10-18 09:34:32:431
-1.5595;-12.3793;-0.4893;-5.5476;-8.0296;-0.9587;-1.1546;-4.9316;5.3714;-0.1435;-2.7874;1.8578;1.0;15.0;34.48;14.89;265.62;74.09;76.63;0.0;983.5;48.969;35.95671;-83.92433;805.12;NaN;;5.29;12.613982;245.7;15 / 19;153020;2022-10-18 09:34:32:930
-0.8456;-10.8177;3.2094;-4.5551;-8.5808;-1.3382;5.1766;-4.0249;4.2462;1.8749;0.9651;-1.1262;0.0;24.23;26.85;20.87;227.52;61.05;106.37;0.0;983.53;48.613;35.95671;-83.92433;805.12;NaN;;5.29;12.613982;245.7;15 / 19;153520;2022-10-18 09:34:33:430
-0.6245;-10.4169;1.0496;-6.1221;-7.589;-1.0477;5.0454;-4.7378;1.3255;-1.7463;-1.4359;2.0179;1.0;14.12;32.96;17.55;267.38;60.9;108.66;0.0;983.71;49.666;35.956703;-83.92435;808.02;NaN;;4.93;12.714543;240.9;15 / 19;154021;2022-10-18 09:34:33:931
-0.2046;-10.5275;3.1101;-4.6178;-8.6021;-0.9222;5.6435;-0.3446;3.8198;1.993;-1.1348;-1.1767;1.0;21.36;28.28;21.26;243.47;61.3;101.29;0.0;983.66;46.928;35.956703;-83.92435;808.02;NaN;;4.93;12.714543;240.9;15 / 19;154521;2022-10-18 09:34:34:431
-0.6571;-11.5448;0.0879;-5.9543;-7.703;-1.1751;4.2972;-6.0936;0.4326;-0.433;-1.118;1.5353;1.0;11.06;35.18;16.07;284.54;62.54;103.24;0.0;983.76;46.506;35.9567;-83.924355;809.53;NaN;;5.11;13.188225;236.7;15 / 19;155020;2022-10-18 09:34:34:930
-0.3888;-10.0107;3.1983;-4.535;-8.6715;-0.6405;6.7673;0.9761;4.9511;2.3482;-0.3629;-1.0406;1.0;17.72;31.63;21.64;259.6;62.16;98.04;0.0;983.93;48.452;35.9567;-83.924355;809.53;NaN;;5.11;13.188225;236.7;15 / 19;155521;2022-10-18 09:34:35:431
-2.0659;-4.3783;0.9185;-5.1226;-8.253;-1.3481;-2.5376;-3.8449;0.5715;-0.0336;-0.691;-0.0099;1.0;14.31;34.09;19.01;281.08;57.31;104.74;0.0;983.6;49.427;35.95669;-83.92437;811.02;NaN;;5.08;13.283637;227.4;15 / 19;156020;2022-10-18 09:34:35:930
-4.9259;-8.2445;-2.26;-3.2966;-9.1323;1.3796;1.5086;-0.9211;1.5531;-0.0755;-0.3046;-0.8972;1.0;21.71;29.98;21.83;269.88;68.63;67.29;0.0;983.52;48.359;35.95669;-83.92437;811.02;NaN;;5.08;13.283637;227.4;15 / 19;156520;2022-10-18 09:34:36:430
0.0209;-7.1746;0.6398;-6.0789;-7.6091;-1.1489;6.6402;-0.6114;2.0691;-0.2297;0.4048;0.6435;1.0;18.04;32.51;19.22;285.87;50.89;100.7;0.0;983.52;47.319;35.95668;-83.92437;806.73;NaN;;5.44;13.239598;202.8;15 / 19;157021;2022-10-18 09:34:36:931
-5.4171;-8.8104;-1.8383;-3.4663;-9.1256;0.9374;2.0673;0.0624;1.3793;0.7087;-1.5277;-0.9308;1.0;25.26;27.08;20.93;254.43;68.52;74.87;0.0;983.52;48.431;35.95668;-83.92437;806.73;NaN;;5.44;13.239598;202.8;15 / 19;157521;2022-10-18 09:34:37:431
-2.6853;-3.786;-1.1653;-6.2509;-7.5116;-0.8196;3.3876;3.5237;-0.1723;-0.7182;-0.4706;0.4247;0.0;26.55;27.62;15.26;250.61;49.99;97.47;0.0;983.36;52.126;35.95667;-83.92438;806.87;NaN;;5.04;13.19423;211.5;16 / 19;158020;2022-10-18 09:34:37:930
-4.2577;-10.7243;0.8683;-3.4911;-9.1329;0.7574;-4.0988;-11.0569;2.0697;2.1281;2.2663;-1.8862;1.0;34.2;24.41;9.26;218.08;68.64;77.76;0.0;983.68;64.165;35.95667;-83.92438;806.87;NaN;;5.04;13.19423;211.5;16 / 19;158520;2022-10-18 09:34:38:430
2.6171;-1.7791;1.3612;-4.4787;-8.5393;-1.7866;6.3866;6.8472;2.4417;1.1843;-0.7925;-0.2708;1.0;28.24;24.54;17.1;198.88;60.55;111.75;0.0;983.47;53.203;35.956657;-83.924385;805.29;NaN;;5.51;13.54343;232.0;16 / 19;159021;2022-10-18 09:34:38:931
-10.6496;-9.5683;-3.2554;-1.8676;-9.5574;1.1573;-3.4701;1.754;-3.5994;-0.6422;-2.4651;0.0062;1.0;27.71;24.99;18.24;239.69;68.96;78.97;0.0;983.57;48.242;35.956657;-83.924385;805.29;NaN;;5.51;13.54343;232.0;16 / 19;159520;2022-10-18 09:34:39:430
-12.0003;-10.8392;-12.4887;-4.9647;-8.4216;-0.7732;-7.2883;-7.9257;-6.6014;0.0522;-0.9888;0.5188;1.0;27.96;25.05;18.56;228.61;52.53;104.42;0.0;983.89;50.408;35.95665;-83.92439;807.53;NaN;;5.65;13.238824;201.1;16 / 19;160021;2022-10-18 09:34:39:931
-7.6576;-10.6633;-4.1501;-1.9214;-9.4237;1.9164;-3.8159;1.1499;-1.3122;-0.2258;-0.5983;0.0247;1.0;23.83;30.08;17.16;276.9;73.94;45.07;0.0;983.61;49.334;35.95665;-83.92439;807.53;NaN;;5.65;13.238824;201.1;16 / 19;160520;2022-10-18 09:34:40:430
-0.5028;-16.9202;-10.9158;-5.4226;-8.1657;0.2962;-9.7128;-6.3537;-6.0586;-1.0655;-2.4825;1.3438;1.0;28.78;27.47;18.54;237.6;55.63;95.76;0.0;984.24;47.465;35.95663;-83.9244;808.45;NaN;;5.15;13.205473;195.3;16 / 19;161020;2022-10-18 09:34:40:930
-7.5353;-13.6702;8.7553;-5.0937;-8.1208;-2.0683;-3.2506;-3.4456;1.9505;-2.4577;-0.249;1.392;1.0;26.48;31.8;14.04;265.8;74.3;50.34;0.0;983.5;49.428;35.95663;-83.9244;808.45;NaN;;5.15;13.205473;195.3;16 / 19;161520;2022-10-18 09:34:41:430
-0.4047;-14.895;4.6122;-5.5221;-8.0747;-0.6903;-8.3101;0.383;1.5603;0.5815;3.88;-0.56;1.0;30.34;26.38;17.66;224.39;62.05;95.06;0.0;983.39;52.332;35.956623;-83.9244;807.57;NaN;;5.18;13.166418;209.6;16 / 19;162020;2022-10-18 09:34:41:930
0.3497;-3.3793;0.6236;-5.9986;-7.6602;-1.2283;2.3295;-8.2346;1.6355;0.5909;0.7178;0.8645;1.0;23.72;31.35;17.79;224.16;67.27;101.81;0.0;983.74;47.161;35.956623;-83.9244;807.57;NaN;;5.18;13.166418;209.6;16 / 19;162521;2022-10-18 09:34:42:431
-4.453;-9.082;-5.6034;-4.4981;-8.6062;-1.3674;3.4385;-0.8623;1.816;1.5822;1.5163;-1.0498;1.0;29.46;24.9;21.71;215.05;61.35;106.91;0.0;983.45;47.046;35.95661;-83.924416;805.9;NaN;;5.0;13.070531;215.1;16 / 19;163021;2022-10-18 09:34:42:931
-7.1548;-14.5878;-1.0624;-7.4324;-6.3371;-0.8785;3.302;-12.6783;5.3113;0.2718;2.6202;1.2205;1.0;24.08;29.93;18.49;292.14;40.26;96.74;0.0;983.59;46.17;35.95661;-83.924416;805.9;NaN;;5.0;13.070531;215.1;16 / 19;163520;2022-10-18 09:34:43:430
-3.5614;-15.551;-1.8763;-5.3774;-8.1962;-0.2773;4.5877;-4.399;-1.5254;0.5085;-2.3074;-1.7376;0.0;27.98;15.73;29.98;240.89;56.7;92.95;0.0;983.59;46.892;35.956604;-83.92442;807.76;NaN;;5.29;12.45198;207.6;16 / 19;164020;2022-10-18 09:34:43:930
-9.419;-11.7191;1.1163;-3.5022;-9.1287;-0.7557;-5.8303;0.1415;-4.1391;-2.2749;2.089;1.8592;1.0;18.39;33.53;18.73;242.51;68.57;102.18;0.0;983.54;54.827;35.956604;-83.92442;807.76;NaN;;5.29;12.45198;207.6;16 / 19;164520;2022-10-18 09:34:44:430
-5.9698;-17.1643;-4.4285;-4.9183;-8.4656;-0.5605;-7.2163;-5.3609;-7.1033;0.1194;2.6512;-0.4797;1.0;21.86;29.27;23.46;252.35;59.68;96.5;0.0;983.37;45.895;35.956593;-83.92443;807.73;NaN;;5.15;12.226105;214.0;16 / 19;165021;2022-10-18 09:34:44:931
-8.2158;-11.2609;1.2613;-3.9739;-8.8568;-1.3915;-6.4369;-1.7006;-3.7032;-1.5571;3.021;2.2714;1.0;15.36;34.26;19.24;253.44;64.57;109.3;0.0;983.56;52.311;35.956593;-83.92443;807.73;NaN;;5.15;12.226105;214.0;16 / 19;165521;2022-10-18 09:34:45:431
2.1565;-7.8661;6.373;-5.6545;-8.0121;0.0543;-5.7998;5.2467;2.3621;-0.014;-1.8903;0.4636;1.0;21.17;28.97;25.13;269.46;54.79;89.45;0.0;983.72;44.028;35.956585;-83.92444;807.47;NaN;;5.26;12.6516;227.6;16 / 19;166021;2022-10-18 09:34:45:931
-7.7931;-13.0451;0.0996;-4.5266;-8.6417;-1.0009;-6.646;-1.7917;-1.9564;-0.7494;-1.4376;1.469;1.0;10.29;36.17;18.77;286.32;61.79;102.47;0.0;984.04;45.687;35.956585;-83.92444;807.47;NaN;;5.26;12.6516;227.6;16 / 19;166520;2022-10-18 09:34:46:430
2.458;-9.2489;5.2226;-4.9145;-8.4616;-0.6471;3.9175;-5.3912;2.33;0.2985;2.1135;-0.5111;1.0;21.73;29.59;24.38;253.09;59.64;97.5;0.0;983.55;47.153;35.956577;-83.92445;807.86;NaN;;4.86;12.467545;243.6;16 / 19;167021;2022-10-18 09:34:46:931
-2.7194;-15.2016;-0.399;-5.7822;-7.8702;-0.8925;0.6071;-7.3253;5.3764;-1.4673;-0.5391;1.9151;1.0;12.94;33.58;20.25;292.94;53.37;98.77;0.0;983.96;48.439;35.956577;-83.92445;807.86;NaN;;4.86;12.467545;243.6;16 / 19;167521;2022-10-18 09:34:47:431
-2.1673;-8.9477;0.8231;-4.4391;-8.6829;-1.0353;-0.365;-5.2222;-0.9375;1.8606;-1.1877;-0.7332;1.0;18.99;28.44;25.33;247.26;62.3;103.13;0.0;983.37;48.779;35.956573;-83.92446;808.08;NaN;;4.54;12.291625;238.5;16 / 19;168020;2022-10-18 09:34:47:930
2.2385;-6.6353;-1.7034;-5.9053;-7.7867;-0.8155;4.9046;3.4362;1.6945;0.7579;-0.5917;-1.4544;1.0;9.69;34.97;19.84;300.84;52.64;99.34;0.0;983.53;46.124;35.956573;-83.92446;808.08;NaN;;4.54;12.291625;238.5;16 / 19;168521;2022-10-18 09:34:48:431
-7.4623;-6.9404;-0.984;-3.252;-9.1058;1.6367;1.9883;0.4451;1.2316;-0.1221;-0.463;-1.1418;1.0;15.49;34.52;20.66;290.07;68.21;63.28;0.0;983.64;48.041;35.95657;-83.92448;810.22;NaN;;4.21;12.226105;238.2;16 / 19;169020;2022-10-18 09:34:48:930
-3.0476;-9.1609;-8.3614;-5.311;-8.2264;-0.5386;2.6697;4.9917;1.0899;0.8631;0.4487;-1.6923;1.0;13.99;34.37;19.91;285.51;57.02;95.79;0.0;983.64;46.38;35.95657;-83.92448;810.22;NaN;;4.21;12.226105;238.2;16 / 19;169521;2022-10-18 09:34:49:431
-11.1625;-8.2585;-4.2401;-1.4657;-9.5141;1.8717;-4.5267;2.0073;0.0453;-1.0354;-1.2302;-1.1708;1.0;15.06;35.87;18.94;291.52;69.03;60.49;0.0;983.88;45.604;35.956566;-83.9245;809.98;NaN;;4.1;12.226105;248.5;16 / 19;170020;2022-10-18 09:34:49:930
-16.9789;-7.0122;10.3196;-4.2727;-8.782;-0.8893;5.4871;5.8951;1.5761;0.7817;-0.2281;-0.57;1.0;16.01;33.56;21.32;288.74;51.24;100.64;0.0;984.25;47.384;35.956566;-83.9245;809.98;NaN;;4.1;12.226105;248.5;16 / 19;170520;2022-10-18 09:34:50:430
-11.3731;-10.1294;-1.9211;-2.361;-9.4929;0.6936;-6.2314;2.1634;-1.8465;0.4674;-0.5237;-1.4186;1.0;15.56;34.59;20.4;282.02;73.94;61.43;0.0;983.48;47.759;35.95656;-83.92451;811.19;NaN;;4.0;12.226105;245.0;16 / 19;171020;2022-10-18 09:34:50:930
-13.0537;-9.0233;2.3174;-4.6406;-8.6272;-0.4554;6.5678;5.6269;2.0916;1.0526;-1.3042;-0.1747;1.0;19.39;31.82;23.31;260.83;61.61;95.6;0.0;983.36;44.245;35.95656;-83.92451;811.19;NaN;;4.0;12.226105;245.0;16 / 19;171521;2022-10-18 09:34:51:431
-7.0208;-7.3609;0.253;-1.7223;-9.3812;2.2796;-3.3732;2.1029;-1.7262;0.446;-0.758;-1.1324;1.0;16.56;34.43;20.38;300.96;73.06;37.07;0.0;983.55;45.422;35.956554;-83.924515;812.41;NaN;;4.25;12.226105;253.6;16 / 19;172020;2022-10-18 09:34:51:930
-13.4952;-10.2748;-1.2365;-5.0055;-8.4065;0.6681;2.586;1.4251;-2.2578;-0.0636;3.3277;-0.1508;1.0;19.14;32.18;22.37;276.64;59.01;82.4;0.0;983.67;44.417;35.956554;-83.924515;812.41;NaN;;4.25;12.226105;253.6;16 / 19;172521;2022-10-18 09:34:52:431
-9.8399;-11.5304;-3.1543;-2.2153;-9.4443;1.438;-5.341;1.6591;-2.7182;-2.7367;0.1117;1.7758;1.0;13.82;35.64;18.71;289.51;74.38;57.01;0.0;983.67;53.428;35.95655;-83.92453;812.75;NaN;;4.25;12.226105;248.3;16 / 19;173020;2022-10-18 09:34:52:930
-6.3335;-14.1912;-5.7491;-5.6759;-7.997;-0.0433;-7.7514;1.4587;0.2733;-0.1567;3.7866;-0.7909;1.0;21.0;30.32;24.54;270.19;54.63;90.44;0.0;983.39;48.233;35.95655;-83.92453;812.75;NaN;;4.25;12.226105;248.3;16 / 19;173520;2022-10-18 09:34:53:430
-3.9613;-16.9807;-0.7564;-3.4189;-9.1864;-0.3011;-7.4244;0.9793;-1.8521;-2.5418;2.1835;2.8033;1.0;13.61;35.01;20.42;262.51;69.51;95.03;0.0;983.59;46.895;35.956547;-83.924545;813.18;NaN;;4.5;12.226105;245.9;16 / 19;174020;2022-10-18 09:34:53:930
0.1693;-10.7584;2.4787;-5.1783;-8.2635;-1.0341;-1.29;-3.7156;-4.691;0.4955;3.4661;-1.1146;1.0;21.26;29.91;24.51;255.37;57.42;101.29;0.0;983.47;47.517;35.956547;-83.924545;813.18;NaN;;4.5;12.226105;245.9;16 / 19;174520;2022-10-18 09:34:54:430
-5.6554;-14.7799;2.4646;-4.967;-8.255;-1.8318;-2.8227;-3.5507;1.0589;-2.4705;2.1036;2.5814;1.0;12.36;36.17;18.54;287.92;57.33;110.24;0.0;983.55;46.587;35.95654;-83.92455;808.97;NaN;;4.43;12.226105;246.4;16 / 19;175021;2022-10-18 09:34:54:931
0.2647;-10.5509;2.4296;-5.2588;-8.237;-0.8174;-0.4094;-7.5158;-5.1189;2.3968;-0.3712;-1.4471;1.0;21.69;29.85;25.13;256.29;57.13;98.84;0.0;983.53;46.077;35.95654;-83.92455;808.97;NaN;;4.43;12.226105;246.4;16 / 19;175521;2022-10-18 09:34:55:431
0.4409;-14.4697;0.4998;-5.0122;-8.3105;-1.4085;-3.0567;-3.3311;3.4261;-1.2937;-3.0387;1.7813;1.0;12.68;35.74;19.82;283.99;57.93;105.7;0.0;983.59;51.483;35.95653;-83.92457;807.16;NaN;;4.75;12.226105;250.0;16 / 19;176021;2022-10-18 09:34:55:931
-0.1845;-10.1315;1.7764;-3.8673;-9.0119;-0.0095;4.3634;-3.5195;3.6367;2.1107;-1.0161;-1.2488;1.0;19.61;32.25;23.87;256.36;66.77;90.14;0.0;983.64;46.841;35.95653;-83.92457;807.16;NaN;;4.75;12.226105;250.0;16 / 19;176521;2022-10-18 09:34:56:431
-2.8669;-3.4965;-0.3185;-5.8836;-7.7713;-1.0769;7.079;1.9269;1.8866;0.4272;0.4956;0.2778;1.0;12.28;36.92;20.49;298.57;53.47;101.51;0.0;983.79;50.569;35.956524;-83.924576;805.74;NaN;;4.82;12.226105;244.0;16 / 19;177020;2022-10-18 09:34:56:930
-7.7342;-7.4025;0.7935;-3.3323;-9.1303;1.3054;3.0287;-1.8097;1.5959;0.1139;-0.4655;-1.1831;1.0;18.9;34.07;23.14;277.53;68.6;68.61;0.0;983.87;51.283;35.956524;-83.924576;805.74;NaN;;4.82;12.226105;244.0;16 / 19;177520;2022-10-18 09:34:57:430
-11.4413;-14.2759;-10.2598;-5.269;-8.2401;-0.7131;3.9197;4.8312;1.8962;0.257;-0.1075;-0.1678;1.0;15.45;36.66;19.69;292.03;53.92;101.17;0.0;983.65;48.957;35.956516;-83.92459;804.7;NaN;;4.86;12.226105;245.9;16 / 19;178021;2022-10-18 09:34:57:931
-11.4293;-8.1003;-2.3222;-2.6714;-9.2558;1.8339;0.7596;0.3646;0.4271;0.5688;-1.0675;-1.341;1.0;20.55;35.14;20.98;282.44;70.71;55.53;0.0;983.64;50.594;35.956516;-83.92459;804.7;NaN;;4.86;12.226105;245.9;16 / 19;178520;2022-10-18 09:34:58:430
-17.6384;-5.1568;4.9187;-4.5955;-8.6506;-0.468;3.2608;5.92;1.5582;0.5652;-0.0943;-1.0951;1.0;18.84;35.18;20.25;278.06;53.94;102.03;0.0;983.55;49.179;35.95651;-83.9246;805.51;NaN;;4.93;12.226105;245.5;16 / 19;179020;2022-10-18 09:34:58:930
-10.1952;-13.4812;2.9506;-3.9731;-8.9271;-0.832;-6.7614;2.5859;-2.2349;-2.2829;1.0608;2.4054;1.0;19.5;34.44;20.87;278.96;77.28;52.36;0.0;983.58;48.776;35.95651;-83.9246;805.51;NaN;;4.93;12.226105;245.5;16 / 19;179520;2022-10-18 09:34:59:430
2.0818;-14.1275;6.379;-5.6826;-7.989;0.2326;-11.2103;-5.7905;-3.62;-0.0266;-1.0863;1.425;1.0;23.81;30.9;22.69;268.11;54.55;87.66;0.0;983.31;47.957;35.956497;-83.924614;805.54;NaN;;5.04;12.226105;238.2;16 / 19;180021;2022-10-18 09:34:59:931
-0.4319;-17.5645;-0.0482;-4.3391;-8.6929;-1.333;-7.9752;-0.7419;-2.39;-1.6202;-0.4156;2.5328;1.0;15.45;36.11;19.37;265.87;62.43;107.08;0.0;983.99;50.38;35.956497;-83.924614;805.54;NaN;;5.04;12.226105;238.2;16 / 19;180520;2022-10-18 09:35:00:430
2.7942;-10.4504;6.9057;-3.9468;-8.9549;-0.635;7.5592;-1.013;8.0972;1.1274;3.2152;-1.7505;1.0;24.08;27.47;25.86;236.62;65.94;99.14;0.0;983.53;47.312;35.95649;-83.92462;804.43;NaN;;4.68;12.226105;254.9;16 / 19;181020;2022-10-18 09:35:00:930
-1.1506;-13.1291;1.6283;-5.9258;-7.7364;-1.0968;4.3333;-6.8364;2.5058;0.5868;1.672;0.5072;1.0;16.84;31.44;20.53;279.21;52.08;100.49;0.0;983.51;47.489;35.95649;-83.92462;804.43;NaN;;4.68;12.226105;254.9;16 / 19;181520;2022-10-18 09:35:01:430
-5.3288;-9.7666;-5.385;-3.2982;-9.2352;-0.0468;4.3132;-3.9461;3.9891;2.652;-0.8127;-1.387;1.0;21.32;24.75;23.76;243.75;70.34;90.81;0.0;983.57;47.773;35.95648;-83.92464;804.92;NaN;;5.11;12.226105;251.3;16 / 19;182020;2022-10-18 09:35:01:930
-2.6824;-3.0281;0.1768;-5.5953;-7.9264;-1.4265;3.456;5.0106;1.9999;1.4996;-0.1042;-1.5921;1.0;13.95;25.76;20.27;271.26;53.93;104.3;0.0;983.87;51.706;35.95648;-83.92464;804.92;NaN;;5.11;12.226105;251.3;16 / 19;182520;2022-10-18 09:35:02:430
-7.3202;-8.493;0.1522;-2.4877;-9.3334;1.6941;0.313;1.9175;-0.9069;0.0754;-1.9446;-1.1988;1.0;11.16;29.36;16.91;294.8;72.13;55.75;0.0;983.81;47.656;35.95647;-83.92466;804.97;NaN;;5.47;12.226105;247.9;16 / 19;183020;2022-10-18 09:35:02:930
-9.789;-13.9834;-6.1286;-4.3956;-8.7338;-0.7549;4.7025;6.447;1.7395;1.1107;0.3473;-0.3783;1.0;15.26;30.54;21.3;262.99;62.95;99.75;0.0;983.28;51.453;35.95647;-83.92466;804.97;NaN;;5.47;12.226105;247.9;16 / 19;183520;2022-10-18 09:35:03:430
-12.5937;-9.7828;-5.4637;-3.0777;-9.2804;-0.7563;-9.1939;0.1138;-3.7636;-2.3889;-0.4839;1.3394;1.0;12.28;36.19;17.33;256.67;71.14;103.81;0.0;983.61;52.76;35.956463;-83.924675;803.94;NaN;;5.54;12.226105;246.6;16 / 19;184020;2022-10-18 09:35:03:930
-12.4765;-9.9523;1.8063;-5.4358;-8.1584;-0.2496;-9.2814;-2.2192;1.8344;-0.1778;1.9594;-0.8195;1.0;20.57;31.58;24.54;268.45;56.3;92.63;0.0;983.72;52.491;35.956463;-83.924675;803.94;NaN;;5.54;12.226105;246.6;16 / 19;184521;2022-10-18 09:35:04:431
-3.7128;-19.9349;-1.1877;-3.1582;-9.2512;-0.7825;-8.1018;-1.1072;-1.6221;-2.9073;2.3518;3.1769;1.0;12.24;38.1;19.16;260.19;70.62;103.92;0.0;983.54;49.496;35.95645;-83.92469;806.99;NaN;;5.51;12.226105;238.9;16 / 19;185020;2022-10-18 09:35:04:930
-0.6323;-13.407;-0.7678;-4.7249;-8.4789;-1.398;2.261;-7.0705;-3.1199;0.4133;2.3512;-1.8283;1.0;23.44;30.79;26.06;241.8;59.84;106.48;0.0;983.58;49.27;35.95645;-83.92469;806.99;NaN;;5.51;12.226105;238.9;16 / 19;185520;2022-10-18 09:35:05:430
-3.6802;-16.4821;-0.5121;-3.8678;-8.8554;-1.6707;-6.5775;0.058;-1.0704;-1.8509;1.2202;2.3998;1.0;11.57;38.53;19.76;268.51;64.56;113.36;0.0;983.6;49.922;35.956444;-83.924706;809.61;NaN;;5.26;12.226105;245.9;16 / 19;186020;2022-10-18 09:35:05:930
-3.4184;-8.4174;0.7493;-4.2524;-8.7454;-1.2672;7.3946;1.773;3.0713;-0.7903;-3.3808;1.2629;1.0;21.47;34.74;22.54;243.59;63.1;106.59;0.0;983.62;48.764;35.956444;-83.924706;809.61;NaN;;5.26;12.226105;245.9;16 / 19;186520;2022-10-18 09:35:06:430
1.2072;-9.906;1.0822;-6.0005;-7.6501;-1.2804;7.0173;-3.6194;2.1071;0.5105;0.9645;0.8559;1.0;14.08;39.41;17.36;290.47;58.38;113.68;0.0;983.89;49.458;35.956436;-83.92472;810.38;NaN;;5.47;12.226105;249.7;16 / 19;187020;2022-10-18 09:35:06:930
-1.1833;-8.397;1.8227;-3.4375;-9.1173;1.1089;2.6714;0.8752;0.8181;0.8713;-1.9944;-1.1282;1.0;23.03;32.76;21.66;246.09;59.48;103.88;0.0;983.73;49.776;35.956436;-83.92472;810.38;NaN;;5.47;12.226105;249.7;16 / 19;187520;2022-10-18 09:35:07:430
0.1017;-6.7732;0.1457;-6.2764;-7.5132;-0.5742;2.6692;-8.3558;1.2932;0.5359;1.7269;0.9008;1.0;17.78;36.15;16.76;298.26;50.01;95.23;0.0;983.97;48.487;35.95643;-83.924736;809.51;NaN;;5.4;12.226105;247.1;16 / 19;188020;2022-10-18 09:35:07:930
-0.8013;-6.6772;2.5828;-3.3905;-9.1794;0.6432;3.0328;2.8805;1.7687;1.6832;-1.7877;-1.526;1.0;22.73;34.03;18.96;255.65;69.4;79.26;0.0;983.82;49.195;35.95643;-83.924736;809.51;NaN;;5.4;12.226105;247.1;16 / 19;188520;2022-10-18 09:35:08:430
-0.2934;-4.3116;0.8635;-5.9765;-7.6835;-1.1896;5.3907;-4.6755;0.8826;0.3283;0.5611;0.2311;1.0;19.31;34.86;16.76;289.33;51.58;101.26;0.0;983.59;49.129;35.95642;-83.92475;811.25;NaN;;5.26;12.226105;241.6;16 / 19;189020;2022-10-18 09:35:08:930
-5.8104;-7.6792;-1.4521;-2.347;-9.4496;1.1694;-1.1209;1.6419;-1.2532;1.7812;-0.1344;-1.3717;1.0;22.22;26.29;19.52;262.95;74.49;63.52;0.0;983.66;46.989;35.95642;-83.92475;811.25;NaN;;5.26;12.226105;241.6;16 / 19;189520;2022-10-18 09:35:09:430
1.3023;-4.879;-0.9416;-4.7669;-8.5625;-0.3609;6.6046;5.0921;1.1914;0.7552;1.7804;-2.2107;1.0;14.23;24.86;14.94;265.92;60.82;94.33;0.0;983.56;45.719;35.956417;-83.92477;812.92;NaN;;5.54;12.226105;264.2;16 / 19;190020;2022-10-18 09:35:09:930
-6.7974;-7.2212;0.3891;-1.6521;-9.521;1.6706;-4.5592;2.6691;-1.4809;-1.2892;0.7368;1.0093;1.0;14.03;34.97;13.61;293.22;76.14;44.68;0.0;983.78;47.448;35.956417;-83.92477;812.92;NaN;;5.54;12.226105;264.2;16 / 19;190520;2022-10-18 09:35:10:430
-15.6924;-9.2782;0.4032;-4.6112;-8.6008;-0.966;4.4124;6.0227;2.6517;1.0605;-0.2682;-0.7769;0.0;18.54;32.94;20.19;255.51;61.29;101.83;0.0;983.85;46.025;35.95641;-83.92478;810.8;NaN;;5.4;12.226105;265.9;16 / 19;191020;2022-10-18 09:35:10:930
-11.3931;-8.4841;-2.5834;-2.7217;-9.4092;0.4797;-7.7358;1.626;-2.4925;-2.6609;1.4067;2.8052;1.0;14.85;37.24;17.06;267.29;73.63;80.0;0.0;983.6;47.795;35.95641;-83.92478;810.8;NaN;;5.4;12.226105;265.9;16 / 19;191520;2022-10-18 09:35:11:430
-6.4181;-12.1917;-3.0419;-4.8419;-8.5268;-0.1427;5.8773;3.8211;-0.5134;-0.1678;-1.6486;1.0315;1.0;19.11;32.59;23.01;267.95;60.4;91.69;0.0;983.38;47.515;35.956406;-83.924805;811.61;NaN;;5.4;12.226105;258.5;16 / 19;192020;2022-10-18 09:35:11:930
-6.2842;-14.8932;4.4713;-4.0725;-8.8517;-1.1103;-7.4398;-1.615;-3.3401;-2.189;1.2134;2.2236;1.0;13.09;37.43;16.8;272.51;64.5;105.25;0.0;983.77;49.761;35.956406;-83.924805;811.61;NaN;;5.4;12.226105;258.5;16 / 19;192520;2022-10-18 09:35:12:430
1.7091;-8.8352;3.125;-4.8199;-8.4578;-1.1852;6.7042;0.5236;2.8344;-0.2657;2.2323;-0.8684;1.0;21.98;31.61;22.05;266.26;55.59;94.14;0.0;983.66;48.157;35.956394;-83.92483;811.8;NaN;;5.4;12.226105;244.4;16 / 19;193020;2022-10-18 09:35:12:930
-5.3022;-16.7216;-0.6673;-5.8294;-7.8126;-1.0729;-0.0686;-8.1302;1.5767;0.8909;-1.5626;1.326;1.0;15.11;37.22;16.93;260.54;70.67;92.89;0.0;983.81;47.678;35.956394;-83.92483;811.8;NaN;;5.4;12.226105;244.4;16 / 19;193521;2022-10-18 09:35:13:431
-1.3735;-8.8128;2.374;-4.9274;-8.3961;-1.1821;0.6067;-4.41;-1.5165;0.5605;1.8918;-0.854;1.0;24.69;32.64;20.23;240.33;58.89;103.49;0.0;983.43;47.675;35.956387;-83.92484;814.31;NaN;;5.08;12.226105;250.2;16 / 19;194021;2022-10-18 09:35:13:931
-1.9092;-15.5438;-1.1076;-5.749;-7.8229;-1.386;3.0992;-8.2776;0.1572;0.2734;0.1969;0.5217;1.0;16.18;35.74;16.61;295.6;52.91;103.55;0.0;983.6;47.574;35.956387;-83.92484;814.31;NaN;;5.08;12.226105;250.2;16 / 19;194521;2022-10-18 09:35:14:431
-2.094;-9.5372;2.1559;-2.9702;-9.1902;1.6994;1.3444;-0.1526;0.7153;1.1363;1.3646;-1.0051;1.0;21.6;32.85;21.84;277.32;69.58;60.22;0.0;983.59;46.845;35.956383;-83.92486;813.35;NaN;;5.0;12.226105;256.3;16 / 19;195020;2022-10-18 09:35:14:930
-0.848;-3.7044;0.751;-5.6894;-7.9193;-1.0417;6.1978;-3.368;2.0689;0.2127;0.0145;0.1063;1.0;15.53;36.98;17.36;295.63;53.86;100.38;0.0;983.57;50.458;35.956383;-83.92486;813.35;NaN;;5.0;12.226105;256.3;16 / 19;195521;2022-10-18 09:35:15:431
-4.6645;-8.377;-3.3437;-1.6799;-9.574;1.299;-3.0089;1.3112;-6.3;0.0886;-1.199;-1.2073;1.0;21.38;33.94;21.17;250.39;68.61;90.7;0.0;984.1;53.724;35.956375;-83.92487;812.74;NaN;;5.15;12.226105;258.8;16 / 19;196020;2022-10-18 09:35:15:930
0.3748;-3.2258;1.8975;-5.1118;-8.3194;-0.9096;5.0203;5.3537;2.5957;1.1542;0.1948;-1.6466;1.0;16.46;36.92;17.48;301.18;51.44;101.43;0.0;983.83;46.683;35.956375;-83.92487;812.74;NaN;;5.15;12.226105;258.8;16 / 19;196520;2022-10-18 09:35:16:430
-12.7185;-7.567;-2.953;-1.7747;-9.5146;1.579;-1.4227;0.7903;-6.4363;0.4274;-2.0738;-1.2551;0.0;17.96;38.16;16.14;285.15;75.98;48.34;0.0;983.61;49.94;35.95637;-83.92489;812.65;NaN;;5.33;12.226105;260.5;16 / 19;197020;2022-10-18 09:35:16:930
-5.1787;-7.9807;-3.5815;-4.9536;-8.4542;0.3991;2.6171;2.6517;-2.0881;-0.1661;-1.0187;0.8653;1.0;22.24;32.04;20.72;266.89;59.55;85.39;0.0;983.53;49.42;35.95637;-83.92489;812.65;NaN;;5.33;12.226105;260.5;16 / 19;197521;2022-10-18 09:35:17:431
-11.6297;-9.3784;-4.1575;-2.0222;-9.5705;0.6974;-6.4259;2.1329;-2.0595;-3.1966;1.0098;2.6578;1.0;16.26;35.08;17.48;265.38;77.4;70.97;0.0;983.72;49.725;35.956367;-83.924904;814.97;NaN;;5.4;12.226105;266.3;16 / 19;198021;2022-10-18 09:35:17:931
-9.0754;-13.1928;-5.3243;-5.5011;-8.0963;0.5989;-9.1155;-4.7574;-5.2387;-0.993;-0.6595;1.1475;1.0;22.69;30.86;24.02;271.65;55.65;83.79;0.0;984.11;48.457;35.956367;-83.924904;814.97;NaN;;5.4;12.226105;266.3;16 / 19;198521;2022-10-18 09:35:18:431
-8.2107;-16.4566;2.7568;-5.3221;-8.1782;-0.9806;-3.1742;-6.3881;4.0753;-1.6167;0.7633;2.4308;1.0;13.52;36.36;19.16;288.85;56.51;100.44;0.0;983.64;49.336;35.95636;-83.92492;810.54;NaN;;5.69;12.226105;256.0;16 / 19;199020;2022-10-18 09:35:18:930
3.3443;-7.7402;3.5946;-4.6394;-8.6303;-0.4063;7.8371;1.2572;2.8449;1.5158;0.7543;-1.4427;0.0;19.48;32.36;23.12;276.21;57.32;86.1;0.0;983.65;58.793;35.95636;-83.92492;810.54;NaN;;5.69;12.226105;256.0;16 / 19;199521;2022-10-18 09:35:19:431
1.34;-6.6649;1.8398;-5.1929;-8.2146;-1.3136;-3.6711;-6.496;3.8089;-1.5173;-1.4237;1.4622;1.0;13.37;36.32;18.51;288.86;56.89;104.2;0.0;983.84;48.546;35.956356;-83.924934;809.89;NaN;;5.44;12.388846;266.6;16 / 19;200021;2022-10-18 09:35:19:931
-1.9143;-7.9741;-1.456;-3.5426;-9.1193;0.6777;3.2141;-3.446;2.3169;1.9748;-0.3868;-1.3816;1.0;23.72;30.69;21.58;255.66;68.42;79.17;0.0;983.81;49.302;35.956356;-83.924934;809.89;NaN;;5.44;12.388846;266.6;16 / 19;200521;2022-10-18 09:35:20:431
1.9412;-8.4754;2.1287;-5.3991;-8.0528;-1.4742;7.529;-1.3364;3.0001;0.4503;1.0052;0.2953;1.0;15.36;34.82;19.95;273.0;58.44;108.72;0.0;983.84;49.175;35.95635;-83.92494;808.68;NaN;;4.93;12.226105;248.1;16 / 19;201020;2022-10-18 09:35:20:930
-4.2634;-8.7936;-4.5437;-2.5823;-9.3301;1.5657;0.6756;1.4826;-0.4288;0.0116;-0.7426;-1.4363;1.0;18.49;32.72;22.58;262.97;68.43;85.79;0.0;983.54;51.166;35.95635;-83.92494;808.68;NaN;;4.93;12.226105;248.1;16 / 19;201521;2022-10-18 09:35:21:431
2.3109;-2.3758;1.0836;-4.2807;-8.8043;-0.5746;6.7;6.9606;1.7083;0.9867;1.2408;-2.1235;0.0;16.2;34.44;20.53;264.59;63.87;97.65;0.0;983.57;48.626;35.95634;-83.92496;807.01;NaN;;5.44;12.41254;257.1;16 / 19;202021;2022-10-18 09:35:21:931
-6.1394;-6.7992;0.647;-1.2668;-9.5883;1.6216;-4.53;3.3495;-0.8805;-0.9318;0.1981;0.2594;1.0;14.44;36.09;19.88;301.91;77.89;38.0;0.0;983.62;49.03;35.95634;-83.92496;807.01;NaN;;5.44;12.41254;257.1;16 / 19;202520;2022-10-18 09:35:22:430
-14.1924;-4.2045;3.9987;-4.6258;-8.6288;-0.5618;4.7004;5.8965;0.7543;0.618;-0.1358;0.3961;1.0;15.06;34.28;21.99;272.06;61.63;96.92;0.0;984.11;48.376;35.956333;-83.92497;809.44;NaN;;5.36;12.337395;255.3;16 / 19;203021;2022-10-18 09:35:22:931
-10.0193;-10.4055;-2.7018;-2.1885;-9.5398;0.6111;-6.626;2.4689;-2.5714;-2.4387;1.092;2.2127;1.0;16.03;36.51;19.2;281.47;74.27;62.24;0.0;983.65;49.417;35.956333;-83.92497;809.44;NaN;;5.36;12.337395;255.3;16 / 19;203521;2022-10-18 09:35:23:431
-16.5215;-14.0025;-5.5851;-5.5239;-8.0853;0.5327;-7.769;-5.6215;-6.657;0.3993;-1.0733;0.8337;1.0;21.26;32.33;23.38;276.17;55.54;84.49;0.0;983.4;48.616;35.95633;-83.924995;808.13;NaN;;5.36;12.226105;261.0;16 / 19;204020;2022-10-18 09:35:23:930
-10.8177;-11.3339;-1.1124;-2.5815;-9.4431;0.5775;-8.6489;0.8355;-3.7919;-2.2336;1.6633;2.7752;1.0;16.05;37.65;18.17;304.13;76.15;30.32;0.0;983.71;49.553;35.95633;-83.924995;808.13;NaN;;5.36;12.226105;261.0;16 / 19;204520;2022-10-18 09:35:24:430
-5.3922;-11.4604;-1.6606;-4.8943;-8.3966;-1.3092;-2.5473;-2.9712;-1.0745;-0.2305;1.218;0.2788;1.0;21.64;31.8;25.22;248.71;58.89;104.98;0.0;983.68;47.983;35.956318;-83.92501;805.9;NaN;;5.44;12.226105;251.1;16 / 19;205020;2022-10-18 09:35:24:930
-7.8168;-12.938;5.0222;-5.4629;-8.0416;-1.2884;-2.2371;-3.3324;5.3512;-0.4507;-3.3649;2.0194;1.0;13.35;36.71;20.57;291.42;55.09;103.27;0.0;984.2;49.047;35.956318;-83.92501;805.9;NaN;;5.44;12.226105;251.1;16 / 19;205520;2022-10-18 09:35:25:430
-0.332;-10.416;3.9497;-4.4213;-8.6012;-1.6251;6.629;-4.7086;4.2782;-0.3896;3.5029;-1.1269;1.0;22.65;30.39;26.1;233.04;61.29;110.18;0.0;983.3;48.523;35.956306;-83.925026;806.55;NaN;;5.36;12.226105;259.0;16 / 19;206021;2022-10-18 09:35:25:931
0.8835;-9.8052;0.481;-6.1904;-7.5308;-1.066;7.003;-3.3296;1.638;0.6147;0.7547;1.042;1.0;14.18;35.85;22.18;296.43;50.17;99.77;0.0;983.68;49.333;35.956306;-83.925026;806.55;NaN;;5.36;12.226105;259.0;16 / 19;206521;2022-10-18 09:35:26:431
0.4932;-12.0356;3.8815;-4.0802;-8.9044;-0.4833;5.5708;-1.9018;5.4293;0.8082;2.4806;-1.0593;1.0;21.77;31.11;25.63;247.49;65.23;96.76;0.0;983.55;54.085;35.9563;-83.92504;806.91;NaN;;5.4;12.226105;265.0;16 / 19;207020;2022-10-18 09:35:26:930
-0.1714;-5.5567;1.4824;-5.8404;-7.8017;-1.0919;4.9662;-8.3901;0.2572;0.8349;0.1889;0.5327;1.0;12.79;36.45;21.71;293.66;52.71;100.59;0.0;983.56;48.158;35.9563;-83.92504;806.91;NaN;;5.4;12.226105;265.0;16 / 19;207520;2022-10-18 09:35:27:430
-2.3512;-8.2594;0.9799;-3.1407;-9.1599;1.5501;1.5083;1.5845;-0.3517;1.8678;-1.4901;-0.9344;1.0;19.89;33.19;24.26;251.81;60.66;104.6;0.0;983.64;49.394;35.956295;-83.92506;807.97;NaN;;5.15;12.226105;267.1;16 / 19;208021;2022-10-18 09:35:27:931
-0.0272;-4.1698;1.0893;-5.5192;-8.0817;-0.6286;6.3142;3.7481;1.9601;0.4348;0.0547;-1.4569;1.0;16.14;34.61;22.28;286.03;52.82;100.78;0.0;983.65;49.928;35.956295;-83.92506;807.97;NaN;;5.15;12.226105;267.1;16 / 19;208520;2022-10-18 09:35:28:430
-2.9695;-8.6067;-2.9085;-2.1384;-9.4208;1.6868;-0.7149;1.2265;-4.271;0.9438;-1.6033;-1.1421;1.0;16.73;34.65;22.86;290.31;73.88;51.73;0.0;983.83;51.276;35.956287;-83.92507;808.63;NaN;;5.33;12.226105;252.7;16 / 19;209020;2022-10-18 09:35:28:930
-8.5971;-10.034;-6.1286;-4.9913;-8.4236;-0.5485;0.6836;1.4476;-5.3921;1.0896;0.4107;-0.654;1.0;17.16;33.38;24.13;270.34;59.2;96.27;0.0;983.36;51.684;35.956287;-83.92507;808.63;NaN;;5.33;12.226105;252.7;16 / 19;209520;2022-10-18 09:35:29:430
-6.2509;-8.3638;0.6724;-1.319;-9.5079;2.0074;-4.1399;1.6048;-1.9324;0.5908;-2.1415;-1.29;1.0;15.69;35.4;22.86;305.71;75.82;33.31;0.0;983.72;50.689;35.956276;-83.92509;807.07;NaN;;5.26;12.226105;254.7;16 / 19;210020;2022-10-18 09:35:29:930
-17.217;-9.6239;2.9937;-4.8242;-8.5213;-0.5336;4.57;3.2504;-3.1112;0.1581;-1.4403;0.6745;1.0;16.39;33.13;24.73;270.31;60.33;96.31;0.0;983.7;50.839;35.956276;-83.92509;807.07;NaN;;5.26;12.226105;254.7;16 / 19;210521;2022-10-18 09:35:30:431
-10.6271;-10.1626;-4.8628;-3.2639;-9.2177;-0.7426;-7.7203;-0.5158;-4.8949;-2.2594;1.1857;1.4653;1.0;12.0;37.18;22.05;261.06;70.04;102.82;0.0;983.8;52.361;35.956272;-83.9251;809.26;NaN;;5.44;12.226105;264.1;16 / 19;211020;2022-10-18 09:35:30:930
-16.1848;-8.1006;1.4169;-5.8713;-7.8548;-0.0094;-11.3319;-0.7367;2.9851;-0.1942;0.7118;0.0289;1.0;17.12;31.97;28.99;280.76;53.22;90.09;0.0;984.18;51.327;35.956272;-83.9251;809.26;NaN;;5.44;12.226105;264.1;16 / 19;211520;2022-10-18 09:35:31:430
-10.9825;-10.4662;-3.4588;-3.4051;-9.1663;-0.7447;-7.2773;-0.6954;-2.767;-2.3764;0.8763;1.6459;1.0;9.66;38.01;22.97;269.39;69.18;102.34;0.0;983.71;52.503;35.956264;-83.925125;808.87;NaN;;5.51;12.226105;251.9;16 / 19;212020;2022-10-18 09:35:31:930
-0.2417;-14.7066;2.3985;-4.5519;-8.592;-1.2761;2.2847;-7.9067;4.1725;-0.0305;1.6494;-0.6544;1.0;16.86;32.27;29.12;256.1;61.18;105.66;0.0;983.65;53.033;35.956264;-83.925125;808.87;NaN;;5.51;12.226105;251.9;16 / 19;212520;2022-10-18 09:35:32:430
-10.0887;-11.4476;-0.6009;-4.2306;-8.6399;-1.9038;-6.4231;-1.7334;-0.096;-1.6882;-2.6746;2.0704;1.0;7.48;36.88;24.09;279.56;61.77;114.23;0.0;983.66;52.192;35.956264;-83.92514;809.62;NaN;;5.47;12.226105;267.7;16 / 19;213021;2022-10-18 09:35:32:931
3.6084;-9.8195;5.2831;-5.0236;-8.3779;-0.8626;-2.655;-6.5297;-3.3066;-0.0199;2.2176;-1.4245;1.0;17.94;31.84;27.9;264.02;58.68;99.74;0.0;983.66;51.957;35.956264;-83.92514;809.62;NaN;;5.47;12.226105;267.7;16 / 19;213521;2022-10-18 09:35:33:431
-1.4049;-16.9074;0.0604;-5.9067;-7.7229;-1.2798;3.34;-10.5245;-0.4986;-0.141;-0.7433;1.6767;1.0;11.46;36.28;21.58;263.44;64.45;114.64;0.0;983.9;55.956;35.956257;-83.92516;810.18;NaN;;5.4;12.226105;259.7;16 / 19;214021;2022-10-18 09:35:33:931
-0.2495;-7.9313;1.5443;-3.8116;-9.0206;-0.5199;5.5954;-2.6094;6.6187;1.1738;-2.0919;-1.2753;1.0;21.64;31.44;24.09;242.41;66.9;97.77;0.0;983.86;54.291;35.956257;-83.92516;810.18;NaN;;5.4;12.226105;259.7;16 / 19;214521;2022-10-18 09:35:34:431
0.8931;-5.549;1.4462;-5.8631;-7.7899;-1.0547;7.3471;1.8556;2.5527;0.528;-0.0273;-0.7822;1.0;15.36;35.53;19.59;293.29;52.59;100.2;0.0;983.65;54.6;35.956253;-83.92518;809.97;NaN;;5.4;12.226105;262.5;16 / 19;215021;2022-10-18 09:35:34:931
-6.6562;-7.8012;-3.3356;-1.2382;-9.5793;1.6951;-5.1645;2.0018;-5.7897;0.0927;-0.4529;-1.3993;1.0;17.18;35.06;20.94;262.19;58.89;102.48;0.0;983.57;53.55;35.956253;-83.92518;809.97;NaN;;5.4;12.226105;262.5;16 / 19;215521;2022-10-18 09:35:35:431
-0.4726;-1.5015;-0.236;-4.9343;-8.4253;-0.9151;4.4564;7.1456;0.7738;0.6454;1.5461;-1.8745;1.0;13.61;35.23;21.34;278.78;59.22;100.51;0.0;983.6;52.641;35.95625;-83.9252;808.28;NaN;;5.33;12.226105;271.6;16 / 19;216020;2022-10-18 09:35:35:930
-7.3116;-7.3409;0.6718;-1.6423;-9.5674;1.3923;-4.0366;1.9617;-4.9724;0.8237;-0.4083;-1.0212;1.0;12.49;36.84;19.67;297.17;77.32;49.71;0.0;983.76;59.349;35.95625;-83.9252;808.28;NaN;;5.33;12.226105;271.6;16 / 19;216521;2022-10-18 09:35:36:431
-7.13;-11.7715;-3.9948;-4.7383;-8.5845;0.1618;1.0516;-0.4618;-3.8178;0.7023;1.4905;-0.3293;1.0;14.63;34.48;22.44;283.5;54.14;101.47;0.0;983.93;57.664;35.95625;-83.92522;807.78;NaN;;5.51;12.226105;261.1;16 / 19;217021;2022-10-18 09:35:36:931
-11.4589;-12.1101;-3.2853;-1.2751;-9.5308;1.9257;-4.3669;1.8431;-3.4679;-0.1145;-0.0355;0.1607;1.0;11.14;38.34;18.64;313.17;76.38;33.51;0.0;983.73;56.135;35.95625;-83.92522;807.78;NaN;;5.51;12.226105;261.1;16 / 19;217520;2022-10-18 09:35:37:430
-17.528;-9.7481;0.061;-5.3746;-8.2026;0.0371;-12.6325;-3.2955;-3.1958;-0.5272;-0.6141;0.6576;0.0;14.93;34.97;24.06;285.7;56.77;89.6;0.0;983.54;56.418;35.956245;-83.92523;807.95;NaN;;5.33;12.226105;258.7;16 / 19;218020;2022-10-18 09:35:37:930
-8.2508;-11.7858;-0.4439;-4.3467;-8.5928;-1.8548;-4.5045;-2.6693;-0.0264;-1.8203;0.7352;1.2727;1.0;9.08;38.16;19.39;287.98;61.19;113.11;0.0;983.72;55.209;35.956245;-83.92523;807.95;NaN;;5.33;12.226105;258.7;16 / 19;218520;2022-10-18 09:35:38:430
-16.1988;-7.6199;4.2577;-5.4614;-8.1418;0.2327;-11.2544;-0.7117;1.8674;-0.8759;0.2014;0.5123;1.0;15.38;33.17;25.59;284.48;56.12;87.56;0.0;983.47;55.497;35.95624;-83.92524;808.54;NaN;;5.04;12.226105;260.8;16 / 19;219021;2022-10-18 09:35:38:931
-6.6135;-12.641;4.0187;-3.7215;-9.0106;-1.0629;-7.3157;-1.9152;-3.7216;-1.5773;2.1771;2.2651;1.0;6.26;39.38;19.93;286.01;66.76;105.94;0.0;983.8;52.852;35.95624;-83.92524;808.54;NaN;;5.04;12.226105;260.8;16 / 19;219520;2022-10-18 09:35:39:430
0.1834;-11.936;4.0152;-4.3978;-8.6952;-1.106;6.3406;1.778;5.0009;-0.9909;1.0302;0.9866;0.0;15.84;34.86;26.18;284.02;57.14;87.06;0.0;983.79;51.401;35.95624;-83.925255;808.89;NaN;;5.33;12.226105;265.4;16 / 19;220021;2022-10-18 09:35:39:931
0.2351;-12.4959;1.6831;-4.349;-8.6746;-1.4168;-5.916;-1.4224;-0.2543;-1.9607;-1.5154;2.1115;0.0;4.84;40.37;19.78;297.18;62.2;108.04;0.0;984.24;50.927;35.95624;-83.925255;808.89;NaN;;5.33;12.226105;265.4;16 / 19;220521;2022-10-18 09:35:40:431
2.3599;-11.1162;4.9702;-3.845;-9.014;-0.3655;7.2524;-0.6352;5.5092;2.7378;-0.0708;-1.4463;1.0;14.06;36.3;26.38;267.92;66.81;95.43;0.0;983.45;50.904;35.956238;-83.92527;810.14;NaN;;5.36;12.226105;260.3;16 / 19;221020;2022-10-18 09:35:40:930
0.9981;-6.4217;1.2508;-6.0686;-7.586;-1.3397;7.919;0.5772;2.9492;-0.5748;-1.8474;1.658;1.0;4.33;40.61;20.14;316.43;50.67;102.45;0.0;983.7;50.419;35.956238;-83.92527;810.14;NaN;;5.36;12.226105;260.3;16 / 19;221520;2022-10-18 09:35:41:430
1.791;-12.1382;2.8854;-3.9469;-8.9623;0.5186;6.462;-2.8848;2.631;1.7406;-1.4264;-1.5377;0.0;13.28;38.04;24.99;284.04;66.05;82.51;0.0;983.72;50.433;35.956238;-83.925285;815.64;NaN;;5.29;12.226105;262.9;16 / 19;222021;2022-10-18 09:35:41:931
0.9855;-8.5385;1.1701;-6.0516;-7.6481;-1.0266;-0.1348;-11.3754;-1.8533;0.533;1.1453;0.7639;1.0;10.11;38.87;22.13;304.68;51.25;99.63;0.0;983.55;51.324;35.956238;-83.925285;815.64;NaN;;5.29;12.226105;262.9;16 / 19;222521;2022-10-18 09:35:42:431
-4.0008;-8.8675;-3.7974;-2.4279;-9.4378;1.097;-0.0029;1.786;0.6333;1.9491;-2.0928;-1.2286;1.0;15.77;36.34;25.99;256.21;62.83;109.51;0.0;983.68;55.14;35.956238;-83.9253;817.04;NaN;;5.29;12.226105;264.5;16 / 19;223020;2022-10-18 09:35:42:930
2.0291;-4.2377;-0.0284;-6.1824;-7.5353;-1.0807;7.457;-0.006;2.9505;0.408;-0.0277;-0.302;1.0;10.84;37.89;24.6;299.16;50.21;99.91;0.0;983.91;50.956;35.956238;-83.9253;817.04;NaN;;5.29;12.226105;264.5;16 / 19;223521;2022-10-18 09:35:43:431
-10.0938;-9.3051;-3.6257;-2.8925;-9.3657;0.2945;-5.7822;0.6813;-3.7682;-3.4518;0.9536;3.1938;1.0;9.43;39.79;21.51;305.03;70.5;59.68;0.0;983.95;51.803;35.95623;-83.92532;813.77;NaN;;5.26;12.226105;264.2;16 / 19;224020;2022-10-18 09:35:43:930
0.516;-10.6418;3.7684;-4.9538;-8.4171;-0.8849;3.7172;-3.1227;1.9145;0.1676;1.1967;-0.4056;1.0;11.36;37.59;24.81;290.12;58.32;95.01;0.0;983.64;50.746;35.95623;-83.92532;813.77;NaN;;5.26;12.226105;264.2;16 / 19;224520;2022-10-18 09:35:44:430
-7.6962;-13.6358;0.5533;-5.0755;-8.1566;-1.9698;-3.5492;-4.3194;0.5862;-2.2406;2.0748;2.7619;1.0;7.73;39.34;22.03;296.62;56.28;111.21;0.0;983.69;48.778;35.95623;-83.92535;812.62;NaN;;5.4;12.226105;258.4;16 / 19;225020;2022-10-18 09:35:44:930
1.2443;-11.0725;3.9473;-4.8224;-8.3601;-1.739;8.9122;-2.8835;0.9042;-0.5301;-1.166;1.332;1.0;16.67;34.18;27.71;259.11;58.48;109.83;0.0;983.73;49.312;35.95623;-83.92535;812.62;NaN;;5.4;12.226105;258.4;16 / 19;225520;2022-10-18 09:35:45:430
0.0652;-8.5983;0.9915;-5.9686;-7.6902;-1.1861;2.2531;-9.1689;-0.9165;-1.1731;-0.874;2.0184;1.0;7.14;39.02;21.81;284.09;67.29;100.13;0.0;983.79;51.855;35.95623;-83.92536;813.27;NaN;;5.4;12.226105;264.3;16 / 19;226021;2022-10-18 09:35:45:931
-2.0264;-8.158;2.2798;-4.5694;-8.59;-1.2257;3.2558;-5.8953;0.0686;1.6459;1.9856;-1.352;1.0;14.38;34.65;24.51;268.23;61.16;105.02;0.0;983.8;51.394;35.95623;-83.92536;813.27;NaN;;5.4;12.226105;264.3;16 / 19;226520;2022-10-18 09:35:46:430
0.6954;-13.1623;0.1654;-6.2554;-7.4431;-1.2807;6.6645;-6.7755;0.9307;-0.3371;0.6526;0.8323;1.0;3.45;39.3;17.66;308.47;60.53;101.25;0.0;984.12;50.803;35.95623;-83.92538;813.49;NaN;;5.47;12.226105;263.1;16 / 19;227021;2022-10-18 09:35:46:931
-3.1573;-7.6621;-3.0042;-2.5293;-9.4153;1.0607;-0.162;2.4998;-3.5572;2.5243;-0.1659;-1.5727;1.0;14.14;35.87;26.04;270.8;62.49;100.2;0.0;983.67;49.176;35.95623;-83.92538;813.49;NaN;;5.47;12.226105;263.1;16 / 19;227521;2022-10-18 09:35:47:431
1.6887;-3.2509;1.9268;-6.0382;-7.6148;-1.3135;7.5901;-0.9178;3.2928;0.4582;0.2414;0.1332;1.0;7.44;37.46;22.89;304.1;50.94;102.27;0.0;983.74;54.556;35.956226;-83.92539;814.3;NaN;;5.36;12.226105;261.4;16 / 19;228021;2022-10-18 09:35:47:931
-6.4558;-9.3191;-5.2095;-2.8326;-9.2303;1.7173;1.0986;1.2287;0.5603;0.4926;-2.1941;-1.1489;0.0;10.56;37.14;22.09;300.39;70.26;58.77;0.0;983.65;50.663;35.956226;-83.92539;814.3;NaN;;5.36;12.226105;261.4;16 / 19;228521;2022-10-18 09:35:48:431
-9.114;-12.4092;-7.8153;-4.636;-8.5902;-0.9411;4.4787;5.6082;2.3209;0.2028;0.315;0.2707;0.0;10.44;35.57;23.78;297.75;50.74;102.58;0.0;983.67;47.744;35.956223;-83.925415;813.87;NaN;;5.26;12.226105;258.2;16 / 19;229020;2022-10-18 09:35:48:930
-10.4794;-8.2041;-3.3503;-2.193;-9.4813;1.211;-2.5616;0.659;-4.5025;0.1268;-1.5871;-1.2477;1.0;8.27;38.29;21.94;299.75;75.2;61.09;0.0;983.89;49.76;35.956223;-83.925415;813.87;NaN;;5.26;12.226105;258.2;16 / 19;229520;2022-10-18 09:35:49:430
-2.0782;-9.5195;-4.6875;-4.7929;-8.5519;-0.2503;4.9988;1.49;-3.141;-0.4707;-2.3948;1.1548;0.0;10.71;36.64;25.01;286.86;60.7;92.99;0.0;984.44;49.205;35.956223;-83.92543;814.4;NaN;;5.44;12.226105;254.6;16 / 19;230020;2022-10-18 09:35:49:930
-10.3343;-12.306;1.3923;-1.8791;-9.4682;1.73;-4.7545;1.7914;-4.575;-2.5181;-0.2931;1.3689;1.0;7.31;40.89;21.51;313.84;74.9;47.37;0.0;983.73;50.682;35.956223;-83.92543;814.4;NaN;;5.44;12.226105;254.6;16 / 19;230520;2022-10-18 09:35:50:430
1.1614;-11.1706;2.9527;-5.7403;-7.9496;-0.1533;-9.5599;-0.7767;0.1311;-0.1791;2.1558;-0.5757;1.0;15.28;36.04;28.73;286.18;54.16;91.53;0.0;983.65;47.88;35.956223;-83.925446;818.06;NaN;;5.54;12.226105;267.4;16 / 19;231021;2022-10-18 09:35:50:931
-4.622;-18.6108;0.8049;-4.599;-8.3544;-2.2853;-5.4225;-2.7739;0.487;0.465;-0.0699;1.0371;1.0;9.21;39.08;24.92;282.51;58.42;116.42;0.0;984.21;48.947;35.956223;-83.925446;818.06;NaN;;5.54;12.226105;267.4;16 / 19;231520;2022-10-18 09:35:51:430
-1.34;-8.1221;-0.0811;-3.2135;-9.2611;0.2755;2.0543;-4.2011;2.6617;2.0059;1.5657;-1.1589;1.0;16.99;33.71;30.96;272.34;57.58;96.09;0.0;983.71;50.516;35.956223;-83.92546;816.49;NaN;;5.47;12.226105;265.4;16 / 19;232020;2022-10-18 09:35:51:930
-0.9051;-4.1788;0.7463;-5.3814;-8.1221;-1.1149;1.3208;-9.102;2.2739;0.2563;0.5568;0.7182;1.0;6.09;39.3;25.82;297.5;55.92;101.7;0.0;983.68;49.839;35.956223;-83.92546;816.49;NaN;;5.47;12.226105;265.4;16 / 19;232520;2022-10-18 09:35:52:430
-2.1036;-8.3937;-0.7035;-2.346;-9.42;1.3894;0.7787;1.3487;-0.7414;-0.162;-1.2014;-1.4532;1.0;11.96;38.29;27.49;295.29;73.86;59.37;0.0;983.87;52.921;35.95622;-83.92548;820.8;NaN;;5.26;12.226105;259.9;16 / 19;233020;2022-10-18 09:35:52:930
2.9127;-3.8174;1.0567;-4.4299;-8.7427;-0.3338;7.1532;5.6584;1.6089;0.4175;0.0531;-0.1775;1.0;8.74;38.42;25.67;292.09;58.11;106.29;0.0;984.46;60.149;35.95622;-83.92548;820.8;NaN;;5.26;12.226105;259.9;16 / 19;233521;2022-10-18 09:35:53:431
-6.6003;-7.4665;-0.405;-1.5459;-9.5533;1.5859;-3.7334;1.3026;-4.2146;-0.1056;-0.1326;-1.3627;1.0;9.41;39.49;23.44;309.78;76.95;44.27;0.0;983.72;59.72;35.956215;-83.9255;820.73;NaN;;5.54;12.226105;260.1;16 / 19;234020;2022-10-18 09:35:53:930
-3.2348;-7.989;-3.8471;-4.6973;-8.5885;-0.586;4.0873;6.2245;1.3899;-0.1784;-0.9108;0.5486;1.0;10.24;36.71;25.01;285.33;61.14;97.11;0.0;983.57;53.96;35.956215;-83.9255;820.73;NaN;;5.54;12.226105;260.1;16 / 19;234520;2022-10-18 09:35:54:430
-8.6575;-13.3696;3.8366;-3.7336;-9.0539;-0.5066;-8.8085;1.5366;-3.6942;-2.5129;0.4753;1.7447;0.0;9.32;38.81;20.57;311.75;74.1;44.82;0.0;983.99;59.296;35.956215;-83.925514;822.15;NaN;;5.51;12.226105;253.0;16 / 19;235020;2022-10-18 09:35:54:930
1.3893;-9.2085;6.0855;-5.3957;-8.1886;-0.0635;-5.0818;-4.9369;-7.7907;0.6477;3.267;-0.9657;1.0;12.09;35.23;24.71;289.89;56.62;90.67;0.0;983.62;64.125;35.956215;-83.925514;822.15;NaN;;5.51;12.226105;253.0;16 / 19;235521;2022-10-18 09:35:55:431
-5.8065;-15.0215;3.6927;-5.214;-8.1974;-1.3368;-0.8844;-5.8598;3.8829;-1.6291;1.9664;1.927;1.0;5.44;38.49;19.52;304.92;56.71;104.38;0.0;983.76;62.648;35.956207;-83.92553;822.46;NaN;;5.62;12.226105;259.9;16 / 19;236021;2022-10-18 09:35:55:931
-0.81;-10.0244;4.4261;-4.6799;-8.6112;-0.3402;5.6953;-2.4339;2.4141;1.5148;0.2588;-1.3171;1.0;12.53;34.99;23.53;279.47;61.41;94.16;0.0;983.76;55.502;35.956207;-83.92553;822.46;NaN;;5.62;12.226105;259.9;16 / 19;236520;2022-10-18 09:35:56:430
-1.0131;-6.8435;0.4358;-6.1511;-7.5453;-1.1846;0.9873;-11.2027;0.613;0.1865;-2.3457;2.1726;1.0;5.74;37.86;18.79;314.09;50.3;100.9;0.0;984.5;49.358;35.956203;-83.92555;826.44;NaN;;5.58;12.226105;254.5;16 / 19;237020;2022-10-18 09:35:56:930
-2.0997;-8.409;2.5334;-3.6929;-9.0847;-0.0048;4.5784;-0.6049;3.589;0.56;-0.7815;-1.6447;1.0;10.88;36.83;22.13;279.59;67.88;90.07;0.0;984.11;48.853;35.956203;-83.92555;826.44;NaN;;5.58;12.226105;254.5;16 / 19;237520;2022-10-18 09:35:57:430
1.7402;-5.0091;1.5814;-5.4233;-8.1113;-0.9821;6.4395;5.5333;3.2448;0.2733;-0.2185;-0.0292;1.0;7.03;37.8;20.91;306.6;52.57;102.14;0.0;983.63;53.483;35.956196;-83.92557;826.57;NaN;;5.62;12.226105;248.0;16 / 19;238020;2022-10-18 09:35:57:930
-7.2488;-7.9576;0.9317;-2.674;-9.2739;1.7363;0.8995;0.9579;0.4874;-0.0508;-0.6005;-1.518;1.0;10.35;37.8;22.76;303.33;71.03;57.0;0.0;983.74;52.397;35.956196;-83.92557;826.57;NaN;;5.62;12.226105;248.0;16 / 19;238521;2022-10-18 09:35:58:431
1.6502;-2.5451;0.8614;-4.2679;-8.8104;-0.5761;5.8194;6.8328;1.2199;0.4746;-0.1351;0.4156;0.0;8.74;36.79;23.19;284.22;63.95;97.69;0.0;983.74;62.111;35.95619;-83.92558;827.87;NaN;;5.69;12.226105;249.6;16 / 19;239021;2022-10-18 09:35:58:931
-12.0999;-9.189;-3.8327;-3.2102;-9.2565;-0.4259;-8.6524;0.7692;-3.1969;-1.7652;0.3474;1.3077;1.0;6.53;38.51;19.73;311.91;77.35;45.8;0.0;983.75;61.028;35.95619;-83.92558;827.87;NaN;;5.69;12.226105;249.6;16 / 19;239521;2022-10-18 09:35:59:431
-8.2298;-6.8321;0.1277;-5.5869;-8.0578;-0.169;-3.1075;2.5807;-0.0647;0.174;-0.7849;0.6655;1.0;11.83;35.04;24.53;291.04;55.25;91.73;0.0;983.61;58.823;35.956184;-83.9256;830.86;NaN;;5.72;12.226105;260.4;16 / 19;240021;2022-10-18 09:35:59:931
-9.9057;-15.1164;2.7129;-4.0087;-8.8926;-1.0112;-9.9736;2.0447;-2.2109;-0.9237;-1.4516;1.7764;1.0;9.6;37.11;21.0;276.84;65.07;104.16;0.0;984.02;57.187;35.956184;-83.9256;830.86;NaN;;5.72;12.226105;260.4;16 / 19;240520;2022-10-18 09:36:00:430
-1.0466;-9.6431;3.9864;-4.4053;-8.7204;-0.8482;7.2261;-2.0784;4.7578;0.3051;2.5175;-1.1746;1.0;15.3;33.75;26.72;281.53;56.99;91.29;0.0;984.45;57.731;35.95618;-83.92561;828.92;NaN;;5.72;12.226105;272.2;16 / 19;241020;2022-10-18 09:36:00:930
-1.5084;-3.3503;1.1596;-5.9299;-7.5381;-2.0452;-1.1671;-10.3198;4.5241;0.2143;0.1865;1.2138;1.0;8.87;36.71;23.53;299.36;50.24;109.03;0.0;983.69;54.108;35.95618;-83.92561;828.92;NaN;;5.72;12.226105;272.2;16 / 19;241520;2022-10-18 09:36:01:430
-2.2095;-9.2192;-3.8928;-3.2609;-9.115;1.5667;2.5065;0.6561;2.3379;1.4159;-1.2856;-1.5837;1.0;12.88;34.78;25.95;293.25;68.35;64.34;0.0;983.79;51.557;35.956177;-83.92563;828.95;NaN;;5.58;12.226105;262.7;16 / 19;242020;2022-10-18 09:36:01:930
1.5045;-3.2716;-1.9944;-6.3269;-7.3198;-1.6001;6.187;0.4935;2.6172;0.7016;0.7852;-0.6564;0.0;6.99;37.67;23.96;306.3;48.28;104.19;0.0;983.77;55.887;35.956177;-83.92563;828.95;NaN;;5.58;12.226105;262.7;16 / 19;242521;2022-10-18 09:36:02:431
-7.6732;-6.894;-0.4229;-2.2005;-9.4948;1.085;-1.243;1.9183;-0.621;1.2544;-0.9607;-1.9757;0.0;10.07;38.01;24.94;293.24;75.51;63.75;0.0;983.89;53.86;35.956173;-83.92565;832.63;NaN;;5.58;12.226105;253.7;16 / 19;243021;2022-10-18 09:36:02:931
-0.489;-2.9542;0.3547;-6.1995;-7.5634;-0.7297;6.9592;1.9973;2.8573;0.2863;1.1479;-2.0581;1.0;10.37;37.52;24.84;301.1;50.47;96.71;0.0;983.92;51.894;35.956173;-83.92565;832.63;NaN;;5.58;12.226105;253.7;16 / 19;243520;2022-10-18 09:36:03:430
-7.9711;-8.0845;-1.5945;-1.7835;-9.4608;1.8661;-0.9418;0.6293;-4.447;1.1853;-0.4792;-1.766;1.0;15.39;36.53;25.8;276.64;66.34;85.18;0.0;984.06;54.167;35.95617;-83.92567;836.9;NaN;;5.44;12.226105;250.8;16 / 19;244020;2022-10-18 09:36:03:930
-0.88;-7.0463;-5.9856;-4.7948;-8.5542;0.0781;6.7446;3.3972;-5.5173;1.131;0.6304;-1.8758;1.0;10.24;36.32;24.64;297.78;51.2;97.1;0.0;984.27;60.901;35.95617;-83.92567;836.9;NaN;;5.44;12.226105;250.8;16 / 19;244521;2022-10-18 09:36:04:431
-11.7275;-8.6186;-5.3498;-1.6196;-9.5264;1.6717;-2.6992;1.731;-1.3521;-1.9241;0.467;0.8887;1.0;8.25;38.08;23.42;312.11;76.27;44.09;0.0;983.98;59.803;35.956165;-83.92568;840.6;NaN;;5.69;12.226105;262.0;16 / 19;245020;2022-10-18 09:36:04:930
-4.9104;-15.3494;-5.7257;-4.5636;-8.6759;-0.2694;4.8155;4.2954;-0.7627;0.3325;-0.7361;1.102;1.0;10.18;34.5;28.82;281.89;62.21;93.38;0.0;983.67;49.514;35.956165;-83.92568;840.6;NaN;;5.69;12.226105;262.0;16 / 19;245520;2022-10-18 09:36:05:430
-13.3262;-8.9246;-0.6314;-1.4858;-9.6651;0.7404;-5.9849;2.8088;-2.0892;0.1148;-0.8331;-0.8711;0.0;3.0;38.66;22.33;302.94;80.25;63.51;0.0;983.85;52.904;35.95616;-83.9257;838.45;NaN;;5.36;12.226105;259.5;16 / 19;246020;2022-10-18 09:36:05:930
-2.7664;-15.5019;4.2305;-4.5372;-8.6631;-0.7314;-5.1948;-1.1519;-3.2136;0.5378;3.5164;-1.1342;1.0;8.93;38.03;25.2;285.49;62.05;99.16;0.0;983.72;54.696;35.95616;-83.9257;838.45;NaN;;5.36;12.226105;259.5;16 / 19;246520;2022-10-18 09:36:06:430
1.3944;-5.674;1.1958;-5.862;-7.7182;-1.4957;3.9143;-12.1195;0.7506;-1.5484;1.0443;2.4785;1.0;3.77;40.28;20.85;289.8;64.02;115.21;0.0;983.73;52.849;35.95616;-83.92571;835.55;NaN;;4.97;12.226105;268.1;16 / 19;247020;2022-10-18 09:36:06:930
