ACCELEROMETER X (m/s²);ACCELEROMETER Y (m/s²);ACCELEROMETER Z (m/s²);GRAVITY X (m/s²);GRAVITY Y (m/s²);GRAVITY Z (m/s²);LINEAR ACCELERATION X (m/s²);LINEAR ACCELERATION Y (m/s²);LINEAR ACCELERATION Z (m/s²);GYROSCOPE X (rad/s);GYROSCOPE Y (rad/s);GYROSCOPE Z (rad/s);LIGHT (lux);MAGNETIC FIELD X (μT);MAGNETIC FIELD Y (μT);MAGNETIC FIELD Z (μT);ORIENTATION Z (azimuth °);ORIENTATION X (pitch °);ORIENTATION Y (roll °);PROXIMITY (i);ATMOSPHERIC PRESSURE (hPa);SOUND LEVEL (dB);LOCATION Latitude : ;LOCATION Longitude : ;LOCATION Altitude ( m);LOCATION Altitude-google ( m);LOCATION Altitude-atmospheric pressure ( m);LOCATION Speed ( Kmh);LOCATION Accuracy ( m);LOCATION ORIENTATION (°);Satellites in range;Time since start in ms ;YYYY-MO-DD HH-MI-SS_SSS
0.7648;-1.7752;12.5486;-1.4365;-0.7324;9.6732;-1.3375;0.5757;-0.8403;-2.9157;-0.6242;1.6998;1860.0;11.53;-18.84;-31.52;197.1;-12.42;14.75;2.0;987.78;55.059;35.958473;-83.925064;840.79;NaN;;4.14;15.44283;150.4;12 / 18;16;2022-10-24 15:43:49:752
-0.1986;1.8027;7.2446;-3.1214;-0.0012;9.2966;-1.2795;0.5713;-2.2585;0.7632;-2.0272;0.8042;1658.0;10.22;-8.08;-39.06;159.87;0.01;18.56;2.0;987.74;63.772;35.958473;-83.925064;840.79;NaN;;4.14;15.44283;150.4;12 / 18;516;2022-10-24 15:43:50:252
-4.2772;-0.1819;9.5261;0.9353;-0.0703;9.7617;-2.1526;0.8512;-1.0719;-0.1919;0.2101;-0.6403;1483.0;-1.26;-10.72;-39.58;201.01;-0.03;-7.48;2.0;987.74;56.974;35.95848;-83.92504;834.68;NaN;;3.89;17.17406;147.4;11 / 18;1017;2022-10-24 15:43:50:753
0.8979;1.9645;7.2135;1.6964;2.6443;9.2898;-0.3991;-0.6429;-0.8896;0.6353;0.1536;-0.2434;1462.0;-2.55;-14.59;-37.01;205.1;-11.38;-10.0;2.0;987.75;59.458;35.95848;-83.92504;834.68;NaN;;3.89;17.17406;147.4;11 / 18;1516;2022-10-24 15:43:51:252
1.6735;2.6336;7.1201;3.0629;2.7711;8.8944;1.6122;1.0706;-0.762;0.201;0.2087;-0.6471;1459.0;-7.14;-19.59;-32.01;196.19;-13.08;-18.5;2.0;987.72;61.706;35.958466;-83.92503;834.57;NaN;;5.26;14.642886;157.9;11 / 18;2016;2022-10-24 15:43:51:752
0.8091;1.6974;4.8434;2.7687;2.9209;8.9428;-0.2692;0.0439;-2.0121;-0.916;-0.5892;-0.263;1364.0;-6.64;-19.82;-30.75;194.41;-17.33;-17.2;2.0;987.74;59.141;35.958466;-83.92503;834.57;NaN;;5.26;14.642886;157.9;11 / 18;2516;2022-10-24 15:43:52:252
0.0562;2.5857;6.2163;2.381;2.4075;9.2035;0.0067;-0.6306;1.1786;-0.0067;-0.0236;-0.0408;1353.0;-8.94;-18.28;-31.95;175.7;-14.21;-14.5;2.0;987.7;60.393;35.958454;-83.925026;830.07;NaN;;5.08;13.756263;152.5;12 / 18;3016;2022-10-24 15:43:52:752
1.4868;1.002;7.2685;2.3792;1.5303;9.3898;-1.1524;-0.3096;-0.6418;0.3868;-0.2269;0.3451;1290.0;-7.69;-16.5;-34.2;183.29;-8.98;-14.22;2.0;987.73;62.536;35.958454;-83.925026;830.07;NaN;;5.08;13.756263;152.5;12 / 18;3515;2022-10-24 15:43:53:251
1.4174;1.4366;5.0767;2.9262;1.372;9.2588;0.8516;0.3562;-1.7116;0.2735;0.3495;-0.97;1065.0;-10.26;-13.74;-34.84;183.77;-2.38;-17.24;2.0;987.73;57.972;35.958447;-83.92502;827.93;NaN;;2.92;12.910704;164.3;12 / 18;4017;2022-10-24 15:43:53:753
2.4156;1.646;9.2605;2.5225;1.7904;9.306;-1.2117;-0.568;-0.4507;0.69;-0.1106;0.5023;989.0;-8.64;-12.47;-35.96;185.52;-5.49;-15.29;2.0;987.78;58.425;35.958447;-83.92502;827.93;NaN;;2.92;12.910704;164.3;12 / 18;4515;2022-10-24 15:43:54:251
2.4263;1.7501;6.6664;3.5231;1.7494;8.9832;1.0674;0.859;-1.0247;0.7478;-0.0624;0.1248;970.0;-11.19;-14.44;-33.26;189.48;-6.09;-21.25;2.0;987.72;59.379;35.95844;-83.92501;821.55;NaN;;4.9;12.226105;163.6;12 / 18;5016;2022-10-24 15:43:54:752
2.9961;1.6783;9.8698;3.1431;1.8842;9.0962;-1.2996;-0.879;3.7747;0.8362;-0.1458;0.0647;938.0;-12.38;-13.5;-33.98;178.0;-11.08;-19.06;2.0;987.71;60.336;35.95844;-83.92501;821.55;NaN;;4.9;12.226105;163.6;12 / 18;5515;2022-10-24 15:43:55:251
5.1461;2.9758;7.247;3.8774;1.9902;8.785;0.5009;0.1776;0.4635;0.4527;0.1721;0.141;981.0;-13.78;-15.52;-31.8;173.36;-13.0;-22.15;2.0;987.7;58.154;35.958427;-83.925;823.28;NaN;;6.52;12.226105;163.7;12 / 18;6016;2022-10-24 15:43:55:752
4.6289;2.1954;11.0919;3.6639;1.3939;8.9891;-0.4838;-7.0E-4;5.9057;1.1534;0.7596;-0.1255;1006.0;-14.96;-12.62;-33.32;169.47;-8.17;-22.18;2.0;987.7;57.194;35.958427;-83.925;823.28;NaN;;6.52;12.226105;163.7;12 / 18;6516;2022-10-24 15:43:56:252
2.3665;1.9343;6.1804;3.454;1.5613;9.0445;0.5595;0.2087;3.1668;0.0153;-0.2111;-0.0894;1084.0;-14.92;-15.15;-30.96;148.47;-15.97;-20.73;2.0;987.73;60.494;35.958416;-83.925;818.86;NaN;;4.46;12.226105;171.7;12 / 18;7016;2022-10-24 15:43:56:752
3.5647;1.8422;9.3108;3.7231;2.7624;8.6417;-0.5891;-0.3824;-1.3542;0.8136;0.0653;-0.0273;1096.0;-14.85;-12.79;-32.51;174.98;-8.16;-23.37;2.0;987.7;58.59;35.958416;-83.925;818.86;NaN;;4.46;12.226105;171.7;12 / 18;7516;2022-10-24 15:43:57:252
3.4977;2.782;6.3;3.4932;2.4847;8.8201;0.853;-1.1862;4.6807;0.6515;0.0205;-0.0257;1015.0;-14.14;-15.79;-30.21;147.12;-19.06;-20.14;2.0;987.71;58.496;35.95841;-83.924995;817.43;NaN;;4.97;12.226105;171.5;13 / 18;8016;2022-10-24 15:43:57:752
2.2241;1.6543;6.4618;3.3113;3.4063;8.5792;0.4557;-1.3418;1.1463;0.9621;0.6576;-0.2463;923.0;-13.39;-15.02;-31.28;158.04;-20.32;-21.1;2.0;987.74;58.99;35.95841;-83.924995;817.43;NaN;;4.97;12.226105;171.5;13 / 18;8516;2022-10-24 15:43:58:252
4.6744;4.8529;6.6185;3.4556;2.1298;8.9271;0.1293;0.1832;3.6037;-0.1168;-0.4496;-0.5089;961.0;-10.14;-16.09;-30.99;192.3;-12.54;-21.16;2.0;987.69;59.647;35.9584;-83.924995;819.39;NaN;;5.11;12.226105;155.0;13 / 18;9016;2022-10-24 15:43:58:752
1.2796;4.1608;5.8738;-0.0366;4.3235;8.8021;0.6998;-2.446;1.5462;0.6866;0.7807;1.2687;1372.0;5.27;-11.04;-35.32;296.53;-20.72;1.2;2.0;987.68;61.678;35.9584;-83.924995;819.39;NaN;;5.11;12.226105;155.0;13 / 18;9516;2022-10-24 15:43:59:252
1.5407;3.973;5.7147;1.8868;4.1493;8.6829;-0.0985;-0.1635;-2.5176;-0.3225;-0.2501;-0.2465;1829.0;-0.67;-22.82;-26.31;202.82;-26.59;-10.61;2.0;987.72;62.774;35.958393;-83.92497;818.97;NaN;;4.75;12.226105;152.2;13 / 18;10017;2022-10-24 15:43:59:753
0.7624;2.0124;5.0803;2.4327;3.6087;8.7881;-0.4139;-1.3932;0.3148;0.5904;0.3725;0.0444;1501.0;-9.09;-19.52;-30.19;174.59;-21.59;-15.47;2.0;987.7;61.704;35.958393;-83.92497;818.97;NaN;;4.75;12.226105;152.2;13 / 18;10516;2022-10-24 15:44:00:252
2.4562;2.7676;7.4097;3.9771;2.6168;8.5735;0.7217;1.3798;-0.3958;-0.3353;0.0218;-0.2388;1392.0;-15.97;-18.71;-28.99;166.32;-15.48;-24.89;2.0;987.71;58.126;35.95838;-83.924965;819.21;NaN;;5.65;12.226105;154.8;13 / 18;11016;2022-10-24 15:44:00:752
1.9777;1.2891;2.7329;3.6153;3.8765;8.2506;-1.2862;-3.0875;-3.0513;1.8032;0.7208;-0.2619;1459.0;-19.12;-16.33;-30.09;161.22;-11.25;-27.52;2.0;987.65;57.66;35.95838;-83.924965;819.21;NaN;;5.65;12.226105;154.8;13 / 18;11516;2022-10-24 15:44:01:252
2.6492;0.4071;10.4384;4.315;0.5229;8.7908;-0.6591;1.1165;-0.071;-0.2642;-0.3363;-0.477;1710.0;-20.14;-16.18;-29.17;159.87;-3.06;-26.14;2.0;987.67;60.206;35.958366;-83.92496;816.91;NaN;;5.98;12.226105;155.4;11 / 18;12015;2022-10-24 15:44:01:751
1.774;0.6918;4.2209;3.3656;2.5927;8.8386;-1.0908;-3.0985;-2.0822;0.1656;-0.162;0.4054;2046.0;-20.76;-13.03;-31.99;153.71;-7.19;-27.25;2.0;987.66;59.593;35.958366;-83.92496;816.91;NaN;;5.98;12.226105;155.4;11 / 18;12516;2022-10-24 15:44:02:252
3.7863;1.8517;6.5719;4.977;0.772;8.4145;0.3432;1.0503;0.6323;0.2533;-0.8547;-0.5517;2102.0;-22.48;-15.51;-29.08;162.34;-4.51;-30.6;2.0;987.64;59.443;35.958355;-83.92494;813.91;NaN;;5.4;12.226105;153.3;11 / 18;13016;2022-10-24 15:44:02:752
3.3135;1.4713;5.4287;4.9838;3.9216;7.4802;-2.0241;-2.9697;-3.1048;0.3479;0.1865;0.4484;2159.0;-25.41;-17.16;-24.54;161.5;-12.76;-40.23;2.0;987.66;60.088;35.958355;-83.92494;813.91;NaN;;5.4;12.226105;153.3;11 / 18;13517;2022-10-24 15:44:03:253
3.0957;1.5455;9.5082;5.0462;1.7971;8.2144;-2.4001;0.0462;-2.0791;-0.3383;0.1943;-0.8844;2019.0;-25.11;-18.9;-22.71;151.08;-8.79;-34.5;2.0;987.65;61.023;35.95835;-83.92493;810.95;NaN;;4.57;12.226105;152.4;11 / 18;14017;2022-10-24 15:44:03:753
3.1615;2.0949;6.4268;5.3785;3.2109;7.5453;-1.4545;-0.8494;-0.0275;0.6063;0.2271;-0.3553;2285.0;-23.42;-17.98;-25.69;147.48;-19.11;-35.48;2.0;987.66;59.988;35.95835;-83.92493;810.95;NaN;;4.57;12.226105;152.4;11 / 18;14517;2022-10-24 15:44:04:253
3.0559;1.9247;8.365;5.2499;1.4251;8.1595;-2.8907;0.6657;-2.2278;-0.3819;0.131;-0.438;2261.0;-23.16;-18.71;-24.99;157.35;-8.36;-32.76;2.0;987.67;57.382;35.958344;-83.92491;808.45;NaN;;4.43;12.226105;154.1;11 / 18;15015;2022-10-24 15:44:04:751
2.5463;1.3214;3.8677;4.9745;2.4955;8.0745;-0.5022;-1.8291;-0.026;0.6927;0.5538;-0.2197;2503.0;-23.81;-16.18;-27.45;135.67;-14.74;-31.64;2.0;987.64;59.69;35.958344;-83.92491;808.45;NaN;;4.43;12.226105;154.1;11 / 18;15516;2022-10-24 15:44:05:252
2.6659;1.3155;5.9064;5.46;0.9526;8.0902;-1.2497;1.015;-1.8535;-0.7271;-0.3302;-0.5908;2489.0;-22.16;-17.25;-25.61;170.51;-4.49;-36.22;2.0;987.66;56.871;35.958336;-83.924904;805.92;NaN;;4.14;12.226105;156.7;11 / 18;16016;2022-10-24 15:44:05:752
2.3533;0.5016;3.7505;5.086;3.1651;7.7643;-1.951;-3.2733;-2.605;1.6384;0.7188;-0.4177;2544.0;-21.26;-14.25;-29.21;185.72;-6.9;-37.45;2.0;987.68;57.601;35.958336;-83.924904;805.92;NaN;;4.14;12.226105;156.7;11 / 18;16516;2022-10-24 15:44:06:252
3.7636;2.3689;5.723;5.731;2.7651;7.4619;0.5395;0.9544;-1.2229;-0.9032;0.1269;-1.5681;2535.0;-19.39;-18.21;-25.29;181.09;-16.38;-37.53;2.0;987.63;59.379;35.958332;-83.92489;805.31;NaN;;4.32;12.226105;158.9;12 / 18;17015;2022-10-24 15:44:06:751
2.6515;-0.821;5.8152;4.101;-0.1;8.9074;0.6174;-2.5087;2.4085;1.1595;0.5441;1.3294;2488.0;-13.52;-14.29;-31.86;194.51;2.67;-30.27;2.0;987.63;57.126;35.958332;-83.92489;805.31;NaN;;4.32;12.226105;158.9;12 / 18;17516;2022-10-24 15:44:07:252
2.2708;0.5004;8.4535;3.4798;-0.5027;9.1547;-0.0104;0.5358;5.5529;0.0189;-0.1278;-0.5127;2479.0;-12.3;-10.99;-34.95;185.4;2.94;-20.81;2.0;987.64;58.048;35.958324;-83.92488;802.74;NaN;;4.25;12.226105;154.1;12 / 18;18015;2022-10-24 15:44:07:751
3.5623;0.4549;9.4795;3.5887;0.2031;9.1242;-0.9872;-1.4283;4.1602;0.8314;0.3917;0.2617;2465.0;-13.89;-9.98;-36.02;181.6;0.63;-21.68;2.0;987.6;56.556;35.958324;-83.92488;802.74;NaN;;4.25;12.226105;154.1;12 / 18;18515;2022-10-24 15:44:08:251
4.8123;2.8848;7.6995;3.7496;1.6015;8.9189;-0.4722;-0.5422;0.3827;-0.5414;0.167;0.0716;2391.0;-16.39;-15.52;-31.2;164.85;-9.4;-22.8;2.0;987.65;58.574;35.95832;-83.924866;802.52;NaN;;3.96;12.226105;139.7;12 / 18;19015;2022-10-24 15:44:08:751
1.8805;0.6739;10.3771;3.8612;0.5723;8.9963;-0.8565;0.6504;3.8;1.3644;-0.3399;0.6729;2311.0;-15.11;-13.8;-33.09;173.16;-7.35;-22.69;2.0;987.66;58.204;35.95832;-83.924866;802.52;NaN;;3.96;12.226105;139.7;12 / 18;19516;2022-10-24 15:44:09:252
5.4754;1.421;13.5326;4.157;1.1631;8.8055;1.2053;0.6221;2.7663;-1.303;-0.8151;0.2947;2176.0;-15.04;-16.35;-31.13;147.21;-17.2;-20.29;2.0;987.69;57.057;35.958317;-83.92485;801.22;NaN;;4.43;12.226105;156.8;12 / 18;20015;2022-10-24 15:44:09:751
2.2433;1.2389;11.7215;2.5467;1.606;9.333;-2.9754;-1.2201;0.3699;-0.6302;0.096;0.2902;2012.0;-11.76;-14.46;-34.82;163.07;-9.43;-15.26;2.0;987.68;58.96;35.958317;-83.92485;801.22;NaN;;4.43;12.226105;156.8;12 / 18;20516;2022-10-24 15:44:10:252
3.1627;3.0117;11.3228;2.8119;3.8373;8.5755;-0.5016;-0.6402;-0.4375;0.2527;-0.6528;0.1485;1903.0;-7.46;-19.59;-31.29;206.52;-23.04;-18.15;2.0;987.66;59.292;35.95831;-83.92484;796.58;NaN;;3.85;12.226105;166.9;13 / 18;21016;2022-10-24 15:44:10:752
2.3246;3.2321;12.344;2.376;3.3996;8.8864;-1.7413;-0.2243;-3.0934;-0.3771;-0.15;0.3509;1813.0;-6.99;-21.21;-30.07;186.24;-20.28;-14.97;2.0;987.65;58.856;35.95831;-83.92484;796.58;NaN;;3.85;12.226105;166.9;13 / 18;21516;2022-10-24 15:44:11:252
2.4227;0.0443;12.4875;2.939;3.1797;8.799;-1.3568;-0.2315;-4.5696;-2.0839;-0.4625;-0.4015;1650.0;-9.77;-20.92;-29.32;180.0;-19.17;-19.02;2.0;987.63;60.583;35.958305;-83.924835;794.9;NaN;;4.03;12.226105;146.3;13 / 18;22017;2022-10-24 15:44:11:753
2.3055;0.067;9.5632;4.4054;0.1044;8.7608;-2.0543;0.0142;0.6489;-0.7783;-0.1641;-0.1566;1569.0;-11.74;-15.19;-34.8;200.12;-4.58;-25.76;2.0;987.65;61.844;35.958305;-83.924835;794.9;NaN;;4.03;12.226105;146.3;13 / 18;22517;2022-10-24 15:44:12:253
0.7301;-0.8139;5.5914;3.0008;1.5889;9.2;-1.2839;-2.4358;-2.6172;-0.139;-0.4104;0.1739;1639.0;-11.47;-13.33;-35.49;183.29;-9.32;-18.07;2.0;987.6;57.362;35.958298;-83.92481;793.82;NaN;;3.96;12.226105;148.6;13 / 18;23017;2022-10-24 15:44:12:753
2.6312;-1.1085;6.3479;4.0739;-1.4703;8.7984;-1.6801;1.2192;-1.9608;-0.1302;0.1515;-0.6263;1856.0;-10.26;-10.35;-37.82;203.48;9.42;-25.06;2.0;987.63;58.583;35.958298;-83.92481;793.82;NaN;;3.96;12.226105;148.6;13 / 18;23516;2022-10-24 15:44:13:252
1.6041;-1.1575;4.2003;2.6312;-1.7044;9.292;0.7049;-1.8792;-1.7106;1.1095;0.7817;0.4835;2258.0;-7.63;1.52;-43.07;215.66;10.01;-15.81;2.0;987.59;58.237;35.958286;-83.924805;791.62;NaN;;4.0;12.226105;155.2;13 / 18;24016;2022-10-24 15:44:13:752
2.6336;-0.25;6.0332;4.6726;-1.2396;8.5323;-0.7736;1.3415;-1.0669;0.0172;0.2271;-0.2495;2404.0;-10.74;-4.54;-40.61;221.48;12.71;-31.75;2.0;987.61;61.105;35.958286;-83.924805;791.62;NaN;;4.0;12.226105;155.2;13 / 18;24516;2022-10-24 15:44:14:252
1.6496;-0.0909;3.7696;6.4447;1.5536;7.2265;-1.5914;-0.0401;3.9487;1.7001;0.629;-0.5342;2190.0;-19.44;-14.47;-32.08;221.54;-9.12;-41.73;2.0;987.59;57.583;35.95828;-83.9248;789.3;NaN;;3.96;12.226105;157.5;13 / 18;25015;2022-10-24 15:44:14:751
3.7181;2.2026;4.6445;6.659;1.531;7.0345;0.7547;1.4876;0.7542;0.0507;0.0772;-0.2564;2034.0;-21.62;-21.9;-23.61;176.75;-12.14;-41.04;2.0;987.57;59.943;35.95828;-83.9248;789.3;NaN;;3.96;12.226105;157.5;13 / 18;25516;2022-10-24 15:44:15:252
3.8354;0.4944;5.3342;5.9733;2.7913;7.2594;-1.066;-2.13;-0.4805;1.4182;0.7823;-0.4341;1830.0;-26.49;-18.13;-26.31;171.96;-6.15;-41.93;2.0;987.61;62.328;35.95827;-83.92479;786.04;NaN;;3.92;12.226105;157.8;13 / 18;26015;2022-10-24 15:44:15:751
3.1543;1.756;4.2652;6.5656;0.5964;7.26;1.4592;1.6179;2.0543;-0.8751;0.1978;-0.8624;1789.0;-25.05;-20.04;-24.09;172.21;-3.49;-42.12;2.0;987.63;56.475;35.95827;-83.92479;786.04;NaN;;3.92;12.226105;157.8;13 / 18;26517;2022-10-24 15:44:16:253
3.0176;0.2946;4.459;5.9317;1.9153;7.5708;-0.8031;-1.5064;-0.108;1.0596;0.3655;-0.3073;1393.0;-23.31;-15.13;-30.79;188.05;-11.26;-38.08;2.0;987.61;60.921;35.958267;-83.92478;783.66;NaN;;4.0;12.226105;149.2;13 / 18;27016;2022-10-24 15:44:16:752
3.5085;1.6998;4.3442;6.5664;0.6044;7.2586;0.1678;0.575;2.304;0.3674;0.1569;-0.2714;1350.0;-21.96;-18.49;-27.75;188.9;-3.53;-42.13;2.0;987.57;58.323;35.958267;-83.92478;783.66;NaN;;4.0;12.226105;149.2;13 / 18;27516;2022-10-24 15:44:17:252
4.5619;0.3987;6.5396;6.3927;2.087;7.1378;0.0851;-1.0337;0.6249;0.9761;0.626;-0.5659;1029.0;-25.8;-14.79;-28.13;180.93;-2.6;-43.2;2.0;987.61;60.394;35.95826;-83.924774;782.27;NaN;;4.0;12.226105;155.5;13 / 18;28016;2022-10-24 15:44:17:752
3.4487;1.0116;6.0392;6.5782;0.5888;7.2492;-1.3516;1.3049;-1.1816;-0.4503;0.0188;-0.8563;1018.0;-25.2;-17.18;-25.48;173.11;-1.12;-41.81;2.0;987.59;59.224;35.95826;-83.924774;782.27;NaN;;4.0;12.226105;155.5;13 / 18;28516;2022-10-24 15:44:18:252
4.1034;0.3437;5.8594;6.4447;1.3828;7.2611;1.1151;-0.511;2.5676;0.866;0.8214;-0.5864;991.0;-24.69;-13.2;-30.36;189.38;-8.11;-41.59;2.0;987.59;60.414;35.958252;-83.92477;780.06;NaN;;4.1;12.226105;147.8;14 / 18;29017;2022-10-24 15:44:18:753
5.292;1.8685;5.3569;6.1837;1.2474;7.5084;0.5311;1.0539;-1.0567;0.7446;-0.1706;-0.0025;1109.0;-23.74;-14.74;-29.91;179.88;-3.92;-38.62;2.0;987.57;57.965;35.958252;-83.92477;780.06;NaN;;4.1;12.226105;147.8;14 / 18;29516;2022-10-24 15:44:19:252
4.4483;0.7361;7.9208;5.8463;0.628;7.8484;0.63;0.2921;5.7836;0.8302;-0.357;0.1135;1068.0;-26.14;-10.76;-32.72;172.19;-3.67;-36.68;2.0;987.55;58.963;35.958244;-83.92477;778.71;NaN;;4.1;12.226105;154.8;14 / 18;30015;2022-10-24 15:44:19:751
7.1656;2.685;6.7705;5.9421;0.3909;7.7916;0.6418;0.8651;4.3709;0.1069;0.0501;-0.4779;1003.0;-28.69;-12.62;-32.62;155.1;-10.04;-38.19;2.0;987.54;59.932;35.958244;-83.92477;778.71;NaN;;4.1;12.226105;154.8;14 / 18;30516;2022-10-24 15:44:20:252
6.9799;0.9123;9.9093;5.8415;0.4932;7.8615;-0.6683;0.7255;2.0566;0.2384;0.3651;0.3551;968.0;-30.66;-8.62;-40.14;170.96;-2.88;-36.61;2.0;987.57;58.941;35.958233;-83.92476;779.68;NaN;;4.1;12.226105;162.0;14 / 18;31016;2022-10-24 15:44:20:752
7.7103;1.3729;13.1231;5.4499;1.6839;7.9771;-0.5305;-0.5954;0.3334;-0.8468;-0.3124;0.0476;1020.0;-29.61;-12.13;-42.22;61.61;-14.69;-32.53;2.0;987.57;60.842;35.958233;-83.92476;779.68;NaN;;4.1;12.226105;162.0;14 / 18;31516;2022-10-24 15:44:21:252
5.8822;2.0626;9.8061;5.6128;1.0625;7.9711;-0.4583;0.7102;2.1192;0.2103;0.108;0.4048;1049.0;-30.47;-11.92;-41.94;182.94;-7.52;-35.83;2.0;987.57;61.973;35.958225;-83.92475;779.96;NaN;;4.14;12.226105;153.4;14 / 18;32016;2022-10-24 15:44:21:752
4.6947;1.1659;9.1406;4.987;2.7868;7.9708;-2.1207;-1.247;-2.2873;-0.6186;-0.3621;0.1171;1029.0;-28.29;-14.19;-36.77;94.02;-16.51;-32.03;2.0;987.6;57.854;35.958225;-83.92475;779.96;NaN;;4.14;12.226105;153.4;14 / 18;32517;2022-10-24 15:44:22:253
5.6453;1.9475;10.8882;5.3713;1.0956;8.1314;-1.9972;0.5747;1.5459;-0.3613;0.0818;0.192;1022.0;-27.71;-10.42;-35.51;144.06;-6.41;-33.45;2.0;987.6;63.151;35.958218;-83.92475;780.83;NaN;;4.07;12.226105;148.3;14 / 18;33017;2022-10-24 15:44:22:753
6.0619;1.2114;10.072;5.1318;2.9048;7.8356;-2.1384;-1.4213;-2.9404;-0.7765;-0.1227;-0.0731;999.0;-28.93;-8.87;-36.64;37.07;-17.23;-33.22;2.0;987.59;58.243;35.958218;-83.92475;780.83;NaN;;4.07;12.226105;148.3;14 / 18;33516;2022-10-24 15:44:23:252
3.6305;1.3705;10.1175;5.4707;1.1245;8.0608;-2.1514;-0.1864;-0.7641;-0.2763;0.117;0.3585;942.0;-29.01;-8.46;-38.48;114.1;-8.74;-35.62;2.0;987.59;59.141;35.958202;-83.924736;780.1;NaN;;4.03;12.226105;144.5;14 / 18;34015;2022-10-24 15:44:23:751
5.1855;1.0726;10.2371;4.7865;3.0616;7.9929;-2.0443;-1.4814;-2.0075;0.2127;-0.0362;-0.4162;915.0;-29.01;-9.28;-36.3;59.7;-15.06;-31.98;2.0;987.57;59.657;35.958202;-83.924736;780.1;NaN;;4.03;12.226105;144.5;14 / 18;34516;2022-10-24 15:44:24:252
2.8872;1.3705;7.0926;5.2049;1.6921;8.1374;-2.4763;-0.4036;-1.8005;-0.7059;-0.0938;0.053;941.0;-28.11;-12.83;-32.79;132.95;-9.94;-32.6;2.0;987.53;59.204;35.958195;-83.924736;780.69;NaN;;4.0;12.409465;149.4;13 / 18;35016;2022-10-24 15:44:24:752
3.8091;1.7776;8.0094;4.635;2.571;8.2509;-2.4964;-1.369;-2.5653;0.5004;0.413;-0.1756;995.0;-27.47;-11.76;-32.87;121.3;-11.58;-32.06;2.0;987.56;59.536;35.958195;-83.924736;780.69;NaN;;4.0;12.409465;149.4;13 / 18;35516;2022-10-24 15:44:25:252
3.2608;1.1587;8.9683;5.3921;0.9396;8.1371;-1.3476;0.1632;-0.9082;-0.2149;0.0772;-0.4451;1004.0;-26.92;-12.13;-31.46;146.2;-5.5;-33.53;2.0;987.53;60.145;35.958183;-83.92473;780.2;NaN;;4.03;12.226105;143.7;13 / 18;36015;2022-10-24 15:44:25:751
1.398;1.1623;7.2398;3.3805;1.6375;9.0588;-1.0028;-1.2498;-1.0963;0.6725;0.1405;0.2045;1059.0;-22.97;-10.72;-34.54;133.49;-6.84;-24.64;2.0;987.52;61.373;35.958183;-83.92473;780.2;NaN;;4.03;12.226105;143.7;13 / 18;36516;2022-10-24 15:44:26:252
2.4215;1.7237;8.6581;4.0842;1.7581;8.7406;-0.0126;-0.2249;-1.1316;-0.4568;0.0324;-0.5627;1508.0;-21.0;-13.48;-32.98;139.1;-10.33;-25.05;2.0;987.53;59.303;35.95817;-83.92472;780.68;NaN;;4.25;12.226105;162.3;13 / 18;37016;2022-10-24 15:44:26:752
2.1751;1.3789;5.0623;4.0624;2.5443;8.5553;-0.8796;-1.4527;-0.46;0.6274;0.1629;-0.1529;1475.0;-21.45;-12.84;-33.43;146.39;-8.3;-25.39;2.0;987.5;59.742;35.95817;-83.92472;780.68;NaN;;4.25;12.226105;162.3;13 / 18;37516;2022-10-24 15:44:27:252
1.8374;1.7273;7.0531;4.1551;1.6487;8.7285;-2.2942;0.2571;-3.0234;-0.5078;0.2701;-0.5822;1351.0;-23.04;-15.77;-30.81;144.89;-10.58;-27.43;2.0;987.53;60.097;35.95816;-83.92472;782.41;NaN;;4.07;12.763442;155.5;11 / 18;38016;2022-10-24 15:44:27:752
1.392;0.3485;6.2713;3.5876;2.062;8.8909;-0.2114;-1.4896;0.4972;0.9751;0.3147;-0.1434;1436.0;-24.22;-13.29;-35.36;113.57;-12.14;-21.97;2.0;987.52;60.08;35.95816;-83.92472;782.41;NaN;;4.07;12.763442;155.5;11 / 18;38516;2022-10-24 15:44:28:252
1.628;1.9068;7.0531;3.8157;1.3778;8.9282;-0.9963;0.7452;-1.7327;0.5046;-0.2566;-0.1256;1562.0;-25.22;-17.44;-32.21;137.38;-8.08;-23.14;2.0;987.53;59.028;35.958153;-83.92471;781.85;NaN;;4.1;13.060007;153.2;11 / 18;39017;2022-10-24 15:44:28:753
2.2684;1.337;7.9053;4.3215;2.2947;8.4988;-1.2759;-1.064;-0.5413;0.6587;0.0335;0.0292;1538.0;-25.39;-17.14;-30.58;131.99;-13.53;-26.95;2.0;987.5;58.27;35.958153;-83.92471;781.85;NaN;;4.1;13.060007;153.2;11 / 18;39516;2022-10-24 15:44:29:252
3.0667;2.1033;7.2075;4.6216;1.7463;8.4712;0.2578;0.7862;-1.6009;-0.5792;0.0128;-0.2476;1309.0;-26.87;-21.58;-23.66;142.63;-7.58;-26.81;2.0;987.49;59.551;35.958138;-83.92471;782.0;NaN;;4.14;13.351688;155.5;11 / 18;40015;2022-10-24 15:44:29:751
1.0403;0.6703;4.8589;3.923;2.7507;8.5565;-1.032;-2.0192;-0.8024;0.7812;0.4606;-0.4108;1280.0;-23.85;-19.43;-26.51;143.62;-9.27;-26.09;2.0;987.5;58.847;35.958138;-83.92471;782.0;NaN;;4.14;13.351688;155.5;11 / 18;40516;2022-10-24 15:44:30:252
2.8992;1.9741;5.7039;4.5921;1.1904;8.5829;0.2136;1.1412;0.1704;-0.3046;0.2473;-0.8164;1310.0;-19.58;-19.22;-25.37;158.77;-6.97;-28.15;2.0;987.51;60.386;35.95813;-83.924706;781.82;NaN;;4.25;13.634537;143.7;11 / 18;41017;2022-10-24 15:44:30:753
0.2118;1.6101;10.8105;4.3079;1.7107;8.6421;-1.3665;0.5611;0.3736;0.9343;-0.4755;0.8729;1366.0;-18.51;-15.06;-29.17;155.54;-4.72;-24.07;2.0;987.48;58.178;35.95813;-83.924706;781.82;NaN;;4.25;13.634537;143.7;11 / 18;41516;2022-10-24 15:44:31:252
0.3508;2.6001;6.7214;3.0583;2.8684;8.8651;-0.7685;-0.786;0.5808;-0.2931;-0.0102;-0.4462;1653.0;-17.85;-17.94;-26.34;134.22;-17.01;-19.03;2.0;987.52;59.541;35.958115;-83.9247;782.67;NaN;;4.25;13.997869;151.7;11 / 18;42016;2022-10-24 15:44:31:752
1.7644;1.2329;7.9627;1.9555;1.2033;9.5341;-2.155;-1.6595;2.909;0.5518;0.006;0.5514;2002.0;-13.67;-17.53;-28.88;150.18;-10.6;-13.54;2.0;987.52;59.238;35.958115;-83.9247;782.67;NaN;;4.25;13.997869;151.7;11 / 18;42516;2022-10-24 15:44:32:252
2.7341;0.8186;7.4157;3.1774;0.6499;9.2548;0.764;0.9764;2.6439;0.368;-0.2753;-0.3698;2085.0;-15.88;-14.55;-27.79;154.85;-3.8;-18.95;2.0;987.52;59.541;35.958103;-83.9247;780.67;NaN;;4.93;14.290664;154.2;11 / 18;43015;2022-10-24 15:44:32:751
3.5133;0.9194;10.2096;2.9021;0.2082;9.3651;-0.1872;0.3669;4.5796;1.0013;-0.2705;0.5724;1871.0;-12.04;-13.05;-25.29;160.72;-4.74;-17.89;2.0;987.52;59.27;35.958103;-83.9247;780.67;NaN;;4.93;14.290664;154.2;11 / 18;43515;2022-10-24 15:44:33:251
1.5275;0.4896;11.1984;2.9108;0.8463;9.3264;-0.1825;-0.0973;3.6076;-1.1594;-0.474;-0.1274;1943.0;-8.21;-8.01;-19.84;144.96;-11.26;-14.93;2.0;987.48;58.118;35.958084;-83.92469;779.98;NaN;;6.23;14.226254;148.9;11 / 18;44015;2022-10-24 15:44:33:751
1.4031;-1.2365;15.242;2.9761;0.2335;9.3412;-1.3526;0.3409;3.1233;1.1201;0.0178;0.5944;1980.0;-12.38;1.65;-23.01;59.64;-1.36;-17.67;2.0;987.47;59.717;35.958084;-83.92469;779.98;NaN;;6.23;14.226254;148.9;11 / 18;44515;2022-10-24 15:44:34:251
3.9263;0.8788;13.4871;3.2729;0.6887;9.2187;0.0935;-0.1292;3.3996;-0.9584;-0.6403;0.14;1979.0;-22.93;1.33;-31.2;72.38;-4.03;-19.55;2.0;987.5;60.685;35.95807;-83.92469;782.36;NaN;;6.44;14.487883;150.3;11 / 18;45016;2022-10-24 15:44:34:752
0.0407;-1.2556;7.9065;1.3505;-0.9914;9.6625;-2.6546;-0.6831;2.3247;0.0292;-0.0159;0.3505;1869.0;-26.36;-0.04;-36.86;101.16;5.8;-7.96;2.0;987.43;60.678;35.95807;-83.92469;782.36;NaN;;6.44;14.487883;150.3;11 / 18;45516;2022-10-24 15:44:35:252
-0.0873;-0.8824;9.6386;2.1626;0.7346;9.537;-0.6864;-1.5127;1.4846;0.2895;-0.1889;-0.0266;2826.0;-18.94;-7.07;-43.29;92.54;-8.09;-8.54;2.0;987.47;62.336;35.958054;-83.92468;781.17;NaN;;5.26;14.946981;143.4;11 / 18;46016;2022-10-24 15:44:35:752
-1.6675;-4.5882;16.8377;1.3204;-1.3128;9.6283;-2.4983;-3.0841;6.6387;-0.1458;0.1051;0.3791;2718.0;-15.83;-5.49;-47.77;142.44;7.87;-8.13;2.0;987.5;59.137;35.958054;-83.92468;781.17;NaN;;5.26;14.946981;143.4;11 / 18;46515;2022-10-24 15:44:36:251
2.0064;-2.3557;15.8525;2.0197;-0.1836;9.5947;0.0808;-0.3543;1.017;-0.5877;-0.3341;-0.7418;2968.0;-12.54;-9.37;-51.66;168.64;1.07;-11.89;2.0;987.51;59.678;35.95804;-83.92468;783.72;NaN;;4.03;15.425687;152.5;11 / 18;47016;2022-10-24 15:44:36:752
1.5598;0.1783;14.9321;2.7105;0.938;9.3778;-1.6056;0.1351;1.9614;-0.2307;-0.5446;0.1642;2713.0;-14.16;-10.18;-51.58;142.14;-7.59;-12.75;2.0;987.47;61.105;35.95804;-83.92468;783.72;NaN;;4.03;15.425687;152.5;11 / 18;47516;2022-10-24 15:44:37:252
1.421;-0.6105;11.4185;2.4626;2.5778;9.1357;-0.8529;-0.2127;-0.8721;-1.0778;0.205;-0.2573;2315.0;-13.03;-17.55;-42.84;166.26;-15.24;-15.09;2.0;987.48;61.245;35.958027;-83.92469;779.0;NaN;;4.14;14.941231;164.0;12 / 18;48017;2022-10-24 15:44:37:753
-0.4322;0.5327;14.726;1.1234;-0.1482;9.741;-2.3943;0.3334;3.8715;0.3449;0.3457;0.5026;2521.0;-7.69;-9.9;-42.96;163.63;-1.48;-7.13;2.0;987.48;60.894;35.958027;-83.92469;779.0;NaN;;4.14;14.941231;164.0;12 / 18;48516;2022-10-24 15:44:38:252
0.5841;0.0227;12.1358;1.1474;2.3686;9.4469;-1.1996;-1.3035;-4.2881;-1.2275;-0.182;-0.7052;3013.0;-9.24;-10.69;-40.54;98.29;-13.98;-6.93;2.0;987.42;60.993;35.958015;-83.92469;779.67;NaN;;4.14;14.693351;154.9;12 / 18;49017;2022-10-24 15:44:38:753
-0.4286;0.7612;13.917;2.3801;0.8228;9.4778;-2.0614;0.1662;-0.3175;0.4583;-0.5678;0.8394;3008.0;-10.42;-8.03;-41.87;141.25;-4.65;-8.61;2.0;987.39;60.726;35.958015;-83.92469;779.67;NaN;;4.14;14.693351;154.9;12 / 18;49516;2022-10-24 15:44:39:252
0.3688;1.8673;6.8303;1.7353;4.3201;8.6311;-0.5285;-2.0861;-1.9063;-0.2068;0.1025;-0.3821;2300.0;-16.63;-17.46;-34.41;80.92;-26.57;-13.58;2.0;987.38;61.975;35.958004;-83.92469;780.5;NaN;;4.18;14.390329;153.2;12 / 18;50016;2022-10-24 15:44:39:752
-0.0395;2.0088;11.8352;2.2012;1.7527;9.3943;-4.0474;0.391;-2.5463;-0.5224;0.3071;0.428;2145.0;-14.16;-17.62;-33.41;151.83;-10.3;-13.19;2.0;987.44;61.541;35.958004;-83.92469;780.5;NaN;;4.18;14.390329;153.2;12 / 18;50516;2022-10-24 15:44:40:252
1.0439;2.2098;7.4408;1.6054;4.7077;8.4516;-0.9647;-2.818;-3.4502;0.9741;0.0485;-0.2367;2482.0;-11.55;-15.43;-32.44;62.65;-28.69;-10.76;2.0;987.39;61.834;35.957993;-83.92468;780.69;NaN;;4.1;14.016501;150.0;13 / 18;51016;2022-10-24 15:44:40:752
1.8194;2.8071;12.9245;2.9945;1.846;9.154;-2.5708;1.0035;-2.3686;-0.4654;-0.5751;0.2915;2335.0;-10.8;-16.28;-27.81;170.14;-10.85;-18.11;2.0;987.41;61.547;35.957993;-83.92468;780.69;NaN;;4.1;14.016501;150.0;13 / 18;51515;2022-10-24 15:44:41:251
-1.9271;1.1372;1.896;-2.2754;3.8096;8.7453;-0.5702;-3.9406;-5.9858;-0.9661;-0.5126;-0.077;2065.0;-10.01;-11.16;-29.19;117.04;-16.94;-13.03;2.0;987.38;59.476;35.95798;-83.92468;780.42;NaN;;4.14;13.856548;142.3;13 / 18;52015;2022-10-24 15:44:41:751
-4.5787;2.1667;11.9405;-1.066;1.6784;9.603;-3.0044;0.7448;1.1009;-0.4995;0.056;-0.6519;3956.0;-2.46;-10.72;-29.55;132.07;-12.98;4.75;2.0;987.4;61.277;35.95798;-83.92468;780.42;NaN;;4.14;13.856548;142.3;13 / 18;52516;2022-10-24 15:44:42:252
-2.211;1.8936;9.5237;-1.3842;4.2163;8.7451;-0.5028;-2.8237;-3.8215;-0.9721;-0.2682;-0.3985;3979.0;-5.46;-13.39;-28.14;91.13;-25.46;8.99;2.0;987.36;61.232;35.95797;-83.924675;779.47;NaN;;4.21;13.76165;152.7;13 / 18;53015;2022-10-24 15:44:42:751
-3.3697;2.01;10.7626;-0.284;2.1622;9.5611;-1.5935;0.3006;-1.881;-0.1446;-0.1683;-0.495;7183.0;-6.26;-13.93;-28.33;138.39;-13.32;0.8;2.0;987.33;60.799;35.95797;-83.924675;779.47;NaN;;4.21;13.76165;152.7;13 / 18;53515;2022-10-24 15:44:43:251
-1.0415;2.3653;8.1365;-0.7258;3.6888;9.0574;-0.1356;-2.1524;-2.7348;-0.2353;-0.0304;-0.0424;4355.0;-7.73;-16.5;-31.42;108.23;-22.1;4.58;2.0;987.37;60.601;35.95796;-83.924675;781.66;NaN;;4.1;13.931668;150.3;13 / 18;54016;2022-10-24 15:44:43:752
-2.4323;3.0945;10.8021;-0.2166;2.8768;9.3727;-1.2387;0.907;-4.4164;-0.4936;-0.358;-0.2429;4246.0;-9.66;-19.2;-31.86;142.16;-13.34;-2.58;2.0;987.41;61.317;35.95796;-83.924675;781.66;NaN;;4.1;13.931668;150.3;13 / 18;54516;2022-10-24 15:44:44:252
1.1228;1.5826;11.8125;-0.0843;3.6827;9.0885;-0.8412;-2.1803;-3.6547;-0.1672;-0.1625;-0.0058;4124.0;-9.17;-23.92;-29.12;140.85;-22.06;0.53;2.0;987.39;60.542;35.957947;-83.92467;783.22;NaN;;4.25;13.683596;154.7;13 / 18;55016;2022-10-24 15:44:44:752
-1.6328;0.8453;10.5401;1.3387;1.4996;9.5984;-2.1633;-0.3093;-4.094;-0.4517;0.0403;-0.073;4023.0;-12.67;-22.12;-29.4;157.83;-7.05;-10.77;2.0;987.44;60.199;35.957947;-83.92467;783.22;NaN;;4.25;13.683596;154.7;13 / 18;55516;2022-10-24 15:44:45:252
-0.0598;1.1085;7.8838;1.3409;2.6226;9.3538;-1.5995;-1.7655;-2.073;0.1303;-0.3412;0.244;3919.0;-12.77;-20.4;-32.29;139.88;-14.23;-6.23;2.0;987.36;61.853;35.957935;-83.92466;785.82;NaN;;4.36;13.152341;156.6;14 / 18;56016;2022-10-24 15:44:45:752
0.5722;1.2293;8.6856;2.2561;1.0316;9.4877;-1.2639;0.3335;-4.5744;-0.2516;-0.0548;-0.0386;3563.0;-18.41;-20.04;-33.36;148.43;-6.04;-13.38;2.0;987.39;68.49;35.957935;-83.92466;785.82;NaN;;4.36;13.152341;156.6;14 / 18;56515;2022-10-24 15:44:46:251
0.498;1.3896;8.5062;1.5187;2.7491;9.2901;-1.9564;-2.1732;-4.2996;0.6008;0.2963;-0.0447;3668.0;-17.85;-22.93;-31.91;134.56;-16.28;-9.28;2.0;987.32;64.47;35.957924;-83.92464;789.08;NaN;;4.5;12.668943;158.9;13 / 18;57016;2022-10-24 15:44:46:752
0.1436;0.5064;12.5306;2.3634;0.9651;9.4686;-0.4276;0.3821;-2.505;-0.3748;-0.0841;-0.3341;3220.0;-18.68;-22.84;-31.07;150.7;-5.65;-14.01;2.0;987.39;63.225;35.957924;-83.92464;789.08;NaN;;4.5;12.668943;158.9;13 / 18;57516;2022-10-24 15:44:47:252
0.4119;1.2927;6.4161;1.5918;2.6804;9.2979;-1.3388;-2.1674;-3.2986;-0.496;-0.449;-0.2523;3242.0;-17.83;-21.94;-30.73;147.03;-9.65;-13.38;2.0;987.31;58.332;35.957916;-83.92462;793.43;NaN;;4.46;12.45546;145.8;13 / 18;58016;2022-10-24 15:44:47:752
0.7301;1.1731;12.2997;3.0109;1.2595;9.2476;-1.1116;1.522;0.9429;-0.2211;-0.5855;-0.5037;2855.0;-16.41;-21.86;-28.44;156.59;-6.43;-15.47;2.0;987.34;60.739;35.957916;-83.92462;793.43;NaN;;4.46;12.45546;145.8;13 / 18;58517;2022-10-24 15:44:48:253
0.9601;3.3769;7.3965;1.8413;3.3194;9.0422;-0.9544;-1.4335;-1.6217;0.3217;0.0192;0.3868;2988.0;-12.66;-24.47;-24.38;149.96;-19.78;-11.51;2.0;987.33;59.285;35.957905;-83.924614;798.04;NaN;;4.75;12.226105;151.1;12 / 18;59016;2022-10-24 15:44:48:752
2.0351;2.4024;10.2335;3.3336;2.3147;8.9275;-1.6219;0.179;-2.3116;0.0631;-0.7591;-0.3175;2694.0;-15.38;-22.24;-25.22;155.27;-12.21;-16.77;2.0;987.31;60.335;35.957905;-83.924614;798.04;NaN;;4.75;12.226105;151.1;12 / 18;59515;2022-10-24 15:44:49:251
1.1121;1.2449;6.0727;3.1736;1.9652;9.0685;-0.2945;-1.0996;1.3914;0.6376;0.0929;-0.2524;2564.0;-17.81;-19.63;-27.6;149.43;-11.56;-19.29;2.0;987.3;59.797;35.957897;-83.9246;792.7;NaN;;4.36;12.226105;144.1;12 / 18;60015;2022-10-24 15:44:49:751
0.9159;2.0925;8.4464;3.2417;2.172;8.9969;-0.3175;0.496;-2.3149;-0.2015;0.1037;0.0521;2639.0;-16.86;-20.44;-28.03;155.63;-8.96;-19.48;2.0;987.32;61.787;35.957897;-83.9246;792.7;NaN;;4.36;12.226105;144.1;12 / 18;60516;2022-10-24 15:44:50:252
0.7588;2.0997;6.1122;3.1799;2.5461;8.9205;-0.6906;-0.7936;0.107;0.3856;0.3007;-0.0764;3056.0;-18.13;-19.99;-30.39;146.53;-15.05;-19.62;2.0;987.32;61.469;35.95789;-83.92459;792.82;NaN;;4.54;12.226105;153.9;12 / 18;61016;2022-10-24 15:44:50:752
0.6571;2.2457;7.2326;3.1664;2.5069;8.9364;-0.477;0.528;-1.7365;-0.0473;-0.1122;-0.0725;3369.0;-18.83;-22.39;-29.42;148.49;-13.51;-19.39;2.0;987.3;62.402;35.95789;-83.92459;792.82;NaN;;4.54;12.226105;153.9;12 / 18;61516;2022-10-24 15:44:51:252
1.2915;1.4689;6.6844;2.6266;2.9994;8.9596;-1.1472;-1.5304;-1.8311;1.403;0.2315;0.4194;3786.0;-18.81;-20.79;-33.02;148.1;-9.27;-15.96;2.0;987.29;60.281;35.95788;-83.92458;794.1;NaN;;4.32;12.226105;154.7;12 / 18;62017;2022-10-24 15:44:51:753
1.3011;2.3222;7.8503;3.2289;2.2849;8.9735;-0.5654;-0.1775;1.847;-0.2844;0.045;-0.4001;3855.0;-21.73;-23.03;-30.62;143.59;-13.47;-19.79;2.0;987.33;60.717;35.95788;-83.92458;794.1;NaN;;4.32;12.226105;154.7;12 / 18;62517;2022-10-24 15:44:52:253
1.7572;1.8254;7.5138;3.3136;2.6145;8.8518;-0.1627;-0.4818;0.0033;0.9922;-0.2654;0.2478;3386.0;-22.29;-21.79;-32.91;140.37;-15.46;-20.52;2.0;987.29;62.006;35.95787;-83.924576;791.74;NaN;;3.89;12.226105;147.5;12 / 18;63015;2022-10-24 15:44:52:751
2.1619;2.0686;8.2119;3.4509;2.1256;8.9299;0.4999;-0.3696;3.9712;0.2134;-0.1704;-0.235;3310.0;-22.22;-24.21;-30.38;148.18;-12.52;-21.13;2.0;987.31;61.682;35.95787;-83.924576;791.74;NaN;;3.89;12.226105;147.5;12 / 18;63516;2022-10-24 15:44:53:252
3.3147;2.2074;8.7912;3.4609;2.0746;8.9381;-1.0848;-0.8879;5.3952;0.5585;0.09;0.0308;2774.0;-20.16;-23.62;-31.11;152.28;-14.16;-20.96;2.0;987.33;62.561;35.957863;-83.92457;791.47;NaN;;3.74;12.226105;151.1;12 / 18;64016;2022-10-24 15:44:53:752
4.4985;2.618;8.9061;3.9554;2.1949;8.701;-0.0911;-0.5875;2.9099;-0.4335;0.1068;-0.3199;2572.0;-21.3;-24.77;-26.74;150.97;-16.38;-24.16;2.0;987.32;61.165;35.957863;-83.92457;791.47;NaN;;3.74;12.226105;151.1;12 / 18;64516;2022-10-24 15:44:54:252
4.0101;1.8517;10.3723;3.8777;1.8858;8.8078;-1.0232;0.9388;1.5989;0.8571;-0.141;0.713;2135.0;-19.69;-21.17;-28.93;154.62;-11.09;-23.76;2.0;987.37;61.587;35.957855;-83.92456;792.42;NaN;;4.1;12.226105;152.8;12 / 18;65016;2022-10-24 15:44:54:752
3.4642;2.4538;9.0329;3.907;2.7464;8.5652;0.4767;0.4496;1.0044;-0.3012;-0.3847;-0.0337;2143.0;-21.64;-21.9;-27.53;137.21;-18.64;-23.33;2.0;987.35;61.932;35.957855;-83.92456;792.42;NaN;;4.1;12.226105;152.8;12 / 18;65516;2022-10-24 15:44:55:252
1.7524;2.9818;8.4069;3.2449;2.6954;8.853;-1.7672;0.7865;0.6889;-0.3803;0.3428;0.3228;2242.0;-20.61;-22.72;-27.64;142.0;-15.95;-20.13;2.0;987.34;60.612;35.957848;-83.924545;796.2;NaN;;4.72;12.226105;141.1;12 / 18;66016;2022-10-24 15:44:55:752
3.2955;-0.2297;16.9789;2.9419;2.0352;9.1309;-0.9629;-0.232;1.0758;0.1542;-0.2169;0.0305;2673.0;-20.91;-20.92;-30.11;129.01;-18.27;-17.32;2.0;987.36;60.261;35.957848;-83.924545;796.2;NaN;;4.72;12.226105;141.1;12 / 18;66516;2022-10-24 15:44:56:252
0.7672;-0.2465;12.9808;2.8659;1.5447;9.2505;-2.8696;-0.2002;1.2493;-0.5756;-0.1088;0.3731;3090.0;-20.38;-17.93;-34.73;142.93;-9.06;-17.21;2.0;987.37;60.689;35.95784;-83.92454;798.96;NaN;;4.36;12.226105;147.9;12 / 18;67016;2022-10-24 15:44:56:752
5.2573;-0.1711;18.3461;3.1375;2.5808;8.9256;-0.9762;-0.9627;-0.4704;-1.3126;-0.3078;-0.25;3528.0;-22.52;-20.31;-32.61;119.03;-19.12;-18.61;2.0;987.33;61.419;35.95784;-83.92454;798.96;NaN;;4.36;12.226105;147.9;12 / 18;67515;2022-10-24 15:44:57:251
3.2201;2.7485;11.1123;3.508;1.6975;8.9991;-1.4682;0.9322;1.4939;0.3453;-0.0526;0.3312;3459.0;-23.14;-20.92;-33.94;145.73;-10.71;-21.43;2.0;987.32;61.478;35.95783;-83.92452;801.61;NaN;;4.39;12.226105;151.2;12 / 18;68016;2022-10-24 15:44:57:752
3.4893;3.6018;9.4723;3.2698;3.0443;8.7299;-0.965;-0.7271;-1.0809;-0.9957;-0.6392;-0.146;3769.0;-20.79;-24.86;-28.82;143.96;-18.09;-20.53;2.0;987.37;61.66;35.95783;-83.92452;801.61;NaN;;4.39;12.226105;151.2;12 / 18;68515;2022-10-24 15:44:58:251
1.6244;1.2305;14.3145;3.2487;2.6876;8.854;-1.9606;-0.0866;1.3136;0.1771;0.3388;0.04;3402.0;-15.94;-25.24;-26.96;159.85;-15.91;-20.15;2.0;987.33;62.81;35.957817;-83.924515;805.71;NaN;;4.68;12.226105;152.6;13 / 18;69016;2022-10-24 15:44:58:752
2.8143;2.211;10.2694;1.8902;3.2947;9.0412;-0.6118;-1.213;-2.5988;-0.5137;-0.4836;-0.1339;3955.0;-12.56;-23.85;-25.22;150.58;-19.63;-11.81;2.0;987.38;60.109;35.957817;-83.924515;805.71;NaN;;4.68;12.226105;152.6;13 / 18;69516;2022-10-24 15:44:59:252
2.1846;3.4905;9.5369;2.8972;2.5454;9.0165;-1.7686;0.282;0.7854;-0.1585;0.0877;0.177;3243.0;-12.32;-19.95;-25.05;161.81;-13.8;-16.86;2.0;987.33;60.684;35.95781;-83.9245;808.89;NaN;;4.54;12.226105;153.9;13 / 18;70015;2022-10-24 15:44:59:751
1.6914;2.4957;8.0991;2.779;2.7995;8.9783;-1.0522;-0.2652;-0.8498;-0.0864;-0.2721;-0.1184;3115.0;-14.46;-18.96;-27.6;147.73;-16.77;-15.73;2.0;987.34;61.696;35.95781;-83.9245;808.89;NaN;;4.54;12.226105;153.9;13 / 18;70516;2022-10-24 15:45:00:252
0.8019;1.841;10.2395;3.1284;1.652;9.1463;-2.3427;0.3499;-1.2644;-0.1428;0.1555;0.0515;2380.0;-15.43;-17.38;-32.93;161.79;-9.7;-18.88;2.0;987.32;60.419;35.957794;-83.924484;808.33;NaN;;4.39;12.226105;162.8;13 / 18;71016;2022-10-24 15:45:00:752
1.4641;1.8266;6.2306;2.4503;3.8765;8.6683;-0.7617;-2.1352;-2.8447;0.6383;0.2363;0.1025;2365.0;-15.69;-18.71;-33.82;137.7;-18.8;-16.84;2.0;987.33;60.392;35.957794;-83.924484;808.33;NaN;;4.39;12.226105;162.8;13 / 18;71516;2022-10-24 15:45:01:252
0.7935;2.1165;7.8778;3.5284;2.1166;8.9017;-1.7302;0.0454;-0.9053;-0.2282;-0.0367;-0.3547;1786.0;-18.77;-22.78;-30.41;156.12;-12.46;-21.62;2.0;987.33;61.212;35.957783;-83.92448;807.7;NaN;;4.46;12.226105;148.0;13 / 18;72017;2022-10-24 15:45:01:753
0.3341;1.4462;5.9782;2.3326;3.297;8.9364;-1.4526;-1.867;-2.2099;0.2498;-0.2367;0.2067;1603.0;-15.73;-23.64;-30.82;160.78;-14.3;-18.83;2.0;987.31;62.376;35.957783;-83.92448;807.7;NaN;;4.46;12.226105;148.0;13 / 18;72515;2022-10-24 15:45:02:251
1.057;2.0171;6.5133;3.3427;2.5987;8.8455;0.5143;0.7791;-1.159;-0.3111;0.1308;-0.576;1271.0;-15.08;-24.07;-27.67;164.39;-15.37;-20.7;2.0;987.3;61.771;35.95778;-83.92447;807.68;NaN;;4.07;12.226105;139.3;13 / 18;73016;2022-10-24 15:45:02:752
0.1675;0.7804;1.6711;2.3114;2.6012;9.1685;1.2087;-1.7913;4.9617;1.3739;0.5966;0.4683;1171.0;-13.24;-21.54;-29.81;161.02;-10.83;-14.02;2.0;987.27;62.399;35.95778;-83.92447;807.68;NaN;;4.07;12.226105;139.3;13 / 18;73517;2022-10-24 15:45:03:253
3.2572;2.3031;8.3124;2.9072;1.5479;9.237;-1.001;0.3132;-1.7654;0.1542;-0.1153;-1.0342;1070.0;-13.74;-19.52;-27.99;163.32;-5.02;-17.08;2.0;987.32;62.006;35.95777;-83.92446;809.82;NaN;;3.85;12.226105;142.5;13 / 18;74016;2022-10-24 15:45:03:752
2.5798;1.8314;7.5858;3.0826;2.2028;9.0452;-0.6717;-1.0971;2.1566;0.7122;0.2436;-0.1159;1052.0;-11.23;-17.49;-30.64;177.43;-12.98;-18.82;2.0;987.26;61.975;35.95777;-83.92446;809.82;NaN;;3.85;12.226105;142.5;13 / 18;74516;2022-10-24 15:45:04:252
4.9881;2.2134;7.733;4.0204;3.1676;8.365;0.602;-0.8693;-1.0902;0.6202;-0.3093;-0.3949;972.0;-15.54;-19.99;-27.32;162.85;-18.84;-25.67;2.0;987.3;61.383;35.957764;-83.92445;809.01;NaN;;4.36;12.226105;154.8;13 / 18;75015;2022-10-24 15:45:04:751
1.1133;0.1603;11.3551;3.3369;2.4622;8.8867;-0.6349;-0.7218;4.1911;-0.2831;0.4623;-0.2703;776.0;-14.12;-20.42;-29.17;165.56;-14.54;-20.58;2.0;987.33;61.745;35.957764;-83.92445;809.01;NaN;;4.36;12.226105;154.8;13 / 18;75515;2022-10-24 15:45:05:251
1.9825;2.5857;9.3263;1.9612;3.2413;9.0453;-2.027;-1.6143;2.3247;0.253;-0.3156;-0.2453;1010.0;-7.05;-22.54;-30.75;167.26;-23.1;-9.17;2.0;987.3;61.791;35.957756;-83.924446;810.5;NaN;;4.18;12.226105;155.7;13 / 18;76016;2022-10-24 15:45:05:752
0.3078;2.1272;8.6545;3.0601;3.2014;8.7497;0.5632;-1.0634;1.3587;0.0816;-0.1099;0.5346;1069.0;-6.79;-23.85;-30.26;192.7;-19.49;-18.33;2.0;987.29;61.263;35.957756;-83.924446;810.5;NaN;;4.18;12.226105;155.7;13 / 18;76516;2022-10-24 15:45:06:252
2.9327;2.1571;5.8475;3.4171;1.3353;9.0946;-0.8758;-1.2764;5.5414;0.9473;-0.5066;0.2782;1097.0;-11.36;-20.72;-32.12;183.38;-7.83;-20.59;2.0;987.25;63.159;35.957745;-83.924446;809.35;NaN;;4.18;12.226105;153.5;13 / 18;77015;2022-10-24 15:45:06:751
3.6679;2.4215;9.7846;3.194;2.751;8.8544;-2.0432;-0.7291;0.8375;0.9803;0.5886;0.5638;1128.0;-15.58;-20.06;-31.5;168.61;-12.86;-22.83;2.0;987.26;61.567;35.957745;-83.924446;809.35;NaN;;4.18;12.226105;153.5;13 / 18;77516;2022-10-24 15:45:07:252
4.2233;3.3206;6.7406;3.5532;2.1399;8.8863;0.9445;1.1532;4.8515;0.5688;-0.422;0.5194;1142.0;-14.1;-23.74;-28.11;171.09;-12.6;-21.79;2.0;987.28;59.276;35.957737;-83.92444;810.36;NaN;;4.32;12.226105;165.1;13 / 18;78015;2022-10-24 15:45:07:751
3.335;1.9499;8.6019;4.0162;2.7313;8.5195;-0.8179;-1.2878;6.3923;0.7789;0.1376;0.2683;1225.0;-17.21;-23.46;-27.84;173.81;-18.69;-29.12;2.0;987.32;59.862;35.957737;-83.92444;810.36;NaN;;4.32;12.226105;165.1;13 / 18;78515;2022-10-24 15:45:08:251
5.0228;2.1332;8.1592;3.5336;3.1916;8.5731;-1.446;-0.1142;0.9274;-0.0256;0.3657;0.2617;1242.0;-15.83;-24.84;-25.97;160.55;-18.99;-22.4;2.0;987.31;60.819;35.95773;-83.92444;812.06;NaN;;4.36;12.226105;163.8;13 / 18;79016;2022-10-24 15:45:08:752
2.2253;1.6448;11.6749;4.1617;2.004;8.6507;-2.6564;-1.0236;4.6411;0.8045;0.417;0.616;1547.0;-17.93;-22.86;-26.96;161.36;-15.87;-25.72;2.0;987.33;61.532;35.95773;-83.92444;812.06;NaN;;4.36;12.226105;163.8;13 / 18;79515;2022-10-24 15:45:09:251
1.1384;2.3498;11.852;1.0541;2.0421;9.5336;-0.9078;-0.3319;1.6317;-0.8585;0.0921;0.6195;1806.0;-10.67;-21.09;-30.77;140.8;-17.72;-4.7;2.0;987.3;60.361;35.957718;-83.92443;815.1;NaN;;4.5;12.226105;153.8;13 / 18;80016;2022-10-24 15:45:09:752
-3.4989;-1.5993;11.8807;0.3646;0.4204;9.7909;-4.2329;1.0066;0.3517;-0.6508;0.0875;0.4566;3094.0;-9.17;-15.67;-35.66;152.06;-2.46;-2.13;2.0;987.26;60.202;35.957718;-83.92443;815.1;NaN;;4.5;12.226105;153.8;13 / 18;80515;2022-10-24 15:45:10:251
-0.3915;3.548;11.6115;-0.8435;2.6636;9.4002;-1.2193;-0.1233;-1.299;0.4265;0.2168;0.2776;4214.0;-6.64;-14.92;-37.2;114.09;-15.76;5.13;2.0;987.26;60.645;35.957703;-83.92442;816.24;NaN;;4.28;12.226105;156.6;14 / 18;81016;2022-10-24 15:45:10:752
-1.9283;4.3597;10.7782;-0.7276;3.724;9.0428;-3.4966;-0.5753;-4.3199;-0.1038;-0.1969;0.5635;4099.0;-5.59;-18.47;-34.03;114.48;-22.32;4.6;2.0;987.25;62.264;35.957703;-83.92442;816.24;NaN;;4.28;12.226105;156.6;14 / 18;81516;2022-10-24 15:45:11:252
-0.9781;4.2461;15.2097;-2.0007;3.8885;8.7777;-0.4523;-0.4618;-1.7079;-1.4531;-1.225;-0.4662;4353.0;-2.36;-22.39;-30.34;128.29;-24.75;16.28;2.0;987.28;61.322;35.957695;-83.924416;815.6;NaN;;4.32;12.226105;155.3;14 / 18;82016;2022-10-24 15:45:11:752
2.7257;2.9267;10.3436;2.3741;3.1802;8.9677;-1.755;-1.5438;1.3983;1.2412;-0.056;-0.6341;4154.0;-5.94;-18.99;-33.66;190.2;-12.28;-13.37;2.0;987.24;61.974;35.957695;-83.924416;815.6;NaN;;4.32;12.226105;155.3;14 / 18;82516;2022-10-24 15:45:12:252
-0.5638;2.9435;9.4807;0.8621;2.7384;9.377;-0.8196;-0.8173;-2.4738;-1.7349;0.3247;0.3037;4003.0;-7.86;-20.12;-32.4;153.5;-16.21;-5.25;2.0;987.26;61.105;35.957684;-83.92441;816.34;NaN;;4.32;12.226105;154.7;14 / 18;83015;2022-10-24 15:45:12:751
-3.4223;4.2843;8.7852;-1.1022;2.7951;9.335;-2.3022;-0.8989;1.7801;0.5679;-0.1758;0.2108;5413.0;-1.33;-16.09;-36.19;141.32;-12.94;8.2;2.0;987.27;62.091;35.957684;-83.92441;816.34;NaN;;4.32;12.226105;154.7;14 / 18;83515;2022-10-24 15:45:13:251
-1.817;2.3091;14.1;-0.7895;3.7962;9.0076;-1.222;-0.805;-1.4175;-1.0278;-0.255;-0.5588;5460.0;-2.96;-19.8;-32.62;134.74;-22.77;5.01;2.0;987.26;60.97;35.957672;-83.9244;817.93;NaN;;4.86;12.226105;147.9;14 / 18;84015;2022-10-24 15:45:13:751
-1.1503;6.6628;9.9153;0.0047;3.9071;8.9947;-1.8443;0.1148;1.3164;-0.7365;-0.5491;0.0673;5303.0;-5.46;-19.67;-32.46;141.93;-21.73;0.52;2.0;987.25;61.091;35.957672;-83.9244;817.93;NaN;;4.86;12.226105;147.9;14 / 18;84515;2022-10-24 15:45:14:251
-3.0571;2.904;11.0082;-1.4729;4.2699;8.7045;-1.7738;-2.0534;-2.5815;-1.0704;-0.3346;-0.8304;5147.0;-7.61;-21.62;-30.47;120.21;-25.81;9.6;2.0;987.25;58.715;35.957664;-83.924385;818.19;NaN;;4.75;12.226105;149.3;14 / 18;85017;2022-10-24 15:45:14:753
-2.5534;4.4483;9.6721;-0.7119;3.7425;9.0364;-0.2737;0.6812;-1.6676;-0.0389;-0.5732;-0.1205;5812.0;-3.86;-18.37;-34.59;131.31;-16.44;7.69;2.0;987.21;60.509;35.957664;-83.924385;818.19;NaN;;4.75;12.226105;149.3;14 / 18;85516;2022-10-24 15:45:15:252
0.0179;2.6468;8.5588;1.7292;3.941;8.8118;-0.9404;-1.0173;-1.3542;0.5047;-0.1256;-0.349;5060.0;-9.3;-20.51;-33.0;162.95;-18.81;-10.68;2.0;987.22;61.106;35.957653;-83.92438;817.36;NaN;;4.61;12.226105;147.4;14 / 18;86016;2022-10-24 15:45:15:752
-1.1168;2.7185;10.0756;1.9558;2.792;9.1951;-1.6711;-0.0567;-0.4952;0.2453;1.5746;1.4687;4435.0;-11.57;-21.66;-32.16;156.11;-16.54;-12.01;2.0;987.21;57.502;35.957653;-83.92438;817.36;NaN;;4.61;12.226105;147.4;14 / 18;86517;2022-10-24 15:45:16:253
-2.8155;5.1353;8.8965;-1.441;4.416;8.6367;-0.6952;-0.8538;-0.63;0.7599;0.8776;0.6119;5614.0;-3.22;-21.75;-33.94;119.11;-26.76;9.47;2.0;987.23;59.215;35.957645;-83.92437;817.15;NaN;;4.54;12.226105;150.2;14 / 18;87016;2022-10-24 15:45:16:752
-3.1831;3.8605;9.0664;-1.2982;3.0514;9.229;-0.61;-0.3822;-2.602;0.0147;0.1636;0.6365;5815.0;0.69;-22.07;-34.29;160.17;-18.13;8.01;2.0;987.24;62.092;35.957645;-83.92437;817.15;NaN;;4.54;12.226105;150.2;14 / 18;87517;2022-10-24 15:45:17:253
-1.512;2.9997;7.5787;-0.8085;3.5196;9.1175;-0.7034;-1.2733;-2.8104;-0.7374;-0.419;-0.151;5656.0;-2.55;-21.21;-35.53;147.92;-16.5;5.26;2.0;987.2;58.833;35.95763;-83.92437;815.68;NaN;;4.61;12.226105;171.7;14 / 18;88017;2022-10-24 15:45:17:753
-0.449;4.914;10.631;0.195;3.245;9.2522;-2.4462;-0.5234;1.8076;0.1342;0.1155;0.2866;5188.0;-4.41;-20.38;-34.54;160.21;-18.02;-1.74;2.0;987.23;58.087;35.95763;-83.92437;815.68;NaN;;4.61;12.226105;171.7;14 / 18;88516;2022-10-24 15:45:18:252
-0.3784;3.3458;9.6912;0.3553;3.7617;9.0495;-0.6845;-0.0595;-1.3913;-0.3593;-0.1423;-0.2083;5222.0;-9.15;-20.16;-31.88;128.11;-22.56;-2.25;2.0;987.22;60.204;35.957623;-83.92436;815.18;NaN;;4.68;12.226105;153.4;14 / 18;89017;2022-10-24 15:45:18:753
-2.5053;3.5539;11.9572;0.681;2.6157;9.4268;-2.3008;0.2579;1.3314;-0.3657;-0.3913;-0.4465;4944.0;-10.35;-19.11;-32.87;133.91;-17.29;-2.53;2.0;987.22;57.462;35.957623;-83.92436;815.18;NaN;;4.68;12.226105;153.4;14 / 18;89515;2022-10-24 15:45:19:251
0.2548;3.2345;10.503;0.7697;3.2219;9.2303;-0.4503;-0.4097;-1.7318;-0.1113;-0.236;-0.1901;4713.0;-11.57;-19.67;-33.32;130.09;-19.18;-4.77;2.0;987.18;60.511;35.95761;-83.924355;815.42;NaN;;4.61;12.226105;145.0;14 / 18;90016;2022-10-24 15:45:19:752
-1.1707;2.2146;12.4122;1.049;2.7753;9.3471;-1.3975;0.3572;-0.7611;-0.4267;0.8785;-0.0583;4583.0;-12.15;-20.94;-33.96;138.4;-17.77;-6.22;2.0;987.24;60.157;35.95761;-83.924355;815.42;NaN;;4.61;12.226105;145.0;14 / 18;90516;2022-10-24 15:45:20:252
-1.4282;2.4299;9.5285;0.1753;2.6996;9.4261;-1.5398;-1.1912;-0.5119;0.1929;0.0642;0.1475;4715.0;-8.29;-20.08;-34.86;142.44;-15.98;-1.07;2.0;987.17;58.79;35.957603;-83.92435;816.42;NaN;;4.5;12.226105;145.3;14 / 18;91016;2022-10-24 15:45:20:752
-0.4202;3.5145;8.6246;0.3727;2.3532;9.5128;-1.1048;-0.1836;-2.8556;-0.483;-0.1686;-0.1944;4599.0;-8.33;-19.86;-34.26;155.99;-13.77;-5.03;2.0;987.21;57.824;35.957603;-83.92435;816.42;NaN;;4.5;12.226105;145.3;14 / 18;91516;2022-10-24 15:45:21:252
-1.2748;0.7516;5.3318;-2.4209;2.6915;9.114;0.1623;-2.9234;-3.3372;0.8761;0.5803;0.8146;4950.0;-4.24;-16.8;-36.49;137.44;-11.08;8.26;2.0;987.15;61.181;35.957596;-83.92433;815.7;NaN;;4.43;12.226105;138.5;14 / 18;92015;2022-10-24 15:45:21:751
-1.319;0.8151;6.3969;-0.5497;0.9187;9.748;0.5395;1.2674;-2.1602;0.9287;-0.8323;-0.0803;4872.0;-1.95;-13.63;-38.57;157.85;-5.38;3.23;2.0;987.17;59.541;35.957596;-83.92433;815.7;NaN;;4.43;12.226105;138.5;14 / 18;92515;2022-10-24 15:45:22:251
-2.9219;1.3992;6.1959;0.2522;3.0218;9.3261;-1.1681;-2.0433;-2.6141;0.8106;0.4087;-1.0296;4495.0;-8.06;-17.62;-37.05;128.97;-17.95;-1.55;2.0;987.16;56.665;35.957584;-83.92432;815.5;NaN;;4.5;12.226105;143.3;14 / 18;93016;2022-10-24 15:45:22:752
-1.7022;1.1886;6.1732;0.7543;2.2449;9.5164;0.7794;0.5378;-0.1908;0.0972;0.4848;0.5166;4475.0;-6.24;-20.57;-33.56;165.32;-13.23;-4.53;2.0;987.19;57.762;35.957584;-83.92432;815.5;NaN;;4.5;12.226105;143.3;14 / 18;93516;2022-10-24 15:45:23:252
-2.5089;1.5299;5.2238;-0.5909;2.9944;9.3196;-1.0175;-1.6745;0.0108;0.1655;0.3941;0.5282;4775.0;-6.07;-19.48;-33.0;148.15;-16.04;-0.58;2.0;987.17;59.462;35.957577;-83.92431;815.1;NaN;;4.43;12.226105;150.2;14 / 18;94016;2022-10-24 15:45:23:752
1.1204;4.0615;6.1672;-0.0684;2.1507;9.5677;-0.9294;0.2636;-1.7953;0.2696;0.2241;0.0676;4802.0;-5.51;-17.83;-34.44;151.31;-10.81;0.32;2.0;987.23;58.808;35.957577;-83.92431;815.1;NaN;;4.43;12.226105;150.2;14 / 18;94516;2022-10-24 15:45:24:252
0.4669;3.3362;9.9368;1.1368;2.8597;9.3113;-2.753;-2.3559;0.3105;-0.9957;2.9993;0.1516;4675.0;-11.87;-19.87;-35.1;138.19;-16.95;-6.96;2.0;987.15;58.349;35.957565;-83.9243;815.91;NaN;;4.21;12.226105;147.2;14 / 18;95016;2022-10-24 15:45:24:752
-3.2285;-0.4956;6.7011;-3.9762;1.5532;8.8288;0.7354;0.2392;0.3365;-0.4806;-1.0688;-1.5751;4995.0;-2.66;-19.28;-36.99;113.0;-17.41;30.31;2.0;987.17;62.756;35.957565;-83.9243;815.91;NaN;;4.21;12.226105;147.2;14 / 18;95516;2022-10-24 15:45:25:252
-4.847;0.7385;6.92;-2.9453;1.2627;9.2683;-1.2429;-0.6775;1.7032;0.2875;1.1346;-0.015;4502.0;-4.41;-11.55;-39.75;114.17;-7.4;17.63;2.0;987.24;59.502;35.957558;-83.92429;817.84;NaN;;4.79;12.226105;144.8;14 / 18;96016;2022-10-24 15:45:25:752
-2.1284;1.6543;4.6421;-2.6631;1.6265;9.2969;0.7428;-2.3704;-0.8337;0.5689;0.0192;0.4894;4497.0;-1.28;-11.92;-36.45;119.72;-8.62;17.63;2.0;987.16;58.141;35.957558;-83.92429;817.84;NaN;;4.79;12.226105;144.8;14 / 18;96516;2022-10-24 15:45:26:252
-1.512;-0.1938;7.552;-2.9444;2.6634;8.967;0.3855;0.1889;0.9263;0.3009;0.2371;0.05;4438.0;-0.96;-14.21;-38.06;106.33;-15.76;18.18;2.0;987.13;57.899;35.957542;-83.92428;818.19;NaN;;5.26;12.226105;148.1;14 / 18;97017;2022-10-24 15:45:26:753
-3.9754;2.971;4.4507;-4.1115;1.9838;8.6793;0.484;-1.293;-3.93;-0.3477;-0.5259;0.1105;4699.0;1.88;-15.56;-39.26;127.9;-9.55;21.41;2.0;987.16;60.241;35.957542;-83.92428;818.19;NaN;;5.26;12.226105;148.1;14 / 18;97516;2022-10-24 15:45:27:252
-4.6038;0.6284;4.8625;-4.1202;3.0194;8.3712;-0.3712;-2.256;-3.3702;0.2018;0.7063;0.3895;4497.0;5.79;-17.01;-39.02;125.4;-14.99;22.13;2.0;987.14;57.88;35.957527;-83.92427;822.03;NaN;;7.13;12.226105;146.6;14 / 18;98015;2022-10-24 15:45:27:751
-4.0089;1.7405;4.41;-3.8879;1.0575;8.9407;-0.1681;-0.0644;0.3277;0.092;0.0724;0.073;4096.0;7.43;-16.28;-39.21;142.14;-6.19;23.5;2.0;987.16;57.117;35.957527;-83.92427;822.03;NaN;;7.13;12.226105;146.6;14 / 18;98516;2022-10-24 15:45:28:252
-6.0368;1.8398;3.0691;-4.7454;2.6315;8.1686;0.7819;-1.4144;-1.9926;0.5232;0.8414;0.2362;3736.0;8.44;-16.09;-39.82;110.99;-15.57;30.15;2.0;987.15;57.011;35.95751;-83.924255;820.97;NaN;;5.98;12.226105;152.1;14 / 18;99015;2022-10-24 15:45:28:751
-3.0033;3.3218;5.3509;-2.5883;2.8627;9.0153;-0.5416;-0.6724;-0.5676;0.4691;-0.2751;0.109;3237.0;2.53;-19.58;-38.61;135.24;-16.97;16.02;2.0;987.14;59.029;35.95751;-83.924255;820.97;NaN;;5.98;12.226105;152.1;14 / 18;99515;2022-10-24 15:45:29:251
-3.8163;1.9008;4.7198;-2.6486;3.9;8.5991;1.6537;-0.7107;-1.8246;0.4341;-0.2482;0.6198;2640.0;-3.41;-21.54;-37.87;125.54;-17.73;17.46;2.0;987.14;60.191;35.9575;-83.92425;822.78;NaN;;4.79;12.226105;147.0;14 / 18;100016;2022-10-24 15:45:29:752
-2.6456;3.0093;7.2565;-2.0228;2.7072;9.206;-0.6292;0.4025;-2.0197;-0.0596;-0.2227;-0.8298;2272.0;-4.67;-22.91;-35.85;133.74;-17.23;12.01;2.0;987.14;60.718;35.9575;-83.92425;822.78;NaN;;4.79;12.226105;147.0;14 / 18;100515;2022-10-24 15:45:30:251
-3.02;0.9135;5.4419;-2.1502;3.3473;8.9634;0.5925;-0.8574;0.2795;0.5959;-0.1193;-0.1408;2174.0;2.01;-22.8;-34.28;149.53;-19.96;13.49;2.0;987.12;56.861;35.95749;-83.92424;826.91;NaN;;4.72;12.226105;149.9;14 / 18;101016;2022-10-24 15:45:30:752
1.0092;2.5714;9.4639;1.2344;2.1072;9.4977;-1.5067;-0.4002;-2.5866;-0.0027;-1.6177;-0.8979;2070.0;2.19;-22.97;-32.81;175.99;-11.5;5.4;2.0;987.15;57.019;35.95749;-83.92424;826.91;NaN;;4.72;12.226105;149.9;14 / 18;101516;2022-10-24 15:45:31:252
-2.0207;-1.8697;8.383;2.2074;1.2771;9.4693;-0.3495;-0.6062;0.4988;0.6357;0.6664;0.304;662.0;-2.32;-21.51;-33.3;197.51;-7.48;-13.12;2.0;987.14;57.214;35.95748;-83.92423;825.62;NaN;;4.57;12.226105;147.8;14 / 18;102016;2022-10-24 15:45:31:752
0.5112;1.622;8.1123;1.4372;1.5658;9.5736;-1.399;-0.4334;-0.4258;0.5798;0.0415;0.1079;582.0;-5.02;-15.09;-38.57;166.89;-6.95;-3.86;2.0;987.15;57.935;35.95748;-83.92423;825.62;NaN;;4.57;12.226105;147.8;14 / 18;102515;2022-10-24 15:45:32:251
-0.6296;1.7441;6.6054;1.4132;2.0433;9.4867;-1.0307;-1.528;3.7039;0.0951;1.2907;1.1841;573.0;-7.86;-20.25;-34.39;166.73;-12.03;-8.47;2.0;987.12;57.714;35.957466;-83.924225;824.84;NaN;;4.68;12.226105;149.2;15 / 18;103017;2022-10-24 15:45:32:753
-0.9924;1.2592;7.6469;-0.1089;1.4084;9.7044;1.6383;0.7742;-0.482;0.3814;-0.2338;-0.1584;810.0;-7.13;-16.58;-38.23;152.0;-3.26;1.33;2.0;987.11;56.805;35.957466;-83.924225;824.84;NaN;;4.68;12.226105;149.2;15 / 18;103516;2022-10-24 15:45:33:252
-2.138;1.9908;3.8521;-0.9423;2.8577;9.3336;-0.7893;-1.0168;-5.0595;0.6654;0.949;0.4138;1400.0;-6.75;-17.29;-37.97;138.53;-11.88;1.24;2.0;987.08;56.962;35.957455;-83.924225;823.26;NaN;;4.68;12.226105;150.2;15 / 18;104017;2022-10-24 15:45:33:753
-1.9367;2.2361;5.802;-0.3398;1.9619;9.6024;0.916;1.058;-0.0503;-0.0786;0.485;-0.2562;1478.0;-10.11;-16.71;-37.89;128.84;-11.54;2.03;2.0;987.12;57.553;35.957455;-83.924225;823.26;NaN;;4.68;12.226105;150.2;15 / 18;104516;2022-10-24 15:45:34:252
-1.1097;2.2469;6.178;-1.506;2.5631;9.3452;0.0072;-1.0357;-3.3851;0.6887;0.5724;0.8729;1904.0;-8.59;-13.56;-39.73;103.16;-15.15;9.15;2.0;987.09;54.816;35.957447;-83.92421;824.45;NaN;;4.5;12.226105;148.2;15 / 18;105017;2022-10-24 15:45:34:753
-2.959;1.1456;5.5663;-1.1697;1.1873;9.664;-0.8732;0.7744;-1.1927;-0.0308;0.7768;-1.4598;2316.0;-9.3;-12.17;-40.26;117.77;-6.95;6.9;2.0;987.09;53.841;35.957447;-83.92421;824.45;NaN;;4.5;12.226105;148.2;15 / 18;105516;2022-10-24 15:45:35:252
-1.512;1.0654;6.3012;-0.7768;1.4578;9.6665;0.4858;0.1807;0.152;0.4844;0.574;-0.0501;2960.0;-5.91;-10.8;-41.61;133.86;-1.74;5.7;2.0;987.12;55.139;35.95744;-83.9242;824.41;NaN;;4.61;12.226105;138.0;14 / 18;106017;2022-10-24 15:45:35:753
-0.9553;2.0686;8.3255;-0.811;1.4437;9.6658;-0.0625;0.6358;-1.0117;0.0609;-0.1434;-0.5913;3013.0;-8.4;-14.27;-38.29;128.16;-8.75;3.59;2.0;987.1;57.751;35.95744;-83.9242;824.41;NaN;;4.61;12.226105;138.0;14 / 18;106516;2022-10-24 15:45:36:252
0.1831;2.4933;8.8367;-1.2041;1.5362;9.6104;-3.0606;-2.1714;1.0058;0.52;0.2894;0.1109;3334.0;-4.31;-13.8;-39.53;130.69;-9.01;7.14;2.0;987.11;55.762;35.957428;-83.924194;827.62;NaN;;4.68;12.226105;144.5;15 / 18;107016;2022-10-24 15:45:36:752
-0.5171;2.4491;7.5748;-0.7898;1.8384;9.6004;-0.5107;-0.2023;0.2285;0.1058;-0.0192;-0.2863;3493.0;-6.09;-15.69;-37.67;131.93;-11.87;4.35;2.0;987.08;56.714;35.957428;-83.924194;827.62;NaN;;4.68;12.226105;144.5;15 / 18;107516;2022-10-24 15:45:37:252
-1.8553;1.5096;7.4468;-1.6537;1.4118;9.5625;-2.0407;-1.0041;3.0272;0.3221;-0.3775;0.5386;3765.0;-2.31;-14.79;-37.8;138.37;-8.28;9.81;2.0;987.09;55.954;35.95742;-83.92419;828.37;NaN;;4.64;12.226105;144.8;15 / 18;108015;2022-10-24 15:45:37:751
-0.4657;2.5391;8.4404;-1.2544;1.3936;9.6257;-2.1414;-1.8438;4.0866;0.2688;0.0583;-0.2761;3796.0;-2.87;-15.52;-37.12;132.8;-13.19;7.63;2.0;987.09;55.517;35.95742;-83.92419;828.37;NaN;;4.64;12.226105;144.8;15 / 18;108515;2022-10-24 15:45:38:251
1.4737;3.4845;10.4623;-1.1723;1.2619;9.6542;-1.4959;1.6792;0.5799;0.7239;-1.1002;0.8396;4064.0;-1.84;-14.59;-37.5;147.66;-7.39;6.92;2.0;987.11;53.31;35.95741;-83.92418;827.35;NaN;;4.79;12.226105;149.1;15 / 18;109015;2022-10-24 15:45:38:751
6.0476;4.1788;10.3053;1.682;3.2076;9.1133;-0.1478;-0.1877;2.815;0.4925;3.5612;-1.3823;3651.0;-10.2;-19.76;-31.8;152.12;-21.41;-11.52;2.0;987.15;55.028;35.95741;-83.92418;827.35;NaN;;4.79;12.226105;149.1;15 / 18;109516;2022-10-24 15:45:39:252
-3.1101;3.1101;7.1046;-0.4275;3.5701;9.1237;-1.1223;-1.5305;3.4807;-0.1495;-0.1116;-0.1802;3769.0;2.66;-22.16;-31.39;175.02;-23.69;6.75;2.0;987.19;55.187;35.9574;-83.92417;825.63;NaN;;4.79;12.226105;141.5;15 / 18;110016;2022-10-24 15:45:39:752
13.4608;2.0004;0.0586;7.349;5.4535;3.5244;1.2718;-3.1734;-1.7586;0.5579;-3.8513;2.3311;3256.0;-8.91;-27.58;-19.84;225.39;-33.79;-64.38;2.0;987.11;58.851;35.9574;-83.92417;825.63;NaN;;4.79;12.226105;141.5;15 / 18;110516;2022-10-24 15:45:40:252
12.8551;-1.2425;-3.128;8.321;-2.3809;-4.6112;6.0753;5.1821;2.528;-0.0496;0.462;-0.1833;1046.0;-36.73;-8.36;19.69;181.41;14.05;-118.99;2.0;987.16;61.384;35.957394;-83.92416;824.95;NaN;;4.9;12.226105;157.8;15 / 18;111015;2022-10-24 15:45:40:751
9.7558;-0.0538;-6.4173;8.1636;3.4368;-4.2089;-0.8006;-6.3971;0.3232;0.1833;-0.6931;1.8636;792.0;-30.84;-16.71;23.1;112.41;-20.52;-117.27;2.0;987.13;61.552;35.957394;-83.92416;824.95;NaN;;4.9;12.226105;157.8;15 / 18;111517;2022-10-24 15:45:41:253
14.9369;-0.5626;-2.8753;7.714;-2.3659;-5.5737;6.5222;4.6435;0.7241;0.3277;0.6246;-1.9183;771.0;-31.91;-11.16;25.73;176.13;13.34;-127.19;2.0;987.15;51.856;35.95738;-83.92415;824.71;NaN;;4.79;12.226105;153.6;15 / 18;112017;2022-10-24 15:45:41:753
9.5572;-1.6615;-5.3342;8.0661;1.7935;-5.2812;-0.2346;-2.7124;-0.9213;0.1974;-0.7811;1.6047;754.0;-28.74;-17.44;22.63;113.84;-21.54;-120.09;2.0;987.13;59.564;35.95738;-83.92415;824.71;NaN;;4.79;12.226105;153.6;15 / 18;112517;2022-10-24 15:45:42:253
13.0908;-1.3801;-3.5791;7.1643;-3.3357;-5.8065;6.6912;3.8987;0.5391;-0.834;1.0787;-1.5556;797.0;-34.12;-7.67;24.58;185.19;19.89;-129.02;2.0;987.13;57.744;35.957367;-83.92414;824.25;NaN;;5.36;12.226105;147.6;15 / 18;113016;2022-10-24 15:45:42:752
10.5126;-1.0965;-6.1265;8.0677;2.5189;-4.9736;-0.3481;-5.3799;0.3956;-0.2831;-0.538;1.4361;793.0;-30.6;-14.68;20.79;68.72;-23.32;-120.13;2.0;987.13;59.372;35.957367;-83.92414;824.25;NaN;;5.36;12.226105;147.6;15 / 18;113516;2022-10-24 15:45:43:252
13.6499;-1.0738;-2.205;6.9973;-3.4505;-5.9416;5.8487;4.951;0.2505;-0.6915;1.007;-1.3136;837.0;-32.96;-9.37;23.49;189.65;20.6;-130.34;2.0;987.12;54.546;35.957355;-83.92413;822.67;NaN;;4.86;12.226105;153.7;15 / 18;114016;2022-10-24 15:45:43:752
7.4791;-1.4246;-5.4586;8.7272;2.3082;-3.8313;-1.453;-5.7479;-0.5354;-0.4415;-0.3975;2.0547;785.0;-33.56;-16.86;17.61;143.41;-17.4;-112.62;2.0;987.14;63.179;35.957355;-83.92413;822.67;NaN;;4.86;12.226105;153.7;15 / 18;114515;2022-10-24 15:45:44:251
13.6929;0.5327;-1.9427;7.1469;-3.7309;-5.5832;5.6572;5.4849;1.8948;-0.0102;0.9262;-1.0642;1085.0;-37.74;-6.17;19.61;199.44;22.36;-128.0;2.0;987.13;55.213;35.957344;-83.924126;822.02;NaN;;5.26;12.226105;150.1;15 / 18;115016;2022-10-24 15:45:44:752
10.5855;-2.3916;-4.2485;8.4335;2.5743;-4.2917;-0.5041;-7.0349;0.1819;-0.208;-0.2349;2.4355;880.0;-34.03;-12.88;21.09;106.15;-16.25;-114.85;2.0;987.13;58.682;35.957344;-83.924126;822.02;NaN;;5.26;12.226105;150.1;15 / 18;115516;2022-10-24 15:45:45:252
11.6342;-0.2046;-2.2588;8.244;-2.8238;-4.498;6.53;3.7308;1.271;-0.594;0.6162;-0.4661;888.0;-35.04;-7.24;24.54;175.95;23.27;-123.33;2.0;987.15;54.748;35.957336;-83.924126;821.35;NaN;;5.15;12.226105;145.7;15 / 18;116015;2022-10-24 15:45:45:751
12.2327;-1.774;-4.7689;7.4142;3.985;-5.0318;-3.7849;-8.6666;1.612;-0.5468;-0.1122;2.5353;700.0;-30.62;-15.94;25.24;65.29;-23.98;-124.16;2.0;987.11;59.416;35.957336;-83.924126;821.35;NaN;;5.15;12.226105;145.7;15 / 18;116516;2022-10-24 15:45:46:252
14.4138;-1.7895;-2.7341;7.1284;-4.3381;-5.1513;8.0423;4.6977;2.0797;-0.2269;0.3402;0.0693;854.0;-36.73;-4.89;25.76;181.4;26.26;-125.85;2.0;987.11;54.44;35.957325;-83.92411;822.77;NaN;;5.44;12.226105;148.4;14 / 18;117016;2022-10-24 15:45:46:752
8.6521;-1.9753;-5.7637;7.6941;3.6058;-4.8959;-1.4294;-8.3451;2.4849;0.622;0.186;1.5609;682.0;-34.28;-9.3;25.78;26.74;-21.57;-122.47;2.0;987.13;63.796;35.957325;-83.92411;822.77;NaN;;5.44;12.226105;148.4;14 / 18;117516;2022-10-24 15:45:47:252
12.2985;3.542;-4.3406;6.5444;-4.6784;-5.6084;6.6457;8.8606;-2.3803;-0.3364;-0.0425;-1.7687;920.0;-33.62;-6.09;28.73;173.22;23.13;-126.95;2.0;987.1;53.667;35.957314;-83.9241;823.99;NaN;;5.36;12.226105;147.4;14 / 18;118016;2022-10-24 15:45:47:752
12.5163;-3.0057;-7.4958;8.0658;1.9202;-5.237;2.7385;-5.8483;-1.5912;1.1711;-0.3354;2.5925;764.0;-27.32;-15.0;27.86;49.92;-31.54;-123.55;2.0;987.09;58.724;35.957314;-83.9241;823.99;NaN;;5.36;12.226105;147.4;14 / 18;118515;2022-10-24 15:45:48:251
13.188;-1.1145;-3.5611;8.017;-2.8342;-4.8852;5.7566;1.7424;0.0978;0.3806;0.0435;-1.5366;922.0;-36.3;-5.91;26.14;169.4;16.8;-121.36;2.0;987.11;52.682;35.9573;-83.924095;822.56;NaN;;5.76;12.226105;147.4;14 / 18;119015;2022-10-24 15:45:48:751
9.8291;-1.9451;-4.8577;8.3419;1.6768;-4.8756;-0.4465;-4.4697;-0.0214;-0.0254;-0.3518;1.3279;1017.0;-33.56;-15.62;22.22;122.71;-19.04;-118.6;2.0;987.1;53.313;35.9573;-83.924095;822.56;NaN;;5.76;12.226105;147.4;14 / 18;119516;2022-10-24 15:45:49:252
13.3687;-2.6515;-2.1021;6.7397;-3.9455;-5.9312;5.8405;4.4465;0.1278;-0.8986;0.9846;-0.9696;1022.0;-33.77;-9.34;26.08;186.61;23.72;-131.35;2.0;987.12;52.914;35.957287;-83.92409;822.75;NaN;;5.26;12.226105;148.4;14 / 18;120017;2022-10-24 15:45:49:753
13.2634;-1.9956;-3.4391;9.2243;1.401;-3.0199;1.9555;-5.8126;-0.6239;-0.1962;-1.2469;1.7938;998.0;-35.31;-17.78;15.34;164.81;-8.21;-108.13;2.0;987.06;52.919;35.957287;-83.92409;822.75;NaN;;5.26;12.226105;148.4;14 / 18;120517;2022-10-24 15:45:50:253
12.4875;-0.492;-3.195;6.3247;-3.6403;-6.5511;7.1286;5.1067;5.3248;0.9712;0.9857;-1.6933;1551.0;-41.25;-5.74;17.46;220.54;21.79;-136.01;2.0;987.09;54.342;35.957275;-83.92409;822.12;NaN;;4.82;12.226105;163.5;14 / 18;121016;2022-10-24 15:45:50:752
10.4013;-3.0356;-5.0001;8.3683;2.5646;-4.4231;-1.1194;-6.716;-0.7371;-0.8027;-0.1196;2.4567;1300.0;-34.93;-14.34;19.89;119.13;-16.08;-113.74;2.0;987.06;54.531;35.957275;-83.92409;822.12;NaN;;4.82;12.226105;163.5;14 / 18;121516;2022-10-24 15:45:51:252
14.8648;-2.4826;0.7409;7.8105;-3.5361;-4.7605;7.5428;3.9629;5.2963;-1.3072;2.3154;0.3359;1359.0;-36.98;-8.76;21.3;199.74;24.38;-131.92;2.0;987.1;53.552;35.95726;-83.92408;822.04;NaN;;5.22;12.226105;147.1;14 / 18;122016;2022-10-24 15:45:51:752
6.3598;-3.8581;-3.9706;8.7189;2.3898;-3.8;-1.4109;-6.7564;0.68;0.0235;-0.2939;1.7165;1257.0;-37.09;-13.67;17.1;167.64;-14.1;-113.55;2.0;987.08;59.017;35.95726;-83.92408;822.04;NaN;;5.22;12.226105;147.1;14 / 18;122516;2022-10-24 15:45:52:252
16.6235;-0.9123;-0.711;6.5279;-5.215;-5.1343;9.4243;4.3639;1.9938;-0.4446;-0.3728;1.8093;1487.0;-39.41;-3.02;20.46;198.27;32.13;-128.19;2.0;987.13;51.754;35.95725;-83.92408;820.74;NaN;;5.04;12.226105;158.2;14 / 18;123016;2022-10-24 15:45:52:752
6.5635;-3.3254;-4.4518;7.9245;2.8252;-5.0389;-1.3178;-8.6143;2.0377;0.0959;0.0658;0.5018;832.0;-35.85;-5.68;23.78;7.93;-16.74;-122.45;2.0;987.08;56.065;35.95725;-83.92408;820.74;NaN;;5.04;12.226105;158.2;14 / 18;123516;2022-10-24 15:45:53:252
14.1287;-1.8278;-2.2457;8.2979;-3.3579;-4.0049;5.2406;3.8126;2.1827;0.5552;0.0237;-1.9602;1848.0;-35.32;-13.97;21.75;173.17;11.81;-118.48;2.0;987.09;53.877;35.957237;-83.92407;821.46;NaN;;5.29;12.226105;149.1;14 / 18;124017;2022-10-24 15:45:53:753
9.9775;-2.8525;-3.5982;8.1584;1.2625;-5.2932;-0.9509;-5.6759;0.8202;-0.4146;-1.2241;1.2818;1760.0;-34.2;-16.05;21.3;135.04;-14.93;-114.16;2.0;987.07;54.061;35.957237;-83.92407;821.46;NaN;;5.29;12.226105;149.1;14 / 18;124516;2022-10-24 15:45:54:252
15.163;-1.2963;-2.1882;7.5821;-3.8735;-4.8661;6.4673;5.589;0.8132;0.0546;0.5984;-2.1241;1917.0;-38.68;-6.21;21.84;186.28;23.26;-122.69;2.0;987.1;57.097;35.957226;-83.92407;821.75;NaN;;4.86;12.226105;150.1;14 / 18;125015;2022-10-24 15:45:54:751
8.2274;-2.8214;-4.8589;7.2136;2.8758;-5.9887;0.2997;-5.9096;0.7563;0.1604;-0.8737;0.9964;1261.0;-31.09;-16.48;21.24;358.17;-23.95;-124.14;2.0;987.06;55.524;35.957226;-83.92407;821.75;NaN;;4.86;12.226105;150.1;14 / 18;125516;2022-10-24 15:45:55:252
13.9313;0.7241;-0.1065;7.3909;-3.0079;-5.7006;8.7849;5.2861;1.8023;1.0923;0.7417;-2.013;1493.0;-32.42;-11.91;23.81;181.31;17.86;-127.64;2.0;987.11;55.276;35.95721;-83.924065;822.19;NaN;;5.22;12.226105;166.1;14 / 18;126015;2022-10-24 15:45:55:751
10.8344;-1.2867;-4.896;8.1964;2.449;-4.7949;0.0895;-5.309;-1.2227;-1.281;-0.371;3.1294;1485.0;-29.01;-23.23;17.12;164.75;-27.42;-118.08;2.0;987.1;54.183;35.95721;-83.924065;822.19;NaN;;5.22;12.226105;166.1;14 / 18;126516;2022-10-24 15:45:56:252
13.8404;-3.1496;-4.0639;7.5278;-2.6344;-5.7064;7.9147;4.4376;3.8603;0.8791;1.0707;-2.114;1373.0;-40.33;-9.13;13.82;213.7;15.58;-127.16;2.0;987.1;53.528;35.9572;-83.924065;822.6;NaN;;5.22;12.226105;168.5;14 / 18;127016;2022-10-24 15:45:56:752
8.9946;-0.2225;-5.0707;8.2297;2.9764;-4.4254;-0.3802;-4.5482;-0.9525;-0.0836;-0.6367;2.2415;1534.0;-32.4;-21.54;10.71;217.01;-27.2;-114.29;2.0;987.09;56.107;35.9572;-83.924065;822.6;NaN;;5.22;12.226105;168.5;14 / 18;127516;2022-10-24 15:45:57:252
12.5737;-0.8115;-3.2213;8.3157;-1.6241;-4.9377;4.088;1.3613;3.0918;0.0438;0.6298;-1.58;1390.0;-39.15;-10.72;15.49;205.47;18.68;-126.46;2.0;987.13;53.4;35.957188;-83.924065;822.13;NaN;;4.9;12.226105;167.1;14 / 18;128016;2022-10-24 15:45:57:752
10.8823;-1.1336;-3.8127;8.6;0.1926;-4.7089;1.8215;-4.4019;-1.4982;-1.225;0.1001;1.9986;1266.0;-37.07;-18.39;14.33;197.68;-1.13;-118.7;2.0;987.09;53.328;35.957188;-83.924065;822.13;NaN;;4.9;12.226105;167.1;14 / 18;128517;2022-10-24 15:45:58:253
10.3735;-3.8342;-3.961;8.4879;-2.3388;-4.3193;3.8434;0.8654;2.4554;0.801;0.4009;-2.2112;1137.0;-44.98;-1.69;14.4;211.35;13.8;-116.97;2.0;987.08;53.738;35.957176;-83.924065;822.39;NaN;;4.72;12.226105;168.6;14 / 18;129016;2022-10-24 15:45:58:752
6.5264;-2.5977;-6.67;8.1822;1.9912;-5.0256;1.7503;-6.6195;-0.199;0.5566;-0.3757;1.8736;1224.0;-36.73;-18.3;16.22;211.04;-11.72;-121.56;2.0;987.04;53.368;35.957176;-83.924065;822.39;NaN;;4.72;12.226105;168.6;14 / 18;129516;2022-10-24 15:45:59:252
13.7085;-1.6711;-2.5762;7.9185;-2.1063;-5.388;7.9946;1.3907;4.0605;1.4837;1.1534;-3.6534;1332.0;-41.36;-6.39;18.21;216.48;18.99;-132.46;2.0;987.11;52.704;35.95717;-83.92406;821.72;NaN;;4.93;12.226105;166.8;14 / 18;130016;2022-10-24 15:45:59:752
7.8526;-0.1436;-2.6001;8.591;0.6357;-4.6862;-0.225;-1.8228;-1.3385;-0.0924;-0.7198;2.0253;1588.0;-33.71;-25.35;9.77;201.46;-17.75;-114.76;2.0;987.08;54.499;35.95717;-83.92406;821.72;NaN;;4.93;12.226105;166.8;14 / 18;130515;2022-10-24 15:46:00:251
12.3356;-3.7229;-4.7764;7.6826;0.4129;-6.0809;8.8029;-1.0112;-0.3615;-0.3796;2.8091;-4.3596;1383.0;-37.89;-14.74;16.26;219.66;-2.41;-128.36;2.0;987.04;55.664;35.957157;-83.92406;823.16;NaN;;5.11;12.226105;168.3;13 / 18;131017;2022-10-24 15:46:00:753
0.3652;3.7971;8.6713;1.4127;3.5198;9.0436;-1.4044;-0.253;-2.1146;-0.0457;-0.6965;0.0712;5538.0;-9.51;-28.54;-12.81;158.78;-21.4;-6.37;2.0;987.04;54.703;35.957157;-83.92406;823.16;NaN;;5.11;12.226105;168.3;13 / 18;131516;2022-10-24 15:46:01:252
7.0173;6.1481;18.6069;2.6967;4.4998;8.2855;-2.772;-0.2788;-1.2207;-0.9188;-0.9996;0.1549;4836.0;1.91;-31.39;-27.62;214.1;-27.31;-18.03;2.0;987.03;52.903;35.957146;-83.92406;824.54;NaN;;5.98;12.226105;155.5;14 / 18;132017;2022-10-24 15:46:01:753
1.2688;5.0731;5.091;2.9115;4.6281;8.1409;-0.326;-0.7087;-0.5324;-0.8415;-1.2018;-0.446;5221.0;1.82;-32.72;-25.13;215.77;-35.81;-17.67;2.0;987.02;51.84;35.957146;-83.92406;824.54;NaN;;5.98;12.226105;155.5;14 / 18;132516;2022-10-24 15:46:02:252
2.7401;1.5359;1.9307;4.347;3.2561;8.1653;-1.1414;-1.1657;5.3589;1.5583;0.5687;0.3541;4584.0;-3.04;-29.21;-31.2;213.81;-19.39;-28.03;2.0;987.02;52.781;35.95713;-83.92405;819.87;NaN;;5.33;12.226105;175.2;15 / 18;133016;2022-10-24 15:46:02:752
8.639;-1.8637;6.7585;9.742;-0.1444;1.1148;4.5191;-2.3602;5.2671;-2.6308;-0.9388;0.1601;4102.0;-15.36;-30.99;-21.94;208.22;-16.08;-62.27;2.0;987.05;56.025;35.95713;-83.92405;819.87;NaN;;5.33;12.226105;175.2;15 / 18;133517;2022-10-24 15:46:03:253
7.7892;-2.1452;0.4394;9.7037;0.6051;1.2815;-0.6815;-2.8065;-0.7284;2.9215;0.626;-1.2038;2680.0;-38.21;-8.27;-22.03;239.82;6.07;-88.09;2.0;987.03;58.058;35.95712;-83.92405;817.6;NaN;;4.43;12.226105;175.9;15 / 18;134016;2022-10-24 15:46:03:752
9.3526;-0.5411;1.136;9.3219;-1.1327;-2.8267;2.8015;-0.2914;1.3669;-1.2289;-0.5653;1.1233;3694.0;-35.94;-21.54;-9.88;218.13;6.63;-106.87;2.0;987.05;51.901;35.95712;-83.92405;817.6;NaN;;4.43;12.226105;175.9;15 / 18;134516;2022-10-24 15:46:04:252
7.4827;-4.1345;-3.195;9.6303;0.4749;-1.7896;0.8817;-4.6087;-0.2417;2.3181;1.2674;-3.1213;2391.0;-42.68;-10.31;2.44;216.63;-2.78;-100.53;2.0;987.02;51.229;35.95711;-83.92405;817.34;NaN;;4.97;12.226105;168.2;14 / 18;135016;2022-10-24 15:46:04:752
10.0636;-0.189;-1.8817;8.9841;-0.5317;-3.8954;1.4907;-0.9979;-0.2703;-0.8004;-0.633;1.9642;3892.0;-33.73;-25.65;4.74;197.85;3.11;-113.44;2.0;987.03;51.448;35.95711;-83.92405;817.34;NaN;;4.97;12.226105;168.2;14 / 18;135516;2022-10-24 15:46:05:252
8.9623;-4.0938;-2.6133;9.3177;-0.369;-3.0357;0.69;-3.3244;0.9237;1.1608;0.1245;-2.4597;2320.0;-42.47;-7.44;8.06;213.86;19.47;-119.19;2.0;987.04;52.532;35.9571;-83.92404;816.08;NaN;;5.08;12.226105;157.1;14 / 18;136017;2022-10-24 15:46:05:753
10.2706;0.3437;-1.8087;8.0173;-2.9857;-4.7936;0.9387;2.1235;3.5101;-1.2308;-0.2389;1.869;3662.0;-36.0;-21.26;8.87;195.96;8.47;-115.65;2.0;987.08;52.355;35.9571;-83.92404;816.08;NaN;;5.08;12.226105;157.1;14 / 18;136516;2022-10-24 15:46:06:252
7.5473;-4.5942;-3.5898;9.2892;0.672;-3.0706;1.1415;-4.4118;0.5204;1.2373;0.0766;-2.6265;3222.0;-40.69;-10.82;7.91;212.95;-3.93;-108.29;2.0;987.04;55.589;35.957092;-83.92404;816.06;NaN;;5.26;12.226105;164.3;15 / 18;137016;2022-10-24 15:46:06:752
11.7251;2.7951;-1.5479;8.0692;-2.9689;-4.7163;3.9883;3.5154;3.5587;-0.9446;-0.4505;2.5317;3951.0;-33.75;-24.96;8.25;194.11;4.01;-114.59;2.0;987.02;51.018;35.957092;-83.92404;816.06;NaN;;5.26;12.226105;164.3;15 / 18;137516;2022-10-24 15:46:07:252
5.5089;-4.5811;-3.2154;9.1231;1.128;-3.4157;1.2464;-4.1548;1.0339;0.4601;-0.0838;-1.98;3547.0;-42.34;-10.03;7.74;234.89;-6.61;-110.53;2.0;987.02;54.941;35.95708;-83.924034;815.13;NaN;;4.93;12.226105;163.9;15 / 18;138016;2022-10-24 15:46:07:752
12.9855;1.9451;-3.5886;7.8634;-3.0717;-4.9902;2.6313;3.546;1.5751;-0.4403;-0.237;1.3519;3821.0;-35.48;-22.65;8.49;200.48;2.86;-117.77;2.0;987.04;52.806;35.95708;-83.924034;815.13;NaN;;4.93;12.226105;163.9;15 / 18;138516;2022-10-24 15:46:08:252
6.2928;-3.5468;-3.7708;8.7769;3.703;-2.329;-3.2621;-8.026;-0.8478;-0.2436;0.6159;-1.6596;4327.0;-38.34;-16.18;6.53;214.57;-10.4;-109.52;2.0;987.0;58.985;35.957073;-83.924034;813.74;NaN;;5.15;12.226105;169.9;15 / 18;139017;2022-10-24 15:46:08:753
13.0514;0.9039;-1.0175;7.7644;-2.7435;-5.3252;3.8856;3.3428;3.1498;-0.4335;-0.4287;1.3777;4003.0;-34.65;-25.35;4.05;202.88;3.46;-115.36;2.0;987.03;51.306;35.957073;-83.924034;813.74;NaN;;5.15;12.226105;169.9;15 / 18;139516;2022-10-24 15:46:09:252
4.0974;-5.1891;-3.7505;8.0537;4.8603;-2.7723;-3.1029;-9.6956;-0.9283;0.7726;0.4232;-2.4341;4709.0;-38.78;-14.59;6.71;222.12;-14.45;-106.33;2.0;987.03;58.92;35.957054;-83.924034;812.82;NaN;;5.0;12.226105;172.6;15 / 18;140016;2022-10-24 15:46:09:752
12.0963;1.7764;-1.5084;8.0236;-2.3573;-5.1221;3.6746;3.3637;3.1875;-0.5529;-0.1833;1.2005;4052.0;-32.53;-23.66;7.2;201.0;13.91;-122.55;2.0;987.03;51.706;35.957054;-83.924034;812.82;NaN;;5.0;12.226105;172.6;15 / 18;140516;2022-10-24 15:46:10:252
4.5787;-3.0727;-2.8777;8.6388;3.0808;-3.4713;-3.6397;-6.1581;0.3861;0.6128;0.0241;-1.698;4199.0;-36.77;-17.7;5.59;235.76;-18.31;-111.89;2.0;987.0;61.358;35.957047;-83.924034;811.5;NaN;;4.9;12.226105;172.3;14 / 18;141016;2022-10-24 15:46:10:752
13.2323;-0.0072;-3.9179;7.9676;-2.9236;-4.9133;1.1314;1.7563;2.85;0.6126;-0.4514;1.5364;3368.0;-34.48;-22.22;5.81;202.62;17.35;-121.66;2.0;987.01;50.142;35.957047;-83.924034;811.5;NaN;;4.9;12.226105;172.3;14 / 18;141516;2022-10-24 15:46:11:252
6.7143;-4.5344;-3.4546;8.9034;2.6893;-3.1091;-1.4589;-7.0242;0.4568;0.3399;-0.3374;-1.0094;3545.0;-39.68;-6.82;7.46;217.24;5.58;-111.63;2.0;987.01;59.626;35.957035;-83.924034;810.19;NaN;;5.18;12.226105;170.8;14 / 18;142015;2022-10-24 15:46:11:751
11.5445;1.957;-3.5073;6.9378;-4.2856;-5.4471;4.5461;5.7497;2.5659;0.3764;-1.082;2.3613;3867.0;-33.39;-20.83;7.67;198.51;10.21;-118.76;2.0;987.03;51.933;35.957035;-83.924034;810.19;NaN;;5.18;12.226105;170.8;14 / 18;142515;2022-10-24 15:46:12:251
5.528;-5.3665;-4.6911;7.9728;3.2078;-4.7239;1.9104;-9.677;1.8414;1.2582;-0.8673;-1.987;3942.0;-34.43;-11.25;10.41;275.5;-19.09;-120.65;2.0;986.98;61.704;35.957024;-83.924034;808.78;NaN;;5.4;12.226105;171.7;14 / 18;143016;2022-10-24 15:46:12:752
12.8815;3.1017;-3.4032;7.4193;-4.0581;-4.9655;5.2242;5.7672;1.0565;-0.8979;0.5874;3.3345;3714.0;-21.67;-26.55;20.18;171.74;7.61;-123.67;2.0;987.02;54.73;35.957024;-83.924034;808.78;NaN;;5.4;12.226105;171.7;14 / 18;143516;2022-10-24 15:46:13:252
6.105;-3.8569;-5.2908;8.3937;2.2994;-4.5198;0.1875;-6.7474;1.1021;0.3868;-0.6401;-1.9253;3251.0;-37.56;-11.96;6.13;256.09;-13.56;-118.3;2.0;987.01;62.214;35.957016;-83.92403;809.0;NaN;;5.29;12.226105;176.2;14 / 18;144016;2022-10-24 15:46:13:752
12.2327;4.7653;-7.0663;8.5665;1.5756;-4.5059;1.9788;1.0102;0.7764;-7.0206;-1.8015;1.1971;3736.0;-23.74;-25.59;1.35;210.18;-14.21;-121.43;2.0;986.99;52.86;35.957016;-83.92403;809.0;NaN;;5.29;12.226105;176.2;14 / 18;144515;2022-10-24 15:46:14:251
6.1875;-1.1384;-3.5384;8.6559;4.5811;-0.5096;1.3;-3.8129;-0.5596;2.2601;1.5744;-1.5526;5609.0;-34.41;-14.36;-12.92;281.77;-27.85;-93.37;2.0;986.94;57.785;35.957005;-83.924034;808.5;NaN;;5.11;12.226105;197.3;14 / 18;145017;2022-10-24 15:46:14:753
9.8145;4.6792;-0.9482;8.0676;1.391;-5.399;0.5012;1.9391;3.9969;0.1701;-0.7544;0.5059;3596.0;-35.18;-27.02;-3.81;227.48;-15.39;-118.06;2.0;987.0;51.016;35.957005;-83.924034;808.5;NaN;;5.11;12.226105;197.3;14 / 18;145516;2022-10-24 15:46:15:252
5.2657;-2.3246;-5.0336;8.1118;4.5998;-3.0349;-2.1398;-5.6778;-2.2324;1.1421;0.9332;-2.169;3328.0;-44.18;-21.79;8.79;221.68;-15.76;-112.05;2.0;987.0;59.278;35.956993;-83.924034;806.82;NaN;;5.72;12.226105;166.5;15 / 18;146017;2022-10-24 15:46:15:753
10.322;2.01;-0.1125;7.9836;-0.4011;-5.6808;0.1785;0.5432;3.1689;-1.2028;-0.736;1.9295;3202.0;-35.81;-27.3;2.7;213.12;2.34;-125.43;2.0;986.99;55.128;35.956993;-83.924034;806.82;NaN;;5.72;12.226105;166.5;15 / 18;146516;2022-10-24 15:46:16:252
7.8826;-3.9168;-5.6943;9.047;3.6976;-0.8063;-2.2363;-8.1687;-6.8852;-0.3996;2.2226;-2.4093;3112.0;-40.01;-12.39;-1.86;304.72;-22.15;-95.09;2.0;986.98;64.465;35.956985;-83.92405;803.16;NaN;;10.12;12.226105;236.3;16 / 18;147016;2022-10-24 15:46:16:752
15.4588;2.1392;2.6037;7.887;-0.94;-5.7516;2.1307;1.2137;4.3345;-1.5268;-0.8482;2.192;3152.0;-36.07;-20.1;-10.03;232.93;5.5;-126.1;2.0;987.01;55.103;35.956985;-83.92405;803.16;NaN;;10.12;12.226105;236.3;16 / 18;147516;2022-10-24 15:46:17:252
4.6253;-5.4814;-3.256;7.1405;4.2198;-5.2322;0.2163;-7.729;-0.4543;-0.7053;1.5702;0.2538;3788.0;-39.73;-8.66;6.39;255.38;-6.4;-126.62;2.0;986.96;61.463;35.95697;-83.924065;800.61;NaN;;5.15;12.226105;216.6;15 / 18;148016;2022-10-24 15:46:17:752
12.3739;1.4342;-4.1907;5.7649;-4.0119;-6.844;6.9105;5.0687;2.5253;0.3103;-1.4899;2.2354;3478.0;-34.76;-19.41;5.14;214.97;11.13;-127.25;2.0;987.01;54.241;35.95697;-83.924065;800.61;NaN;;5.15;12.226105;216.6;15 / 18;148517;2022-10-24 15:46:18:253
5.6417;-5.4921;-5.5029;8.4446;2.1667;-4.4905;0.2638;-6.0639;-0.2805;1.0696;-1.7602;-1.8454;3448.0;-39.06;-7.97;5.83;271.88;-12.76;-118.0;2.0;986.98;62.632;35.956966;-83.92408;798.35;NaN;;5.0;12.226105;209.5;14 / 18;149016;2022-10-24 15:46:18:752
11.566;3.5504;-2.8513;7.3936;-1.6706;-6.2221;2.5916;5.6558;4.7352;-0.1817;-0.7013;1.0243;3635.0;-33.84;-23.94;8.38;208.21;4.55;-127.21;2.0;986.98;50.031;35.956966;-83.92408;798.35;NaN;;5.0;12.226105;209.5;14 / 18;149516;2022-10-24 15:46:19:252
9.1884;-3.0811;-6.9583;8.0357;3.3833;-4.4891;0.4036;-5.4938;0.9323;-2.4642;2.0511;0.2424;3502.0;-39.17;-16.11;7.33;260.79;-20.18;-119.19;2.0;986.95;56.329;35.956955;-83.92408;797.94;NaN;;5.18;12.226105;189.4;14 / 18;150016;2022-10-24 15:46:19:752
11.7024;2.5439;-2.4215;7.2171;-1.1799;-6.5339;5.5195;3.5837;3.3868;-1.3103;-0.3147;0.8909;3401.0;-36.62;-22.29;0.13;220.05;1.8;-121.47;2.0;986.99;53.459;35.956955;-83.92408;797.94;NaN;;5.18;12.226105;189.4;14 / 18;150516;2022-10-24 15:46:20:252
7.66;-3.4175;-4.2197;8.0929;2.877;-4.7326;0.7033;-4.5739;-0.2271;0.4926;1.6068;-1.3377;3649.0;-38.27;-16.07;3.98;252.1;-17.06;-120.32;2.0;986.95;60.252;35.956947;-83.92409;798.1;NaN;;4.72;12.226105;184.8;15 / 18;151015;2022-10-24 15:46:20:751
14.3504;1.203;-4.7414;7.4573;-2.0149;-6.0414;2.8972;3.2348;3.5652;-0.5101;-0.7572;1.3481;3153.0;-34.11;-23.64;4.37;211.26;3.03;-123.68;2.0;986.97;57.355;35.956947;-83.92409;798.1;NaN;;4.72;12.226105;184.8;15 / 18;151515;2022-10-24 15:46:21:251
9.7941;-2.916;-5.7206;7.4843;3.7148;-5.1338;-3.0398;-8.9051;1.5134;0.5184;-0.0983;-2.1235;3632.0;-38.51;-14.02;9.06;244.34;-12.53;-119.06;2.0;986.98;58.349;35.956936;-83.924095;797.99;NaN;;4.75;12.226105;188.9;15 / 18;152016;2022-10-24 15:46:21:752
16.4737;0.5937;-2.7066;7.4604;-2.2886;-5.9393;1.9326;3.8513;1.591;-1.6653;0.5004;1.1014;3281.0;-33.96;-22.61;11.72;201.25;13.5;-128.52;2.0;986.96;51.573;35.956936;-83.924095;797.99;NaN;;4.75;12.226105;188.9;15 / 18;152515;2022-10-24 15:46:22:251
4.0113;-3.6511;-5.7829;7.4495;3.7584;-5.1526;-4.4305;-7.5608;-0.0756;0.7529;-0.6754;-1.7433;3680.0;-35.34;-20.23;4.5;248.1;-22.54;-124.67;2.0;986.94;61.428;35.95693;-83.924095;797.57;NaN;;4.86;12.226105;179.9;14 / 18;153016;2022-10-24 15:46:22:752
13.6128;0.012;-2.1452;6.8605;-1.8165;-6.7679;2.8104;0.4296;6.4284;-0.2275;-0.7405;1.4308;3316.0;-34.54;-18.6;6.71;219.0;10.67;-134.61;2.0;987.0;50.381;35.95693;-83.924095;797.57;NaN;;4.86;12.226105;179.9;14 / 18;153516;2022-10-24 15:46:23:252
8.6545;-3.7421;-6.312;8.0058;2.6362;-5.0128;0.6372;-7.107;0.3541;-2.2055;1.6409;-0.6701;3303.0;-40.63;-2.44;4.71;256.41;3.69;-123.02;2.0;986.95;61.821;35.956917;-83.9241;796.17;NaN;;4.93;12.226105;198.5;14 / 18;154017;2022-10-24 15:46:23:753
13.3579;-0.0335;-1.8577;6.2965;-3.3104;-6.7502;6.1985;2.9978;4.702;-0.6183;-1.4937;2.4554;3059.0;-37.01;-15.04;-5.61;231.99;9.01;-121.85;2.0;986.97;55.411;35.956917;-83.9241;796.17;NaN;;4.93;12.226105;198.5;14 / 18;154517;2022-10-24 15:46:24:253
7.6887;-1.3143;-1.7225;7.1534;2.5801;-6.1921;6.7904;-8.3977;2.1814;-4.7205;6.7838;-2.9047;3140.0;-36.09;-5.32;2.83;277.63;-15.25;-130.88;2.0;986.92;66.118;35.956905;-83.92411;797.31;NaN;;4.86;12.226105;197.9;14 / 18;155017;2022-10-24 15:46:24:753
0.0036;5.3761;8.8271;1.7947;4.0751;8.7374;-1.209;0.8534;-0.9658;-0.1911;0.2419;0.4311;5013.0;4.24;-28.91;-21.34;205.31;-26.45;-11.52;2.0;986.9;62.439;35.956905;-83.92411;797.31;NaN;;4.86;12.226105;197.9;14 / 18;155516;2022-10-24 15:46:25:252
0.7971;6.1134;3.3721;3.6312;7.0657;5.7498;-1.1156;-2.4333;0.4257;1.3715;-0.1239;-1.3651;4553.0;11.03;-30.53;-25.78;246.9;-46.1;-32.27;2.0;986.93;49.14;35.956898;-83.924126;797.88;NaN;;5.04;12.226105;209.1;15 / 18;156017;2022-10-24 15:46:25:753
1.0068;7.5437;3.3864;3.6026;8.4202;3.5059;-3.1612;-1.5874;-1.3891;-0.6929;-0.0988;0.0999;3721.0;13.29;-35.04;-16.41;231.8;-57.49;-41.63;2.0;986.93;46.797;35.956898;-83.924126;797.88;NaN;;5.04;12.226105;209.1;15 / 18;156516;2022-10-24 15:46:26:252
0.4669;4.8398;2.2098;2.5742;8.0851;4.9168;0.3798;-1.5385;-0.5127;0.3199;0.2931;-0.2573;3746.0;13.01;-33.13;-21.17;248.65;-55.53;-27.63;2.0;986.9;55.965;35.956886;-83.924126;796.33;NaN;;4.79;12.226105;198.8;14 / 18;157015;2022-10-24 15:46:26:751
2.6169;6.5695;6.7322;4.5963;7.1833;4.8419;-2.5449;-0.9915;-0.8476;0.7717;-1.6555;-0.2732;3364.0;11.46;-31.69;-23.62;238.47;-44.45;-38.25;2.0;986.93;49.521;35.956886;-83.924126;796.33;NaN;;4.79;12.226105;198.8;14 / 18;157516;2022-10-24 15:46:27:252
1.8936;3.9179;5.0013;3.525;7.8966;4.6249;-0.9796;-3.5817;-1.2281;-0.3698;1.5018;-0.4113;3178.0;2.64;-32.96;-24.75;244.66;-51.38;-50.83;2.0;986.9;57.37;35.956875;-83.92414;794.25;NaN;;4.43;12.226105;207.8;14 / 18;158015;2022-10-24 15:46:27:751
2.7245;5.8893;5.2178;5.6874;7.023;3.8081;-2.2708;-0.4613;-1.5502;0.1512;-1.1553;-0.1125;3085.0;3.26;-35.1;-21.73;228.83;-45.74;-56.2;2.0;986.92;48.014;35.956875;-83.92414;794.25;NaN;;4.43;12.226105;207.8;14 / 18;158516;2022-10-24 15:46:28:252
3.5683;5.4191;1.6507;3.9461;8.4397;3.061;-0.4573;-3.7922;-0.1026;0.7075;1.4856;-0.8009;3293.0;-0.45;-36.71;-18.13;236.68;-59.39;-52.2;2.0;986.9;52.026;35.956867;-83.92414;792.75;NaN;;4.72;12.226105;212.1;14 / 18;159016;2022-10-24 15:46:28:752
4.471;6.3359;4.5703;6.7896;5.4743;4.4837;-0.3581;2.8211;2.4857;-0.1813;-0.885;-0.33;3373.0;2.19;-37.07;-16.35;208.42;-33.93;-56.56;2.0;986.92;49.292;35.956867;-83.92414;792.75;NaN;;4.72;12.226105;212.1;14 / 18;159516;2022-10-24 15:46:29:252
3.457;4.7354;4.1632;5.5137;7.1609;3.8068;-1.9658;-2.7255;-0.7385;0.4318;2.0E-4;-0.1475;2689.0;-6.6;-33.73;-25.11;231.21;-39.75;-55.78;2.0;986.91;51.54;35.95686;-83.92415;790.05;NaN;;4.07;12.226105;205.9;14 / 18;160016;2022-10-24 15:46:29:752
2.6384;5.7817;3.9694;6.0536;6.8488;3.5522;-3.5806;-1.5544;-0.2843;-0.8828;-0.431;-0.3922;2609.0;-1.84;-34.59;-22.63;230.58;-44.89;-61.82;2.0;986.9;46.974;35.95686;-83.92415;790.05;NaN;;4.07;12.226105;205.9;14 / 18;160516;2022-10-24 15:46:30:252
4.0364;5.0276;2.4108;5.3632;7.0367;4.2298;-0.2935;-1.715;0.3089;0.6795;0.2262;-0.4951;2749.0;-2.18;-28.59;-28.35;252.28;-45.85;-51.74;2.0;986.93;47.869;35.95685;-83.92416;788.21;NaN;;4.57;12.226105;210.1;14 / 18;161016;2022-10-24 15:46:30:752
3.8474;6.5779;4.7031;6.0978;6.6053;3.9188;-2.8004;-0.3675;-0.5578;-0.7658;-0.56;-0.1302;2824.0;1.61;-26.57;-28.16;247.44;-43.19;-56.04;2.0;986.94;47.616;35.95685;-83.92416;788.21;NaN;;4.57;12.226105;210.1;14 / 18;161516;2022-10-24 15:46:31:252
3.28;4.4399;3.1364;5.629;7.0367;3.8691;0.6767;-0.9561;1.0165;0.5336;0.4617;-0.3135;2805.0;0.15;-11.87;-39.13;283.12;-45.85;-55.5;2.0;986.9;48.818;35.95684;-83.92417;788.56;NaN;;4.68;12.226105;209.4;14 / 18;162017;2022-10-24 15:46:31:753
3.4642;5.8702;5.6584;5.9263;6.4443;4.4182;-2.0442;0.0336;-2.0476;-0.2567;-0.1997;-0.2572;2900.0;20.48;-2.76;-59.81;281.52;-38.56;-50.22;2.0;986.92;49.03;35.95684;-83.92417;788.56;NaN;;4.68;12.226105;209.4;14 / 18;162516;2022-10-24 15:46:32:252
1.8494;5.3569;4.0771;3.6945;7.6571;4.8877;-0.4863;-1.9799;-0.4153;0.0802;0.5346;-0.2278;2995.0;47.31;-17.29;-48.22;263.73;-48.31;-41.09;2.0;986.89;48.632;35.95683;-83.92418;785.52;NaN;;4.54;12.226105;209.1;14 / 18;163018;2022-10-24 15:46:32:754
2.4778;4.605;7.095;3.7658;5.6942;7.0402;-0.0548;0.6121;-0.4233;-0.1984;0.7759;-0.0553;3255.0;35.96;-31.61;-22.22;238.91;-45.58;-36.99;2.0;986.89;46.637;35.95683;-83.92418;785.52;NaN;;4.54;12.226105;209.1;14 / 18;163516;2022-10-24 15:46:33:252
2.016;4.5153;6.5085;3.2627;5.7995;7.2036;-0.2671;-0.8163;-0.4488;0.5107;-0.1284;-0.2092;3829.0;20.03;-28.69;-26.46;240.85;-32.53;-24.32;2.0;986.9;52.86;35.95682;-83.92419;786.97;NaN;;4.64;12.226105;206.8;14 / 18;164017;2022-10-24 15:46:33:753
3.5157;5.5914;6.0787;3.9655;5.4711;7.1072;1.2727;0.0299;3.7881;-0.3955;-0.0549;-0.4021;3701.0;14.57;-29.74;-27.06;238.93;-33.91;-29.16;2.0;986.89;47.401;35.95682;-83.92419;786.97;NaN;;4.64;12.226105;206.8;14 / 18;164516;2022-10-24 15:46:34:252
2.0303;3.8091;6.5192;3.8787;5.6207;7.038;-0.1368;-0.5133;0.2017;0.9373;0.4032;0.0612;3857.0;12.73;-27.15;-32.03;250.2;-34.97;-28.86;2.0;986.9;47.956;35.956806;-83.924194;788.36;NaN;;4.72;12.226105;205.3;14 / 18;165017;2022-10-24 15:46:34:753
2.6264;4.6588;6.5815;4.4387;5.3074;6.9498;1.563;0.709;2.4896;0.1262;-0.3596;-0.2902;3686.0;12.64;-28.09;-30.15;243.27;-32.77;-32.57;2.0;986.92;47.27;35.956806;-83.924194;788.36;NaN;;4.72;12.226105;205.3;14 / 18;165516;2022-10-24 15:46:35:252
3.0224;4.0639;5.4658;4.0531;4.6265;7.638;-0.2672;-0.5737;5.2648;1.0051;0.4063;0.2957;4293.0;11.46;-24.28;-33.43;252.24;-31.67;-30.23;2.0;986.92;54.079;35.9568;-83.924194;787.89;NaN;;4.46;12.226105;201.2;14 / 18;166016;2022-10-24 15:46:35:752
3.4271;4.9104;4.5428;5.0596;4.6244;7.0133;0.6691;0.0633;3.3645;-1.1579;-0.0951;-0.1811;3694.0;8.85;-26.04;-29.91;246.07;-33.73;-35.72;2.0;986.93;51.686;35.9568;-83.924194;787.89;NaN;;4.46;12.226105;201.2;14 / 18;166516;2022-10-24 15:46:36:252
6.2569;3.6978;10.9675;4.6845;4.3985;7.4081;-1.2026;1.2551;1.454;0.6673;0.3275;0.5019;5709.0;6.84;-19.71;-34.44;254.53;-26.65;-32.31;2.0;986.9;48.305;35.956787;-83.9242;788.67;NaN;;4.68;12.226105;198.0;13 / 18;167015;2022-10-24 15:46:36:751
5.1066;4.5081;8.5792;4.8633;4.6119;7.1589;3.0668;0.4987;3.1648;-1.1719;-1.3431;-0.0935;4039.0;9.3;-21.02;-32.62;260.42;-33.85;-30.43;2.0;986.91;49.248;35.956787;-83.9242;788.67;NaN;;4.68;12.226105;198.0;13 / 18;167516;2022-10-24 15:46:37:252
5.6716;4.156;9.7965;4.829;4.2393;7.408;-1.612;1.0051;2.2584;0.3593;0.7142;0.3367;7295.0;6.94;-15.84;-36.51;264.13;-25.61;-33.1;2.0;986.92;50.699;35.956776;-83.92421;789.91;NaN;;4.68;12.226105;206.6;12 / 18;168016;2022-10-24 15:46:37:752
15.0015;-0.3138;7.4922;6.9259;4.5843;5.2141;0.7405;-3.2707;-3.1534;-0.883;-3.3137;1.7563;3924.0;5.1;-18.58;-34.56;254.1;-27.87;-53.03;2.0;986.91;49.463;35.956776;-83.92421;789.91;NaN;;4.68;12.226105;206.6;12 / 18;168515;2022-10-24 15:46:38:251
14.2232;-2.2301;3.2417;9.3944;-2.221;-1.7271;6.172;3.0524;6.4155;-0.2621;-0.3957;0.1082;9720.0;-30.86;3.34;-24.73;263.66;12.82;-97.31;2.0;986.93;49.238;35.956764;-83.92421;788.98;NaN;;4.43;12.226105;207.2;12 / 18;169016;2022-10-24 15:46:38:752
8.8104;-3.1962;-3.9526;9.4455;1.8772;-1.8518;-0.647;-5.0252;0.4879;-0.7307;-0.3512;1.496;2946.0;-35.49;-1.07;-19.91;286.66;-12.48;-92.32;2.0;986.94;54.912;35.956764;-83.92421;788.98;NaN;;4.43;12.226105;207.2;12 / 18;169515;2022-10-24 15:46:39:251
16.5948;-2.1248;1.7764;8.0846;-4.0234;-3.8239;7.3491;2.2981;5.15;-0.0312;-0.2175;0.7301;4087.0;-39.0;2.49;-14.33;254.05;19.88;-114.34;2.0;986.97;48.911;35.956757;-83.92422;790.49;NaN;;4.64;12.226105;211.1;12 / 18;170017;2022-10-24 15:46:39:753
6.4508;-3.8689;-2.764;9.3109;2.528;-1.7569;-1.7583;-6.4025;0.2202;0.3386;-0.3967;0.0387;2043.0;-36.98;-4.26;-14.92;282.51;-14.94;-100.69;2.0;986.95;55.175;35.956757;-83.92422;790.49;NaN;;4.64;12.226105;211.1;12 / 18;170517;2022-10-24 15:46:40:253
14.1682;0.6894;0.6547;7.9141;-3.4877;-4.623;5.7703;4.3992;4.4354;-0.8873;-0.7275;1.5561;2721.0;-39.49;-1.26;-12.04;250.29;20.83;-120.29;2.0;986.94;50.2;35.95675;-83.924225;790.58;NaN;;4.86;12.226105;228.9;12 / 18;171017;2022-10-24 15:46:40:753
6.6174;-2.3593;-5.3498;7.9059;4.2336;-3.9679;-0.3514;-7.3704;-0.219;0.5138;-0.6206;-0.8083;4553.0;-37.74;-0.21;-11.7;293.95;-25.58;-116.65;2.0;986.95;56.683;35.95675;-83.924225;790.58;NaN;;4.86;12.226105;228.9;12 / 18;171516;2022-10-24 15:46:41:252
13.086;2.4969;-1.3023;8.9599;1.9999;-3.4483;2.3123;0.9653;9.1282;1.2519;-0.0953;-0.2414;13863.0;-34.99;-15.62;-6.34;246.34;-14.4;-110.72;2.0;986.96;50.666;35.956738;-83.92423;792.61;NaN;;5.15;12.226105;196.9;12 / 18;172016;2022-10-24 15:46:41:752
7.5341;0.2405;-4.8625;8.4786;4.5113;-1.983;-2.8944;-5.2815;-2.3238;0.5905;-0.229;-0.5211;12507.0;-38.29;-4.26;-15.67;297.42;-24.61;-98.31;2.0;986.91;49.192;35.956738;-83.92423;792.61;NaN;;5.15;12.226105;196.9;12 / 18;172516;2022-10-24 15:46:42:252
9.0509;2.8322;-1.1264;8.1243;-0.0084;-5.4923;1.077;2.8652;2.9589;-0.2585;0.1951;0.7196;4793.0;-40.57;-4.5;-10.14;262.66;0.05;-124.06;2.0;986.94;48.666;35.95673;-83.92424;790.66;NaN;;4.9;12.226105;212.8;12 / 18;173016;2022-10-24 15:46:42:752
6.0715;-2.7269;-3.6811;9.2203;3.0691;-1.3183;-2.1036;-5.5296;-2.7515;1.88;1.2419;-0.8842;4341.0;-40.03;-0.56;-10.95;291.4;-13.76;-102.95;2.0;986.93;53.84;35.95673;-83.92424;790.66;NaN;;4.9;12.226105;212.8;12 / 18;173516;2022-10-24 15:46:43:252
10.4456;0.7385;-0.1519;8.1896;-2.9874;-4.4919;2.0234;1.5363;3.741;-0.9609;-0.2973;1.2527;2541.0;-36.98;-6.39;-15.19;246.59;17.74;-118.74;2.0;986.96;57.681;35.95672;-83.92425;791.51;NaN;;4.68;12.226105;209.9;13 / 18;174016;2022-10-24 15:46:43:752
6.4941;-3.6401;-2.15;9.2007;2.5618;-2.2258;-1.0307;-5.873;-0.9093;0.0688;-0.1842;-0.6829;3968.0;-37.48;6.66;-13.88;285.28;1.14;-105.33;2.0;986.95;54.191;35.95672;-83.92425;791.51;NaN;;4.68;12.226105;209.9;13 / 18;174517;2022-10-24 15:46:44:253
11.9465;1.5562;-0.8246;8.2396;-2.8329;-4.5005;2.6922;4.6831;2.8704;-0.6183;-0.4934;1.7906;3185.0;-38.03;-6.36;-15.9;252.1;7.27;-113.15;2.0;986.95;47.106;35.95671;-83.924255;790.08;NaN;;4.46;12.226105;215.9;13 / 18;175016;2022-10-24 15:46:44:752
5.6788;-3.0272;-3.0858;9.158;2.2813;-2.6641;-0.823;-5.2955;-0.003;0.2853;-0.1937;-1.1556;3764.0;-39.3;6.79;-13.84;278.76;5.27;-109.15;2.0;986.94;49.324;35.95671;-83.924255;790.08;NaN;;4.46;12.226105;215.9;13 / 18;175516;2022-10-24 15:46:45:252
10.5449;0.6523;-1.4833;8.13;-2.5826;-4.8377;2.2281;2.8473;3.0939;-1.3251;-0.4655;2.0629;2462.0;-37.2;-10.95;-13.63;244.23;5.7;-115.06;2.0;986.96;49.269;35.956703;-83.92426;789.23;NaN;;4.57;12.226105;218.3;12 / 18;176016;2022-10-24 15:46:45:752
7.8562;-3.1998;-2.7676;9.1685;0.8575;-3.3725;2.2139;-3.9108;0.4048;0.9128;0.2182;-2.4572;3966.0;-39.41;8.68;-10.41;297.44;-5.02;-110.2;2.0;986.95;48.028;35.956703;-83.92426;789.23;NaN;;4.57;12.226105;218.3;12 / 18;176516;2022-10-24 15:46:46:252
10.8356;1.6735;-1.349;8.6752;-1.2601;-4.3958;0.8819;1.8227;1.8267;-1.2766;-0.2081;2.2324;2842.0;-38.38;-9.64;-12.41;244.04;7.38;-116.87;2.0;986.97;48.76;35.9567;-83.92427;789.41;NaN;;4.43;12.226105;221.3;12 / 18;177017;2022-10-24 15:46:46:753
7.812;-2.8178;-2.5439;9.0575;-0.2924;-3.748;4.5847;-1.6826;0.3999;0.7689;0.5871;-2.6284;4206.0;-40.59;10.56;-9.77;291.83;1.71;-112.48;2.0;986.94;48.158;35.9567;-83.92427;789.41;NaN;;4.43;12.226105;221.3;12 / 18;177517;2022-10-24 15:46:47:253
9.0688;0.99;-3.0464;8.9312;-0.5697;-4.0099;1.7987;0.6235;0.4774;-0.1877;-0.4726;1.4103;3553.0;-38.74;-10.18;-14.34;259.62;-8.95;-112.82;2.0;986.97;48.15;35.95669;-83.92428;790.08;NaN;;4.82;12.226105;234.5;12 / 18;178016;2022-10-24 15:46:47:752
8.1497;-2.3366;-2.4072;9.136;0.799;-3.4735;1.8548;-3.4938;1.4011;0.6362;0.655;-2.4041;3389.0;-41.18;7.93;-11.17;275.16;9.69;-116.54;2.0;986.95;47.678;35.95669;-83.92428;790.08;NaN;;4.82;12.226105;234.5;12 / 18;178515;2022-10-24 15:46:48:251
10.9555;0.9984;-3.4199;8.9135;1.2545;-3.8918;1.3327;-2.0967;-0.1994;0.4033;-0.2324;1.4735;2351.0;-38.18;-13.72;-13.27;249.58;-7.35;-113.59;2.0;986.94;47.992;35.956688;-83.92429;790.54;NaN;;4.61;12.226105;246.3;12 / 18;179016;2022-10-24 15:46:48:752
13.171;-1.2389;-1.9836;8.8312;-1.1358;-4.1098;3.9373;1.2656;2.2998;-0.0956;0.2677;-0.5328;1911.0;-41.72;-2.42;-10.03;253.92;11.15;-117.98;2.0;986.97;46.189;35.956688;-83.92429;790.54;NaN;;4.61;12.226105;246.3;12 / 18;179515;2022-10-24 15:46:49:251
13.4405;-0.4561;-3.7062;9.0252;2.067;-3.2318;-1.931;-3.0947;1.1406;0.2484;-0.5369;1.1388;2229.0;-38.25;-12.58;-11.33;255.6;-12.17;-109.7;2.0;986.98;53.392;35.956688;-83.9243;789.28;NaN;;4.21;12.226105;252.2;12 / 18;180016;2022-10-24 15:46:49:752
14.6925;-0.7134;0.0479;8.4338;-2.5682;-4.2948;6.4115;2.2592;2.227;0.4513;0.848;-1.9421;1698.0;-41.31;-4.97;-8.23;244.02;13.31;-116.72;2.0;986.96;49.168;35.956688;-83.9243;789.28;NaN;;4.21;12.226105;252.2;12 / 18;180516;2022-10-24 15:46:50:252
10.625;-1.8147;-2.91;9.0531;0.7262;-3.6992;0.2193;-3.0838;0.2185;0.1316;-0.4254;1.1741;2195.0;-36.6;-16.87;-8.38;245.28;-13.2;-109.73;2.0;986.97;55.44;35.956684;-83.92432;789.49;NaN;;4.39;12.226105;252.5;12 / 18;181017;2022-10-24 15:46:50:753
16.876;-0.7337;-1.4545;7.7592;-4.1324;-4.346;5.2582;5.1186;0.727;-0.2637;0.7844;-1.3573;1529.0;-38.98;-10.78;-4.48;224.03;20.56;-116.81;2.0;986.99;51.75;35.956684;-83.92432;789.49;NaN;;4.39;12.226105;252.5;12 / 18;181516;2022-10-24 15:46:51:252
13.6379;-1.9415;-3.1268;9.0153;2.355;-3.0575;-1.6416;-6.4561;-0.6779;-0.3997;-0.3418;0.5469;2274.0;-35.27;-16.69;-5.29;247.89;-18.19;-107.4;2.0;986.94;58.888;35.95668;-83.92433;789.8;NaN;;5.29;12.226105;230.8;12 / 18;182015;2022-10-24 15:46:51:751
16.0561;-0.4741;-0.7337;7.6041;-4.0836;-4.6553;6.279;5.8268;3.4515;0.2035;1.2918;-0.9599;1655.0;-39.51;-8.08;-5.01;230.96;24.61;-121.48;2.0;986.96;53.85;35.95668;-83.92433;789.8;NaN;;5.29;12.226105;230.8;12 / 18;182516;2022-10-24 15:46:52:252
5.6297;-4.6361;-3.4738;8.8291;2.3078;-3.5905;-2.5768;-7.9356;0.6827;0.6286;-0.3536;-0.2657;2083.0;-34.43;-19.24;-4.39;235.36;-13.61;-112.13;2.0;986.94;56.975;35.95667;-83.92434;789.61;NaN;;4.43;12.226105;214.2;12 / 18;183016;2022-10-24 15:46:52:752
16.354;-1.9475;-1.6699;7.4736;-4.4615;-4.5177;4.4245;5.825;3.6663;-0.4504;0.8195;-0.2987;1415.0;-37.8;-11.17;-2.16;221.54;27.06;-121.15;2.0;986.95;56.478;35.95667;-83.92434;789.61;NaN;;4.43;12.226105;214.2;12 / 18;183515;2022-10-24 15:46:53:251
10.5867;-2.7437;-3.9897;7.9303;3.674;-4.4477;-2.181;-8.3032;1.6829;-0.0725;0.0952;2.6359;1828.0;-36.56;-12.94;-4.03;254.79;-13.89;-111.6;2.0;986.96;58.417;35.956657;-83.92434;789.32;NaN;;4.43;12.226105;196.5;12 / 18;184015;2022-10-24 15:46:53:751
16.421;-0.3126;-2.4359;7.6937;-4.2896;-4.31;8.9918;5.9364;1.712;-0.7187;-0.0099;0.503;1405.0;-40.18;-8.21;-2.44;222.16;27.01;-118.06;2.0;986.98;54.6;35.956657;-83.92434;789.32;NaN;;4.43;12.226105;196.5;12 / 18;184516;2022-10-24 15:46:54:252
6.7322;-6.1768;-2.3521;7.9624;3.4765;-4.5481;-2.6265;-8.1023;2.7968;0.3623;-0.092;2.3983;2034.0;-36.3;-19.33;-1.78;250.25;-20.76;-119.73;2.0;986.94;53.375;35.956642;-83.92434;788.85;NaN;;4.5;12.226105;197.5;12 / 18;185016;2022-10-24 15:46:54:752
13.6582;0.3281;-3.3027;7.6506;-4.2916;-4.3841;5.5524;4.509;0.0809;-0.1045;-0.0098;0.1311;1467.0;-39.47;-12.43;-2.55;220.97;25.74;-119.24;2.0;986.99;49.96;35.956642;-83.92434;788.85;NaN;;4.5;12.226105;197.5;12 / 18;185516;2022-10-24 15:46:55:252
11.7012;-4.8565;-6.4412;8.4505;3.2343;-3.7813;-1.4366;-6.6612;0.7486;0.8815;0.1726;0.3872;2142.0;-38.94;-10.61;-7.01;271.06;-19.26;-114.11;2.0;986.95;59.192;35.956627;-83.92433;788.26;NaN;;4.57;12.226105;201.3;13 / 18;186015;2022-10-24 15:46:55:751
8.013;-0.6858;-2.1021;8.04;-3.2345;-4.5898;-1.1213;3.2379;3.3642;-0.4534;0.3463;0.1766;2028.0;-39.41;-10.59;-3.24;224.64;19.9;-118.52;2.0;986.96;53.729;35.956627;-83.92433;788.26;NaN;;4.57;12.226105;201.3;13 / 18;186516;2022-10-24 15:46:56:252
6.6688;-2.697;-2.6791;9.085;-1.2717;-3.4665;2.4434;-1.7213;0.265;0.175;-0.0841;-1.5277;2117.0;-42.34;-1.07;-9.83;256.99;7.45;-110.89;2.0;986.97;46.556;35.956615;-83.92434;789.57;NaN;;4.1;12.226105;210.6;13 / 18;187016;2022-10-24 15:46:56:752
6.7573;-0.3317;-1.3884;8.5053;-1.5703;-4.6222;1.8317;0.7034;0.1273;-1.0496;0.1607;1.1518;2394.0;-40.56;-10.33;-8.79;248.22;1.37;-117.56;2.0;986.96;47.721;35.956615;-83.92434;789.57;NaN;;4.1;12.226105;210.6;13 / 18;187516;2022-10-24 15:46:57:252
8.444;-1.908;-2.7245;8.9781;0.7836;-3.8666;0.4763;-2.8265;1.1333;0.8424;0.191;-2.5867;2640.0;-41.53;7.22;-9.36;271.6;10.46;-115.89;2.0;987.01;47.528;35.956608;-83.92434;790.35;NaN;;4.43;12.226105;244.6;13 / 18;188017;2022-10-24 15:46:57:753
8.7864;7.3116;2.4837;8.6153;3.6502;-2.9366;7.1035;3.3888;2.5813;-3.4941;6.4709;-0.9939;3070.0;-37.44;-14.98;-13.56;264.18;-21.85;-108.82;2.0;986.94;46.946;35.956608;-83.92434;790.35;NaN;;4.43;12.226105;244.6;13 / 18;188516;2022-10-24 15:46:58:252
1.5598;4.174;5.6429;2.5814;5.1122;7.9607;0.0127;-0.9103;0.0921;0.0132;0.5156;0.9086;5454.0;11.36;-10.26;-39.56;292.69;-31.42;-17.97;2.0;986.92;54.864;35.956608;-83.924355;791.86;NaN;;4.68;12.226105;240.1;14 / 18;189015;2022-10-24 15:46:58:751
2.3737;2.9447;8.4535;3.9624;2.9168;8.483;-0.4787;-0.5688;2.1798;-0.3312;0.5627;0.616;4700.0;16.97;-16.86;-35.57;254.2;-17.3;-25.04;2.0;986.9;51.98;35.956608;-83.924355;791.86;NaN;;4.68;12.226105;240.1;14 / 18;189515;2022-10-24 15:46:59:251
2.6169;1.8661;9.0305;3.6016;2.1554;8.863;0.0534;1.5444;1.5212;-0.114;-0.6245;-0.9431;4867.0;11.64;-18.53;-36.84;247.97;-16.42;-18.73;2.0;986.9;48.055;35.9566;-83.92436;792.27;NaN;;4.18;12.226105;242.2;14 / 18;190017;2022-10-24 15:46:59:753
5.5077;-0.0897;6.6473;7.0174;-0.9814;6.7796;-0.4092;-0.2149;0.8801;-0.1573;-0.0202;-0.6316;17789.0;1.91;-4.44;-42.73;257.86;5.83;-45.49;2.0;986.91;48.12;35.9566;-83.92436;792.27;NaN;;4.18;12.226105;242.2;14 / 18;190516;2022-10-24 15:47:00:252
8.6737;-0.7469;7.4252;7.9311;-0.1258;5.7664;2.2561;-3.1842;7.0514;2.795;0.3706;-0.5359;40016.0;-10.26;8.93;-43.57;286.08;0.73;-53.98;2.0;986.93;49.102;35.9566;-83.92438;792.49;NaN;;4.5;12.226105;254.2;14 / 18;191016;2022-10-24 15:47:00:752
7.7988;1.8063;4.1477;7.8852;1.618;5.6014;1.8444;-0.3124;2.5587;-1.519;0.4088;0.2399;12384.0;-11.19;-6.67;-42.0;276.05;-17.17;-55.53;2.0;986.93;47.22;35.9566;-83.92438;792.49;NaN;;4.5;12.226105;254.2;14 / 18;191516;2022-10-24 15:47:01:252
6.719;-0.1208;6.7848;8.0808;0.5423;5.5297;2.7287;-0.8294;4.9275;1.6294;0.6741;0.1854;34729.0;-12.17;1.24;-42.64;275.75;-3.17;-55.62;2.0;986.93;47.773;35.956593;-83.924385;793.31;NaN;;4.39;12.226105;235.7;14 / 18;192016;2022-10-24 15:47:01:752
5.0504;2.9375;8.0596;5.1543;2.2916;8.022;1.5173;-0.8922;4.0716;-0.4031;-0.1842;-0.3713;9300.0;4.78;-9.96;-41.7;284.32;-23.77;-23.9;2.0;986.93;48.132;35.956593;-83.924385;793.31;NaN;;4.39;12.226105;235.7;14 / 18;192516;2022-10-24 15:47:02:252
5.9315;0.7158;10.3687;5.3254;1.678;8.062;-0.4593;-1.4764;3.7263;0.3622;0.5679;0.2907;19254.0;5.19;-5.14;-43.39;271.69;-10.32;-35.25;2.0;986.96;48.324;35.95659;-83.9244;793.87;NaN;;4.54;12.226105;243.5;14 / 18;193016;2022-10-24 15:47:02:752
7.9508;2.7078;13.2885;5.93;3.486;6.9895;0.2197;0.9579;-0.8466;-1.0796;0.482;-0.3728;6502.0;6.3;-12.45;-40.5;276.67;-26.52;-31.69;2.0;986.94;48.747;35.95659;-83.9244;793.87;NaN;;4.54;12.226105;243.5;14 / 18;193516;2022-10-24 15:47:03:252
7.5425;2.1272;12.7558;6.2316;2.1022;7.2745;0.3637;0.563;3.8561;0.3018;-0.2576;0.6919;16778.0;1.11;-7.09;-42.79;272.77;-14.2;-38.39;2.0;986.96;48.761;35.956585;-83.924416;794.43;NaN;;4.9;12.226105;239.9;14 / 18;194017;2022-10-24 15:47:03:753
7.1381;3.4211;13.0753;4.2754;3.412;8.1394;-3.1328;-1.4975;-2.4389;0.0515;-1.8248;0.5957;8034.0;6.21;-12.38;-40.52;270.96;-20.36;-27.71;2.0;986.93;47.512;35.956585;-83.924416;794.43;NaN;;4.9;12.226105;239.9;14 / 18;194516;2022-10-24 15:47:04:252
2.0471;3.6667;10.7124;2.0158;4.343;8.5583;-0.9553;-0.5238;-1.0557;1.2313;0.9377;0.6626;7005.0;13.33;-13.24;-38.64;280.07;-26.29;-13.25;2.0;986.92;47.778;35.956577;-83.92442;795.01;NaN;;4.5;12.226105;243.7;13 / 18;195015;2022-10-24 15:47:04:751
5.1497;1.5933;15.0769;2.6298;4.1823;8.4713;-1.7673;-0.3265;-0.4297;-0.3867;-0.6216;0.5361;4908.0;19.31;-18.51;-33.94;258.51;-25.24;-17.25;2.0;986.98;47.631;35.956577;-83.92442;795.01;NaN;;4.5;12.226105;243.7;13 / 18;195516;2022-10-24 15:47:05:252
2.077;0.6715;15.0374;2.3235;2.3584;9.2309;-1.7391;0.8143;-0.2093;-0.9923;-0.3772;-0.2601;8059.0;17.04;-13.78;-37.22;257.31;-14.25;-15.12;2.0;986.96;49.459;35.956577;-83.92443;794.74;NaN;;4.5;12.226105;243.8;13 / 18;196015;2022-10-24 15:47:05:751
3.4702;-1.6974;15.4983;2.7843;0.6478;9.3807;-1.7376;-0.0506;1.6644;-1.1011;-0.4607;-0.1597;10404.0;18.73;-7.13;-39.41;269.9;-11.74;-13.55;2.0;986.98;47.63;35.956577;-83.92443;794.74;NaN;;4.5;12.226105;243.8;13 / 18;196516;2022-10-24 15:47:06:252
1.3813;0.9936;9.7702;2.5856;0.325;9.4541;-1.6434;-0.1155;0.6491;-0.5029;0.3032;0.3437;19837.0;17.33;0.47;-42.15;272.49;-1.9;-15.3;2.0;986.97;48.357;35.95657;-83.924446;795.27;NaN;;4.57;12.226105;245.9;13 / 18;197017;2022-10-24 15:47:06:753
2.636;-2.455;10.558;2.8354;0.1715;9.3862;-0.6556;-0.5726;-1.3207;-1.6868;-0.4604;-0.9519;16333.0;18.71;-1.28;-40.84;279.12;-9.08;-14.1;2.0;986.98;47.809;35.95657;-83.924446;795.27;NaN;;4.57;12.226105;245.9;13 / 18;197516;2022-10-24 15:47:07:252
4.9953;-5.4419;12.7989;3.8773;-1.8735;8.8106;-2.5995;0.3534;-1.4686;0.2155;0.0363;0.5308;38045.0;12.73;17.4;-41.36;290.31;11.01;-23.75;2.0;986.94;49.279;35.956566;-83.92446;794.75;NaN;;4.5;12.226105;249.0;14 / 18;198017;2022-10-24 15:47:07:753
5.5101;-1.2556;9.5991;5.304;0.954;8.1931;-2.4844;-0.7028;-3.7036;-1.601;-0.6285;0.8044;28802.0;6.99;7.63;-43.67;293.75;-7.07;-29.54;2.0;986.97;51.243;35.956566;-83.92446;794.75;NaN;;4.5;12.226105;249.0;14 / 18;198516;2022-10-24 15:47:08:252
5.4945;-0.3568;9.149;5.2722;-0.6629;8.2423;-1.7427;-0.5062;2.1093;0.4471;0.0487;0.3303;30150.0;3.77;5.94;-45.32;274.87;5.8;-32.83;2.0;986.97;49.003;35.95656;-83.92447;795.04;NaN;;4.68;12.226105;245.8;14 / 18;199015;2022-10-24 15:47:08:751
1.3896;-1.1719;7.1369;2.8007;0.6495;9.3757;1.2857;0.8287;-2.9207;0.2716;-0.9222;-1.1607;17003.0;8.83;2.44;-44.36;276.9;-2.93;-31.14;2.0;986.95;50.498;35.95656;-83.92447;795.04;NaN;;4.68;12.226105;245.8;14 / 18;199516;2022-10-24 15:47:09:252
2.4335;2.132;6.3969;4.0537;-0.6092;8.9088;-3.2662;2.2531;-1.6374;-2.1312;3.1272;-0.4895;19771.0;23.76;-1.8;-44.55;269.34;-3.67;-35.19;2.0;986.93;49.513;35.956554;-83.924484;795.08;NaN;;4.57;12.226105;253.5;14 / 18;200015;2022-10-24 15:47:09:751
2.4012;-0.1125;5.8451;4.5309;1.1555;8.6201;-2.2741;-2.1416;-2.7848;-0.2951;-0.1784;0.0379;17455.0;9.47;2.48;-44.77;282.08;-6.77;-27.73;2.0;986.96;49.724;35.956554;-83.924484;795.08;NaN;;4.57;12.226105;253.5;14 / 18;200515;2022-10-24 15:47:10:251
2.904;0.2764;9.6984;5.031;-0.0255;8.4177;-1.6847;0.5733;-0.0921;-0.3756;-0.1161;-0.1335;14634.0;7.35;2.53;-45.75;275.61;0.15;-30.87;2.0;986.94;49.076;35.95655;-83.9245;795.96;NaN;;4.43;12.226105;245.4;14 / 17;201015;2022-10-24 15:47:10:751
1.3813;0.4023;6.0488;4.8687;1.0079;8.4528;-1.1865;-1.1684;-1.1899;0.4996;0.1814;-0.4184;13571.0;7.78;2.1;-45.77;280.75;-5.9;-29.94;2.0;986.94;48.546;35.95655;-83.9245;795.96;NaN;;4.43;12.226105;245.4;14 / 17;201516;2022-10-24 15:47:11:252
3.3829;0.9111;8.1748;4.947;0.7371;8.4353;-2.4928;0.6143;-2.3337;-0.2201;8.0E-4;0.0674;16975.0;7.54;-0.36;-45.36;273.73;-3.28;-31.21;2.0;986.96;48.62;35.956547;-83.924515;796.71;NaN;;4.54;12.226105;251.3;14 / 17;202016;2022-10-24 15:47:11:752
1.7154;0.5973;5.2202;4.4323;1.9963;8.517;-2.7667;-1.3319;-3.5322;0.6263;0.2866;-0.2973;16056.0;7.52;-1.03;-45.56;276.04;-6.65;-29.92;2.0;986.94;50.792;35.956547;-83.924515;796.71;NaN;;4.54;12.226105;251.3;14 / 17;202516;2022-10-24 15:47:12:252
1.9932;0.9637;6.0547;5.0574;0.4616;8.3893;-1.423;0.8596;-2.1889;-0.176;-0.3504;0.088;10618.0;6.9;-1.72;-45.81;269.4;-2.7;-31.08;2.0;986.94;49.731;35.956543;-83.92453;796.56;NaN;;4.39;12.226105;247.7;14 / 17;203016;2022-10-24 15:47:12:752
1.3813;0.2958;3.6377;4.9089;1.8121;8.2939;-2.4669;-1.6566;-2.8669;0.9194;0.6462;-0.4854;10148.0;5.76;-1.26;-46.12;272.22;-3.56;-33.49;2.0;986.94;51.272;35.956543;-83.92453;796.56;NaN;;4.39;12.226105;247.7;14 / 17;203516;2022-10-24 15:47:13:252
3.4678;0.5243;8.6521;5.3664;-0.0196;8.208;-0.3933;1.408;-0.3384;0.0618;-0.1133;-0.1784;20404.0;5.53;-2.79;-46.01;264.19;0.11;-33.18;2.0;986.95;50.012;35.956543;-83.92454;797.2;NaN;;4.64;12.226105;250.1;14 / 18;204016;2022-10-24 15:47:13:752
2.4132;1.1539;4.276;4.8594;1.3091;8.4168;-1.3939;-1.311;-2.0914;0.2408;0.0378;-0.2792;15803.0;5.18;-1.26;-46.44;270.65;-2.14;-33.24;2.0;986.97;47.317;35.956543;-83.92454;797.2;NaN;;4.64;12.226105;250.1;14 / 18;204516;2022-10-24 15:47:14:252
2.6803;0.923;7.7593;5.3453;1.0382;8.156;-2.8628;0.3278;-2.3937;-0.1865;0.1361;-0.3528;9103.0;5.87;-4.26;-45.71;267.79;-4.62;-33.76;2.0;986.9;49.264;35.956535;-83.92455;797.47;NaN;;4.5;12.226105;243.5;14 / 18;205016;2022-10-24 15:47:14:752
2.4921;1.5826;4.9247;4.7035;2.1487;8.3325;-0.4105;-1.6861;-0.2273;0.5217;0.2274;-0.2543;8005.0;5.63;-4.86;-45.28;265.99;-4.84;-31.75;2.0;986.93;48.704;35.956535;-83.92455;797.47;NaN;;4.5;12.226105;243.5;14 / 18;205517;2022-10-24 15:47:15:253
2.709;1.7106;7.2087;5.0985;1.3399;8.2692;-2.0322;0.6145;-1.4536;-0.5671;0.0672;-0.4002;6559.0;8.61;-11.59;-42.54;257.58;-9.31;-32.39;2.0;986.98;51.862;35.956535;-83.92456;798.5;NaN;;4.36;12.226105;243.1;14 / 18;206016;2022-10-24 15:47:15:752
2.6934;1.0678;4.8541;5.0053;1.7918;8.2406;0.8192;-1.3814;3.8952;0.8735;0.5356;-0.0521;7926.0;8.21;-6.36;-44.49;270.41;-10.53;-31.27;2.0;986.94;50.6;35.956535;-83.92456;798.5;NaN;;4.36;12.226105;243.1;14 / 18;206516;2022-10-24 15:47:16:252
2.8705;2.2828;6.7753;5.2741;1.6176;8.1079;-0.3967;0.6388;0.0225;-0.2003;0.0814;-0.1029;7525.0;8.66;-11.46;-42.6;259.55;-9.49;-33.04;2.0;986.97;50.079;35.956528;-83.924576;798.77;NaN;;4.5;12.226105;247.0;13 / 18;207015;2022-10-24 15:47:16:751
3.7002;1.1874;7.0062;4.9545;1.2738;8.3667;-0.0117;-0.8734;5.3857;0.9528;0.1638;0.0586;9774.0;7.2;-6.66;-44.64;265.31;-7.46;-30.63;2.0;986.94;49.28;35.956528;-83.924576;798.77;NaN;;4.5;12.226105;247.0;13 / 18;207516;2022-10-24 15:47:17:252
4.6349;2.2504;6.4496;5.2753;1.3871;8.1497;0.8244;-0.3333;3.1751;-0.7394;0.0124;-0.6456;6937.0;8.01;-9.75;-43.05;264.75;-12.53;-31.07;2.0;986.97;49.578;35.956524;-83.92458;800.85;NaN;;4.57;12.226105;237.5;13 / 18;208016;2022-10-24 15:47:17:752
3.9431;1.0152;7.3355;5.188;1.9861;8.0815;-0.2512;-1.0209;0.5276;1.1929;0.1288;0.2208;10405.0;6.38;-3.15;-45.28;271.83;-6.61;-33.54;2.0;986.95;48.434;35.956524;-83.92458;800.85;NaN;;4.57;12.226105;237.5;13 / 18;208516;2022-10-24 15:47:18:252
5.176;1.4103;8.9587;5.4923;1.6193;7.9613;0.4874;-0.0272;2.9969;0.0947;-0.1278;0.0591;6016.0;6.79;-7.86;-43.78;265.23;-9.5;-34.6;2.0;987.0;49.92;35.95652;-83.9246;801.46;NaN;;4.32;12.226105;243.9;13 / 18;209016;2022-10-24 15:47:18:752
4.0101;1.1982;6.5109;5.3568;1.1767;8.1296;1.6048;-1.329;6.7521;-0.2482;-0.1715;0.1666;6892.0;5.59;-3.15;-45.64;273.46;-7.76;-32.79;2.0;986.93;50.105;35.95652;-83.9246;801.46;NaN;;4.32;12.226105;243.9;13 / 18;209515;2022-10-24 15:47:19:251
6.6616;2.6671;6.9547;5.4544;2.0869;7.8781;-1.1319;-0.6836;0.3657;-0.1748;0.4297;0.3007;5888.0;5.53;-6.07;-44.91;272.41;-12.29;-34.7;2.0;987.01;49.393;35.956516;-83.924614;801.82;NaN;;4.36;12.226105;245.6;13 / 18;210016;2022-10-24 15:47:19:752
3.9718;-0.1687;9.1202;5.5246;0.8024;8.0626;1.0665;1.1107;2.6221;0.685;0.185;0.177;6782.0;5.14;-2.27;-46.63;273.8;-6.23;-33.19;2.0;986.94;50.706;35.956516;-83.924614;801.82;NaN;;4.36;12.226105;245.6;13 / 18;210516;2022-10-24 15:47:20:252
5.8594;-0.2082;10.6537;5.7026;0.8959;7.9277;1.4023;-0.5654;4.4732;-1.1795;-0.6735;0.0492;6295.0;6.26;-5.19;-46.78;274.01;-11.21;-32.83;2.0;986.98;50.528;35.956512;-83.92462;801.09;NaN;;4.14;12.226105;248.1;14 / 18;211016;2022-10-24 15:47:20:752
5.4586;-1.069;14.9106;5.4197;0.6385;8.148;-0.8379;0.7939;1.8487;0.6606;0.3287;0.3717;8066.0;4.44;-2.79;-47.36;268.7;-3.65;-34.77;2.0;986.98;57.608;35.956512;-83.92462;801.09;NaN;;4.14;12.226105;248.1;14 / 18;211516;2022-10-24 15:47:21:252
6.2139;1.2652;9.877;5.3218;0.95;8.1821;0.321;0.3182;1.6955;-0.7087;-0.5718;0.1682;7619.0;6.9;-8.03;-45.71;269.61;-12.02;-29.46;2.0;987.0;51.986;35.956512;-83.92464;800.48;NaN;;4.14;12.226105;243.4;14 / 18;212016;2022-10-24 15:47:21:752
5.953;1.8039;8.6521;5.1806;0.7691;8.291;-2.3701;0.3236;1.0909;-0.3932;-0.3346;0.2412;9935.0;5.14;-3.47;-47.61;269.99;-4.5;-32.0;2.0;987.02;53.966;35.956512;-83.92464;800.48;NaN;;4.14;12.226105;243.4;14 / 18;212517;2022-10-24 15:47:22:253
8.1194;-0.2333;14.2843;5.1039;1.7487;8.1892;-2.3305;-1.0308;-0.1117;-0.5689;-0.3435;-0.2524;5692.0;6.47;-8.38;-45.96;267.13;-10.27;-31.93;2.0;987.0;54.191;35.956505;-83.924644;800.24;NaN;;3.78;12.226105;241.6;15 / 18;213016;2022-10-24 15:47:22:752
6.3012;1.4342;10.7387;5.7648;0.4266;7.9218;-1.5124;1.3955;0.0185;0.5467;-0.1917;0.4132;6962.0;4.13;-4.31;-47.12;265.47;-2.49;-36.04;2.0;987.02;50.433;35.956505;-83.924644;800.24;NaN;;3.78;12.226105;241.6;15 / 18;213516;2022-10-24 15:47:23:252
3.7146;0.2524;7.0675;5.1309;2.4158;8.0005;-2.283;-1.4562;-3.1999;-0.9273;-1.0108;0.3312;5270.0;3.43;-8.44;-45.6;267.18;-10.23;-33.83;2.0;986.98;55.18;35.9565;-83.92467;798.65;NaN;;4.21;12.226105;245.8;15 / 18;214017;2022-10-24 15:47:23:753
4.4172;1.1755;10.0385;5.4831;0.061;8.1303;-1.7468;0.9061;1.4089;0.3463;0.1739;0.2782;13848.0;3.26;-6.23;-45.97;258.5;-0.11;-35.48;2.0;987.02;53.47;35.9565;-83.92467;798.65;NaN;;4.21;12.226105;245.8;15 / 18;214517;2022-10-24 15:47:24:253
2.5391;0.2922;7.0472;5.0133;2.1798;8.1416;-2.1299;-0.9011;-3.9727;-0.9054;-0.4374;0.0402;8513.0;5.78;-9.24;-44.29;267.67;-12.84;-31.62;2.0;987.01;55.845;35.956497;-83.924675;798.05;NaN;;4.28;12.226105;236.7;15 / 18;215017;2022-10-24 15:47:24:753
2.8095;0.8163;10.3388;5.4688;0.4561;8.1274;-2.4765;0.5226;1.8709;-0.4234;-0.0744;0.0147;15767.0;6.75;-8.96;-43.87;258.03;-4.45;-33.99;2.0;987.01;50.084;35.956497;-83.924675;798.05;NaN;;4.28;12.226105;236.7;15 / 18;215516;2022-10-24 15:47:25:252
1.4904;0.1567;5.5843;4.3397;2.3588;8.4719;-1.6073;-1.0163;-4.6107;-0.926;-0.7463;-0.383;8947.0;9.28;-9.67;-41.72;266.41;-13.92;-27.12;2.0;987.01;54.056;35.95649;-83.92469;798.44;NaN;;4.28;12.226105;236.6;15 / 18;216015;2022-10-24 15:47:25:751
2.8573;1.0164;9.9918;5.1248;0.9022;8.3122;-2.1737;0.3225;0.1612;0.1433;-0.1831;0.4849;19881.0;10.88;-4.18;-41.31;267.77;-5.39;-30.25;2.0;987.04;49.93;35.95649;-83.92469;798.44;NaN;;4.28;12.226105;236.6;15 / 18;216517;2022-10-24 15:47:26:253
2.6611;0.5506;6.7442;4.9628;1.5755;8.3102;-2.1059;-0.9467;-1.6489;-0.3293;-0.2656;-0.1427;10331.0;10.43;-6.73;-37.95;266.26;-10.35;-28.83;2.0;987.02;52.451;35.956486;-83.924706;800.18;NaN;;4.54;12.226105;238.8;14 / 18;217016;2022-10-24 15:47:26:752
3.5097;0.8991;9.4531;5.6296;0.5762;8.0091;-2.6812;0.8604;-1.2356;0.3488;0.2292;0.3953;19039.0;8.59;-4.27;-38.18;264.78;-2.94;-35.02;2.0;987.01;50.727;35.956486;-83.924706;800.18;NaN;;4.54;12.226105;238.8;14 / 18;217516;2022-10-24 15:47:27:252
3.2441;1.6352;3.2333;5.2575;3.2042;7.633;-2.4997;-1.7359;-3.9449;0.1184;0.1298;-0.551;5935.0;5.74;-5.38;-40.2;276.03;-15.89;-36.49;2.0;987.02;54.766;35.95648;-83.92471;800.66;NaN;;4.54;12.226105;233.4;15 / 18;218016;2022-10-24 15:47:27:752
4.4387;2.3605;9.3048;5.7178;2.1219;7.6795;-3.0617;-0.0787;-2.8618;-0.1626;0.1914;-0.017;8996.0;4.31;-6.82;-42.47;269.87;-12.5;-36.67;2.0;987.05;54.073;35.95648;-83.92471;800.66;NaN;;4.54;12.226105;233.4;15 / 18;218516;2022-10-24 15:47:28:252
3.0897;1.0953;7.4946;5.1839;2.5394;7.9277;-2.3916;-0.981;-2.8203;0.347;0.2107;-0.3939;9217.0;5.76;-5.91;-44.66;275.98;-15.01;-33.18;2.0;987.02;54.136;35.95647;-83.92473;801.03;NaN;;4.18;12.226105;235.4;15 / 18;219016;2022-10-24 15:47:28:752
0.827;3.1077;8.3638;3.6645;2.1414;8.8406;-0.9976;0.269;-1.9185;0.6769;0.3825;-0.0542;14252.0;8.81;-4.18;-44.96;279.82;-12.61;-22.51;2.0;987.04;50.507;35.95647;-83.92473;801.03;NaN;;4.18;12.226105;235.4;15 / 18;219516;2022-10-24 15:47:29:252
6.0428;-4.0316;10.1521;2.1522;2.1757;9.3169;-1.3541;-0.9596;-4.4087;-4.5373;-1.3708;-1.7866;7998.0;19.82;-8.44;-41.01;270.75;-13.11;-11.95;2.0;987.01;49.436;35.956467;-83.924736;802.15;NaN;;4.54;12.226105;253.6;15 / 18;220015;2022-10-24 15:47:29:751
3.3673;2.193;8.8367;4.5211;2.7586;8.2535;-0.6905;0.1001;-0.859;0.5905;1.2851;0.3719;37065.0;6.99;12.9;-43.61;300.72;-10.6;-35.62;2.0;986.99;49.686;35.956467;-83.924736;802.15;NaN;;4.54;12.226105;253.6;15 / 18;220516;2022-10-24 15:47:30:252
0.8091;3.1424;7.3355;2.0683;3.9467;8.7359;-1.6578;-1.3569;-1.0765;0.0951;0.3902;-0.2295;6498.0;16.76;-5.98;-43.67;290.85;-23.73;-13.32;2.0;987.0;50.461;35.956467;-83.92475;803.59;NaN;;4.43;12.226105;261.8;15 / 18;221016;2022-10-24 15:47:30:752
0.8163;4.331;7.8897;1.8848;4.3254;8.597;-1.8564;-0.0939;-2.4163;0.2181;0.0434;0.1157;5810.0;21.69;-9.39;-40.82;282.41;-24.91;-12.55;2.0;986.98;47.571;35.956467;-83.92475;803.59;NaN;;4.43;12.226105;261.8;15 / 18;221516;2022-10-24 15:47:31:252
4.1776;-0.8632;10.8775;3.4728;1.4984;9.0479;-1.5115;-1.1401;-0.2374;-0.8602;-0.5966;-0.0978;19857.0;16.63;-3.69;-43.56;272.52;-8.79;-21.0;2.0;986.97;47.37;35.956463;-83.92477;803.98;NaN;;4.5;12.226105;251.8;15 / 18;222016;2022-10-24 15:47:31:752
1.1707;0.1496;9.6805;3.8715;0.9936;8.9551;-1.6205;0.3822;-2.659;0.17;0.2998;0.1154;33133.0;8.76;8.57;-46.78;288.0;-0.77;-26.86;2.0;987.0;46.754;35.956463;-83.92477;803.98;NaN;;4.5;12.226105;251.8;15 / 18;222516;2022-10-24 15:47:32:252
1.3095;0.862;6.877;3.1175;2.1287;9.051;-1.3464;-0.6187;-3.8817;0.4454;0.0461;-0.2425;20363.0;13.24;2.16;-45.36;285.92;-8.93;-19.91;2.0;986.98;50.161;35.956463;-83.92478;804.58;NaN;;4.28;12.226105;252.7;15 / 17;223016;2022-10-24 15:47:32:752
1.3047;1.3298;7.4611;3.6044;1.2994;9.0272;-2.4133;0.3409;-2.9595;-0.9132;0.0261;-0.168;25936.0;12.81;2.29;-45.15;280.27;-5.38;-23.28;2.0;987.03;49.687;35.956463;-83.92478;804.58;NaN;;4.28;12.226105;252.7;15 / 17;223516;2022-10-24 15:47:33:252
1.0415;1.6017;4.2508;3.3597;3.4348;8.549;-1.6809;-2.51;-3.4522;1.7701;0.2496;0.0477;21795.0;12.84;3.41;-44.93;285.28;-7.12;-20.52;2.0;986.96;50.085;35.95646;-83.92479;804.69;NaN;;4.57;12.226105;256.9;15 / 17;224017;2022-10-24 15:47:33:753
2.3593;4.7871;4.0711;5.1036;5.3463;6.4452;-1.1838;-0.2957;-2.5608;-0.3554;-0.128;0.1772;7305.0;5.27;-16.22;-40.01;273.96;-33.04;-38.37;2.0;986.99;48.831;35.95646;-83.92479;804.69;NaN;;4.57;12.226105;256.9;15 / 17;224517;2022-10-24 15:47:34:253
2.1571;2.8286;2.7556;4.0856;4.743;7.5486;-1.9699;-2.6502;-1.2534;0.1195;1.0009;-0.3303;5354.0;7.2;-17.91;-36.51;266.08;-28.92;-28.42;2.0;986.99;50.108;35.956455;-83.924805;804.75;NaN;;4.46;12.226105;244.9;15 / 17;225016;2022-10-24 15:47:34:752
2.065;2.9937;8.1135;4.36;3.0577;8.2348;-0.2054;0.7021;-0.5141;-0.1897;-0.086;-0.5737;8638.0;8.36;-14.74;-34.54;256.16;-18.17;-27.9;2.0;986.98;49.845;35.956455;-83.924805;804.75;NaN;;4.46;12.226105;244.9;15 / 17;225517;2022-10-24 15:47:35:253
3.4845;3.4247;5.5843;4.1896;4.0975;7.8631;-1.8559;-1.8243;-1.0506;0.3506;-0.0145;0.0312;9203.0;8.81;-7.86;-39.77;276.63;-19.85;-27.65;2.0;986.96;50.784;35.95645;-83.92483;805.38;NaN;;4.39;12.226105;246.4;15 / 17;226015;2022-10-24 15:47:35:751
2.7832;3.9419;7.8718;5.3831;3.334;7.4884;-3.8962;0.0085;-1.2341;-0.9183;0.0292;-0.214;7920.0;6.41;-13.22;-41.44;270.31;-24.5;-37.44;2.0;987.0;51.863;35.95645;-83.92483;805.38;NaN;;4.39;12.226105;246.4;15 / 17;226515;2022-10-24 15:47:36:251
2.8214;2.2564;5.406;4.6108;4.5384;7.3698;-1.5192;-2.0911;-2.3057;0.6477;0.0606;-0.0828;8127.0;5.31;-12.0;-42.96;280.49;-27.57;-32.03;2.0;987.0;51.15;35.956448;-83.924835;805.16;NaN;;4.54;12.226105;242.7;15 / 17;227015;2022-10-24 15:47:36:751
1.9056;3.4965;6.3311;5.1732;3.359;7.624;-3.254;0.1556;-1.3557;-0.6265;0.1161;-0.2712;8006.0;7.65;-15.56;-41.46;262.67;-22.48;-36.27;2.0;986.99;49.533;35.956448;-83.924835;805.16;NaN;;4.54;12.226105;242.7;15 / 17;227516;2022-10-24 15:47:37:252
3.3338;2.7018;4.5894;4.8067;4.1773;7.4576;-0.3502;-1.0467;-0.4194;0.8503;0.6065;-0.1465;6677.0;6.56;-12.45;-42.71;275.72;-25.21;-32.8;2.0;987.02;51.236;35.956444;-83.92485;805.84;NaN;;4.46;12.226105;248.5;15 / 17;228016;2022-10-24 15:47:37:752
2.1511;2.5196;7.9412;5.0857;3.0209;7.8218;-1.8811;0.6013;-2.4697;-0.636;-0.2734;-0.451;7232.0;9.73;-16.46;-40.14;255.1;-15.27;-30.61;2.0;987.01;49.722;35.956444;-83.92485;805.84;NaN;;4.46;12.226105;248.5;15 / 17;228516;2022-10-24 15:47:38:252
2.9638;3.0787;4.7127;4.4573;4.4599;7.5108;-2.2561;-2.3965;-2.0342;0.394;0.4234;-0.2995;8306.0;7.03;-12.04;-42.82;272.79;-22.98;-33.5;2.0;986.98;49.33;35.95644;-83.924866;808.18;NaN;;4.43;12.226105;246.3;15 / 17;229016;2022-10-24 15:47:38:752
1.4342;3.0559;5.7948;5.0609;3.2365;7.7513;-1.9999;0.1583;-2.161;-0.2561;-0.3678;-0.1113;9649.0;6.71;-14.02;-41.87;263.32;-18.52;-33.72;2.0;986.99;50.802;35.95644;-83.924866;808.18;NaN;;4.43;12.226105;246.3;15 / 17;229516;2022-10-24 15:47:39:252
2.4574;1.6268;3.6102;5.5774;3.5002;7.2672;-2.5902;-1.754;-2.7515;0.9824;0.3044;-9.0E-4;17583.0;2.74;-7.57;-44.14;271.47;-14.74;-37.01;2.0;986.99;48.745;35.956436;-83.92488;807.97;NaN;;4.46;12.226105;245.0;15 / 17;230017;2022-10-24 15:47:39:753
8.8965;0.7349;1.6125;9.4733;1.0016;-2.3289;4.4801;-0.0343;1.3866;-0.8114;-1.4347;1.1402;14917.0;-24.49;-9.64;-28.97;256.28;-5.86;-103.81;2.0;987.02;51.873;35.956436;-83.92488;807.97;NaN;;4.46;12.226105;245.0;15 / 17;230516;2022-10-24 15:47:40:252
6.8554;-3.02;-2.685;9.4384;0.311;-2.6438;0.1669;-2.2259;1.3233;1.4411;0.8992;-1.8177;5193.0;-41.81;7.26;-8.91;292.3;-1.82;-105.65;2.0;987.01;53.3;35.956432;-83.9249;809.35;NaN;;4.46;12.226105;241.8;15 / 17;231016;2022-10-24 15:47:40:752
8.1509;-1.762;1.0989;8.6307;-0.0174;-4.6563;2.117;-1.7045;-1.0328;-2.3523;0.5863;3.1582;2049.0;-41.49;-11.19;-7.01;246.66;0.1;-118.35;2.0;987.06;51.097;35.956432;-83.9249;809.35;NaN;;4.46;12.226105;241.8;15 / 17;231517;2022-10-24 15:47:41:253
5.8893;-3.1986;-4.8039;8.6909;0.2754;-4.5346;1.7536;-4.3571;0.929;1.1943;-0.6849;-2.921;2935.0;-41.32;14.49;-4.18;282.83;13.88;-124.06;2.0;987.08;61.702;35.956425;-83.924904;810.61;NaN;;4.72;12.226105;235.0;15 / 17;232016;2022-10-24 15:47:41:752
8.7541;1.5754;-3.973;7.2856;-2.0074;-6.2499;0.2635;1.8278;1.8408;-1.2721;0.3799;2.7303;2235.0;-41.38;-12.86;3.26;240.82;0.53;-129.62;2.0;987.04;52.338;35.956425;-83.924904;810.61;NaN;;4.72;12.226105;235.0;15 / 17;232516;2022-10-24 15:47:42:252
5.1616;-3.5408;-4.8805;7.9902;-0.1377;-5.684;6.5118;-2.9339;-0.4732;0.6634;-0.3925;-4.2045;2382.0;-42.28;7.56;3.21;288.89;0.8;-125.43;2.0;987.07;61.101;35.95642;-83.92492;811.29;NaN;;4.64;12.226105;250.5;15 / 17;233016;2022-10-24 15:47:42:752
9.1837;1.957;-2.636;8.1433;-0.6587;-5.4243;-0.0092;1.2727;1.2526;-0.4169;0.1967;2.4487;2475.0;-37.44;-20.57;4.03;231.14;-10.3;-125.93;2.0;987.06;52.036;35.95642;-83.92492;811.29;NaN;;4.64;12.226105;250.5;15 / 17;233516;2022-10-24 15:47:43:252
6.3371;-3.4427;-3.2309;8.6262;-0.3428;-4.6521;4.6063;-3.146;-0.1689;0.5672;0.6046;-3.3496;2594.0;-43.52;5.96;-1.97;281.67;2.0;-118.34;2.0;987.08;57.61;35.956417;-83.924934;810.41;NaN;;4.61;12.226105;256.7;15 / 17;234016;2022-10-24 15:47:43:752
8.2083;0.3987;-1.6591;8.5469;-0.8696;-4.7291;0.7367;1.4373;2.2018;0.0704;-0.8293;1.73;2413.0;-39.71;-13.27;-9.15;240.1;5.09;-118.96;2.0;987.07;52.525;35.956417;-83.924934;810.41;NaN;;4.61;12.226105;256.7;15 / 17;234517;2022-10-24 15:47:44:253
7.0448;-3.7361;-3.1029;8.7755;2.0078;-3.8896;-1.6569;-5.698;0.8293;2.0832;-0.2953;-3.1988;3919.0;-41.77;7.76;-8.81;282.06;4.79;-110.55;2.0;987.04;54.026;35.956417;-83.92494;810.37;NaN;;4.86;12.226105;252.9;15 / 17;235016;2022-10-24 15:47:44:752
9.6984;2.0937;-2.7042;7.8042;-2.5402;-5.3677;2.8872;3.6019;0.9544;-0.4969;-0.0026;1.0642;2138.0;-41.42;-12.96;-7.73;244.16;0.82;-120.6;2.0;987.05;54.275;35.956417;-83.92494;810.37;NaN;;4.86;12.226105;252.9;15 / 17;235515;2022-10-24 15:47:45:251
3.2058;-4.5583;-2.715;8.7069;1.0591;-4.3861;-2.3528;-4.1632;1.804;1.2828;-0.0919;-2.8546;2676.0;-43.48;8.59;-6.36;277.93;8.78;-117.06;2.0;987.06;58.424;35.956413;-83.92496;809.71;NaN;;4.72;12.226105;256.4;15 / 17;236016;2022-10-24 15:47:45:752
10.6334;1.9729;-4.5069;7.6495;-3.8482;-4.7798;1.8823;1.0476;1.9244;-0.0473;-0.5703;2.0245;2062.0;-41.66;-2.93;-7.54;242.57;23.1;-122.0;2.0;987.06;51.395;35.956413;-83.92496;809.71;NaN;;4.72;12.226105;256.4;15 / 17;236515;2022-10-24 15:47:46:251
3.1412;-5.3148;-1.8362;8.4936;2.3091;-4.3241;0.964;-7.9699;0.2361;2.7419;-0.3258;-4.7466;2855.0;-38.18;10.35;-6.51;305.82;-13.62;-116.98;2.0;987.06;56.871;35.95641;-83.92497;807.61;NaN;;4.18;12.226105;250.9;15 / 17;237016;2022-10-24 15:47:46:752
10.7303;4.477;-5.7123;8.4205;-0.8091;-4.9609;1.8716;1.1599;-0.7342;0.128;-0.6531;2.4226;2410.0;-34.99;-21.43;-1.44;218.55;4.73;-120.5;2.0;987.07;50.619;35.95641;-83.92497;807.61;NaN;;4.18;12.226105;250.9;15 / 17;237516;2022-10-24 15:47:47:252
4.6851;-3.469;-3.8617;8.3447;2.8149;-4.3142;-1.4527;-6.0049;0.3482;0.9511;-0.3945;-1.6659;2903.0;-42.17;0.75;-6.38;274.36;-1.1;-113.5;2.0;987.08;59.923;35.95641;-83.924995;809.25;NaN;;5.15;12.226105;254.4;15 / 17;238015;2022-10-24 15:47:47:751
9.8518;3.8378;-3.3254;7.6728;-2.8214;-5.4165;2.238;6.4586;2.1078;-0.4235;-0.5012;2.3072;1962.0;-38.27;-16.76;-4.59;230.09;4.68;-119.81;2.0;987.08;54.688;35.95641;-83.924995;809.25;NaN;;5.15;12.226105;254.4;15 / 17;238516;2022-10-24 15:47:48:252
4.7426;-3.0631;-3.4451;8.3197;3.379;-3.9414;-1.4719;-6.1723;0.3955;0.2946;-0.2071;-1.2093;2013.0;-40.69;-6.06;-7.8;283.51;-20.15;-115.35;2.0;987.06;58.819;35.9564;-83.92501;809.35;NaN;;4.9;12.226105;248.9;15 / 17;239017;2022-10-24 15:47:48:753
10.5197;3.5336;-3.0643;8.0844;-1.9532;-5.1959;1.5874;4.9171;2.5154;-0.2416;-0.6601;1.76;1671.0;-38.55;-18.37;-8.59;234.03;1.57;-117.41;2.0;987.07;50.524;35.9564;-83.92501;809.35;NaN;;4.9;12.226105;248.9;15 / 17;239516;2022-10-24 15:47:49:252
6.1756;-3.0045;-4.5643;8.219;3.0313;-4.408;-2.0824;-5.542;0.8766;0.3867;-0.1787;-0.5927;1989.0;-42.75;-2.81;-7.78;285.69;-18.01;-118.21;2.0;987.08;55.808;35.956394;-83.92502;809.54;NaN;;4.86;12.226105;245.3;15 / 17;240016;2022-10-24 15:47:49:752
14.3779;0.5602;-2.9662;7.3117;-2.7503;-5.9284;2.9601;4.124;3.5118;-0.9053;0.5597;0.7272;1915.0;-41.98;-4.99;-5.14;251.74;6.74;-122.39;2.0;987.07;51.841;35.956394;-83.92502;809.54;NaN;;4.86;12.226105;245.3;15 / 17;240515;2022-10-24 15:47:50:251
5.8845;-5.8463;-3.912;7.6687;3.1499;-5.2382;-2.6242;-7.6577;1.5649;1.0737;-0.7257;-1.7915;2175.0;-41.62;1.26;-6.23;288.86;-11.38;-115.26;2.0;987.09;56.327;35.956387;-83.92503;809.58;NaN;;4.72;12.226105;234.1;15 / 17;241015;2022-10-24 15:47:50:751
17.624;-0.4621;-2.7712;6.68;-4.0689;-5.9155;4.7193;5.1031;2.6615;-1.0123;0.8366;0.5466;1324.0;-42.54;-7.82;-4.37;240.74;12.7;-123.58;2.0;987.09;53.439;35.956387;-83.92503;809.58;NaN;;4.72;12.226105;234.1;15 / 17;241515;2022-10-24 15:47:51:251
6.8399;-6.5827;-1.6819;7.7237;3.2634;-5.0858;-2.6989;-7.3161;2.1849;0.0628;-0.3938;-0.9373;1240.0;-41.27;1.24;-5.68;288.77;-13.54;-119.5;2.0;987.08;57.325;35.956375;-83.92504;805.87;NaN;;4.68;12.226105;224.7;15 / 17;242016;2022-10-24 15:47:51:752
15.807;0.061;-3.6966;6.6572;-5.4287;-4.7309;2.8174;6.2686;-0.5882;-1.4798;0.4693;0.7264;1012.0;-43.37;-2.4;-4.8;236.12;33.61;-125.4;2.0;987.11;53.894;35.956375;-83.92504;805.87;NaN;;4.68;12.226105;224.7;15 / 17;242517;2022-10-24 15:47:52:253
4.9869;-6.5192;-7.1812;7.826;2.794;-5.2074;-2.7178;-7.4797;2.093;0.9415;-0.5463;-1.7566;849.0;-41.38;-6.64;-6.26;274.27;-16.55;-123.64;2.0;987.08;54.759;35.956367;-83.92506;805.57;NaN;;4.79;12.226105;240.7;15 / 17;243016;2022-10-24 15:47:52:752
15.2444;1.4282;-3.7385;6.8754;-3.9232;-5.7886;3.232;3.32;3.4098;-0.672;0.4287;1.0745;1249.0;-41.74;-4.41;-6.07;244.67;23.58;-130.09;2.0;987.09;51.889;35.956367;-83.92506;805.57;NaN;;4.79;12.226105;240.7;15 / 17;243516;2022-10-24 15:47:53:252
10.1246;-3.7469;-5.3844;8.6745;1.4484;-4.3388;-2.3936;-7.1767;-0.5732;-1.2293;-0.6282;2.1464;1277.0;-41.14;2.98;-8.1;278.85;-1.36;-114.75;2.0;987.09;55.802;35.95636;-83.925064;803.87;NaN;;4.9;12.226105;221.9;15 / 17;244015;2022-10-24 15:47:53:751
13.8344;1.2891;-3.8007;7.099;-2.8243;-6.148;6.5625;2.9049;2.8328;-1.7938;0.6399;1.1489;1104.0;-43.48;3.21;-5.25;258.48;18.87;-131.26;2.0;987.13;51.511;35.95636;-83.925064;803.87;NaN;;4.9;12.226105;221.9;15 / 17;244516;2022-10-24 15:47:54:252
