sep=;
ACCELEROMETER X (m/s²);ACCELEROMETER Y (m/s²);ACCELEROMETER Z (m/s²);GRAVITY X (m/s²);GRAVITY Y (m/s²);GRAVITY Z (m/s²);LINEAR ACCELERATION X (m/s²);LINEAR ACCELERATION Y (m/s²);LINEAR ACCELERATION Z (m/s²);GYROSCOPE X (rad/s);GYROSCOPE Y (rad/s);GYROSCOPE Z (rad/s);LIGHT (lux);MAGNETIC FIELD X (μT);MAGNETIC FIELD Y (μT);MAGNETIC FIELD Z (μT);ORIENTATION Z (azimuth °);ORIENTATION X (pitch °);ORIENTATION Y (roll °);PROXIMITY (i);ATMOSPHERIC PRESSURE (hPa);SOUND LEVEL (dB);LOCATION Latitude : ;LOCATION Longitude : ;LOCATION Altitude ( m);LOCATION Altitude-google ( m);LOCATION Altitude-atmospheric pressure ( m);LOCATION Speed ( Kmh);LOCATION Accuracy ( m);LOCATION ORIENTATION (°);Satellites in range;Time since start in ms ;YYYY-MO-DD HH-MI-SS_SSS
-2.473;1.8864;8.3016;-1.7696;2.3039;9.3665;-0.4972;-0.5294;-1.0834;0.5042;-0.6168;0.2032;19.0;-12.56;1.61;-49.11;69.72;-9.38;14.47;5.0;983.52;42.909;35.9587;-83.92456;791.61;NaN;;;45.567745;;0 / 21;22;2022-10-25 12:51:41:854
-0.8127;2.2636;7.5269;-0.8975;1.3945;9.6654;-0.7792;-0.7256;0.2452;0.8314;-0.2747;-0.1752;11.0;-13.61;2.64;-45.82;73.29;-4.35;5.15;5.0;983.53;44.721;35.9587;-83.92456;791.61;NaN;;;45.567745;;0 / 21;522;2022-10-25 12:51:42:354
-1.3573;1.634;7.3857;-0.385;1.9039;9.6124;-0.9796;-1.5728;-0.9056;0.7554;-0.2979;0.1431;6.0;-8.01;6.75;-42.49;49.33;-4.36;5.19;5.0;983.54;44.557;35.9587;-83.92456;791.61;NaN;;;45.567745;;0 / 21;1022;2022-10-25 12:51:42:854
0.4011;3.1819;8.5528;-0.1755;2.8893;9.3697;0.4852;0.3427;-1.5195;0.1673;0.0912;-0.4005;11.0;2.34;14.49;-37.89;353.64;-17.21;-1.12;5.0;983.51;43.988;35.9587;-83.92456;791.61;NaN;;;45.567745;;0 / 21;1522;2022-10-25 12:51:43:354
-0.262;3.1651;8.0513;-0.6942;3.0891;9.2815;0.8711;-0.927;0.8446;0.3839;0.224;-0.1987;18.0;21.86;12.13;-36.39;328.75;-16.46;3.55;5.0;983.52;40.299;35.9587;-83.92456;791.61;NaN;;;45.567745;;0 / 21;2022;2022-10-25 12:51:43:854
-1.0977;2.0542;7.1632;-0.99;2.8609;9.3277;0.8702;-1.4547;-0.0787;0.1393;0.1641;-0.9051;34.0;26.63;-5.19;-34.71;285.0;-16.96;6.06;5.0;983.51;41.197;35.9587;-83.92456;791.61;NaN;;;45.567745;;0 / 21;2522;2022-10-25 12:51:44:354
0.5698;3.0021;7.4157;-1.3896;2.8717;9.2732;1.3611;-0.8219;1.2577;0.3822;0.7364;0.4583;43.0;17.81;-20.21;-34.57;246.21;-19.1;2.82;5.0;983.51;42.09;35.9587;-83.92456;791.61;NaN;;;45.567745;;0 / 21;3023;2022-10-25 12:51:44:855
9.1334;0.839;9.3144;6.8727;1.3954;6.8549;2.4767;-0.302;2.8014;-1.4699;-1.9718;9.0E-4;24.0;-10.44;-30.17;-32.14;211.48;-8.18;-45.07;5.0;983.53;48.097;35.9587;-83.92456;791.61;NaN;;;45.567745;;0 / 21;3522;2022-10-25 12:51:45:354
6.0404;-0.7839;10.4874;4.8293;-0.5866;8.5149;-1.2649;-0.8261;1.8393;1.2874;-0.1077;-0.3504;21.0;-28.42;-21.66;-37.91;167.24;3.43;-29.56;5.0;983.53;51.931;35.9587;-83.92456;791.61;NaN;;;45.567745;;0 / 21;4021;2022-10-25 12:51:45:853
13.4189;-5.7805;-5.2167;8.5059;-2.1524;-4.3802;-0.3916;-2.8432;-2.9028;-1.6186;1.6673;4.8452;26.0;-34.48;-33.81;-3.68;236.09;-12.28;-123.92;5.0;983.56;46.257;35.9587;-83.92456;791.61;NaN;;;45.567745;;0 / 21;4521;2022-10-25 12:51:46:353
11.074;-5.7182;-1.8936;9.1964;-2.1198;-2.6651;4.752;-2.9581;0.8756;2.4146;-0.0208;-3.2256;4.0;-59.91;-9.19;49.46;162.45;29.36;-118.61;5.0;983.55;64.06;35.9587;-83.92456;791.61;NaN;;;45.567745;;0 / 21;5022;2022-10-25 12:51:46:854
11.0249;-4.8721;-3.9491;9.1548;-0.3597;-3.4973;-4.2952;-6.7571;-2.4738;-0.8643;0.1191;2.7972;4.0;-40.05;-24.82;55.89;125.45;2.1;-110.91;5.0;983.56;60.798;35.9587;-83.92456;791.61;NaN;;;45.567745;;0 / 21;5522;2022-10-25 12:51:47:354
11.6139;-5.2047;-0.9936;8.5668;-4.1424;-2.3706;5.2528;1.4704;0.4212;1.3766;-0.0413;-2.6011;3.0;-44.61;-11.38;48.56;155.72;39.16;-118.35;5.0;983.57;48.577;35.9587;-83.92456;791.61;NaN;;;45.567745;;0 / 21;6022;2022-10-25 12:51:47:854
9.702;-5.0444;-4.0101;9.3811;1.1818;-2.6016;-3.1871;-7.2824;-0.2868;-0.1795;0.0053;1.166;3.0;-31.33;-17.91;47.59;108.52;-6.92;-105.5;5.0;983.54;49.843;35.9587;-83.92456;791.61;NaN;;;45.567745;;0 / 21;6522;2022-10-25 12:51:48:354
13.1207;-4.7486;-2.0255;8.4204;-4.4538;-2.3306;6.5415;3.5703;-0.7764;-0.5156;0.8112;-2.2342;3.0;-27.45;-6.34;57.92;128.13;41.29;-111.05;5.0;983.57;45.559;35.9587;-83.92456;791.61;NaN;;;45.567745;;0 / 21;7022;2022-10-25 12:51:48:854
9.8157;-3.044;-3.5001;9.3811;-1.1573;-2.6126;-1.5898;-2.2671;-1.0163;-0.8198;0.3196;2.2785;3.0;-27.96;-13.35;50.46;89.36;-8.04;-101.67;5.0;983.58;52.205;35.9587;-83.92456;791.61;NaN;;;45.567745;;0 / 21;7522;2022-10-25 12:51:49:354
13.0849;-2.7891;-2.5726;8.6433;-3.4602;-3.0807;6.3116;2.3477;-1.0257;0.1128;-0.4206;-1.4157;4.0;-24.84;-22.18;64.41;127.86;30.26;-108.34;5.0;983.55;43.94;35.9587;-83.92456;791.61;NaN;;;45.567745;;0 / 21;8022;2022-10-25 12:51:49:854
11.1302;-3.705;-4.617;9.33;-0.5324;-2.9729;-1.6624;-2.7476;-0.9886;-0.2416;0.0299;2.2482;3.0;-8.14;-9.02;42.08;105.03;3.11;-107.67;5.0;983.54;49.826;35.9587;-83.92456;791.61;NaN;;;45.567745;;0 / 21;8522;2022-10-25 12:51:50:354
12.4863;-2.3737;-2.3426;8.4648;-3.91;-3.0381;6.4647;3.9995;0.361;0.131;0.3412;-0.9581;3.0;-1.69;-12.11;31.97;118.62;23.5;-109.74;5.0;983.53;44.094;35.9587;-83.92456;791.61;NaN;;;45.567745;;0 / 21;9023;2022-10-25 12:51:50:855
7.3164;-2.6659;-3.6978;9.192;0.9462;-3.2838;-3.0838;-4.92;-0.4747;-0.5451;0.103;2.164;3.0;-6.47;-12.62;27.62;115.25;-5.54;-109.66;5.0;983.53;58.741;35.9587;-83.92456;791.61;NaN;;;45.567745;;0 / 21;9522;2022-10-25 12:51:51:354
14.9142;-4.2413;-0.9266;9.2091;-2.5945;-2.152;4.9189;0.0381;2.4447;2.2309;0.5476;-2.5081;4.0;-9.81;-11.17;22.43;140.21;26.74;-116.53;5.0;983.53;48.105;35.9587;-83.92456;791.61;NaN;;;45.567745;;0 / 21;10022;2022-10-25 12:51:51:854
8.0285;2.837;1.0618;7.4133;3.1242;5.6083;2.5754;-3.9417;-3.8205;0.2898;1.4809;-0.5556;7.0;-19.26;-20.33;19.14;123.75;-18.58;-52.89;5.0;983.51;51.814;35.9587;-83.92456;791.61;NaN;;;45.567745;;0 / 21;10522;2022-10-25 12:51:52:354
12.7618;5.9255;0.7241;8.6648;4.3247;1.5453;6.4723;2.6346;3.1532;1.1937;2.317;-0.6869;23.0;-23.62;-21.56;3.28;172.25;-20.54;-93.21;5.0;983.54;42.934;35.9587;-83.92456;791.61;NaN;;;45.567745;;0 / 21;11022;2022-10-25 12:51:52:854
2.3856;4.4901;6.5779;1.1863;3.7492;8.9837;1.0608;-0.1292;-2.2257;-1.0102;0.1953;-0.3105;16.0;-19.65;-29.19;-16.16;138.05;-22.48;-7.52;5.0;983.51;51.244;35.9587;-83.92456;791.61;NaN;;;45.567745;;0 / 21;11522;2022-10-25 12:51:53:354
0.7469;0.1687;10.5616;1.2098;0.7819;9.7003;0.5661;1.0581;2.4309;-0.8871;-0.3551;-0.6509;15.0;-11.36;-26.32;-34.05;152.03;-14.17;-3.53;5.0;983.5;55.526;35.9587;-83.92456;791.61;NaN;;;45.567745;;0 / 21;12021;2022-10-25 12:51:53:853
1.7237;3.7086;7.4372;0.9629;2.9946;9.2885;0.6764;-1.6374;1.299;0.3728;0.5086;-0.0512;13.0;-10.72;-25.18;-34.57;150.25;-17.78;-5.92;5.0;983.48;53.892;35.9587;-83.92456;791.61;NaN;;;45.567745;;0 / 21;12522;2022-10-25 12:51:54:354
-2.3856;5.5519;5.4203;-2.5567;4.0903;8.5383;0.8176;-0.4635;3.4709;-0.0278;2.7513;1.2045;11.0;-12.75;-37.84;-25.71;149.02;-24.88;2.92;5.0;983.52;43.651;35.9587;-83.92456;791.61;NaN;;;45.567745;;0 / 21;13022;2022-10-25 12:51:54:854
-4.4195;5.3761;7.5317;-3.5118;4.7903;7.8032;-0.0268;1.2047;3.3735;0.3218;-0.2949;-0.0799;13.0;-8.89;-36.6;-39.24;126.4;-27.78;24.38;5.0;983.54;45.212;35.9587;-83.92456;791.61;NaN;;;45.567745;;0 / 21;13521;2022-10-25 12:51:55:353
-2.327;4.6744;6.6257;-2.3923;5.0643;8.0498;-3.154;2.9839;0.8429;-0.0178;-0.6993;0.1186;24.0;-15.34;-40.5;-38.21;125.0;-31.09;16.55;5.0;983.55;47.884;35.9587;-83.92456;791.61;NaN;;;45.567745;;0 / 21;14022;2022-10-25 12:51:55:854
0.6667;4.587;8.6737;-1.5862;4.3841;8.6275;0.6897;-0.7981;3.8972;0.093;-0.7633;-0.1446;27.0;-16.65;-36.86;-35.31;129.62;-26.56;10.42;5.0;983.53;42.836;35.9587;-83.92456;791.61;NaN;;;45.567745;;0 / 21;14522;2022-10-25 12:51:56:354
-0.9888;4.0436;6.9045;-1.3697;3.7154;8.9716;-2.8698;1.2422;4.1318;0.5408;-0.3451;0.7084;13.0;-12.56;-34.82;-31.97;140.1;-22.26;8.68;5.0;983.56;43.346;35.9587;-83.92456;791.61;NaN;;;45.567745;;0 / 21;15022;2022-10-25 12:51:56:854
0.2815;3.0129;12.7511;-0.2748;3.6611;9.0935;1.5651;0.4598;1.627;-0.7852;-0.656;-0.5701;8.0;-13.16;-36.49;-20.53;152.07;-21.92;1.73;5.0;983.52;43.369;35.9587;-83.92456;791.61;NaN;;;45.567745;;0 / 21;15522;2022-10-25 12:51:57:354
1.3753;1.5419;7.7821;0.3028;3.3053;9.2279;1.5849;-1.3428;2.0416;0.544;0.6917;-0.0399;9.0;-13.63;-36.77;-21.37;158.84;-13.75;-5.66;5.0;983.55;43.343;35.9587;-83.92456;791.61;NaN;;;45.567745;;0 / 21;16022;2022-10-25 12:51:57:854
3.4187;3.6341;12.1789;2.1859;2.8486;9.1257;1.7403;1.6956;0.1738;-1.4734;0.2749;-0.6864;37.0;-17.59;-39.98;-11.23;156.24;-16.89;-13.47;5.0;983.53;43.294;35.9587;-83.92456;791.61;NaN;;;45.567745;;0 / 21;16523;2022-10-25 12:51:58:355
2.8645;3.2776;9.1549;3.1744;4.0329;8.3564;1.3757;0.0386;3.0172;0.3887;0.0851;-0.0273;63.0;-21.97;-42.96;-8.25;152.6;-22.59;-21.71;5.0;983.53;41.128;35.9587;-83.92456;791.61;NaN;;;45.567745;;0 / 21;17023;2022-10-25 12:51:58:855
6.2019;2.2828;10.6645;4.3721;3.5061;8.0475;-0.5299;-0.7595;-0.5418;-0.9693;-0.9535;0.103;22.0;-45.94;-42.86;-2.03;128.75;-20.95;-28.51;5.0;983.53;43.064;35.9587;-83.92456;791.61;NaN;;;45.567745;;0 / 21;17522;2022-10-25 12:51:59:354
4.319;1.2712;9.4005;4.382;1.8711;8.5713;1.9591;0.4011;3.8523;0.5096;0.6256;0.4013;7.0;-54.11;-23.08;-9.47;111.44;-9.97;-29.78;5.0;983.55;41.299;35.9587;-83.92456;791.61;NaN;;;45.567745;;0 / 21;18023;2022-10-25 12:51:59:855
1.5861;-0.2225;12.7152;3.5851;2.7041;8.7181;1.4743;-1.3884;-2.482;0.1358;0.2311;0.365;12.0;-29.44;-12.97;-20.89;102.28;-16.01;-22.35;5.0;983.53;43.451;35.9587;-83.92456;791.61;NaN;;;45.567745;;0 / 21;18522;2022-10-25 12:52:00:354
3.7397;2.0327;7.7318;2.6138;1.827;9.2737;2.161;0.5421;3.24;0.5789;0.0667;0.2858;21.0;-27.09;-21.0;-26.25;129.91;-7.98;-14.64;5.0;983.52;47.786;35.9587;-83.92456;791.61;NaN;;;45.567745;;0 / 21;19022;2022-10-25 12:52:00:854
3.4199;1.8326;10.4946;2.7639;2.4661;9.0802;2.2097;-0.0354;5.1693;0.4434;0.3569;0.0874;57.0;-32.38;-24.97;-30.24;121.08;-16.46;-16.85;5.0;983.54;45.448;35.9587;-83.92456;791.61;NaN;;;45.567745;;0 / 21;19523;2022-10-25 12:52:01:355
2.2433;2.4742;7.733;2.2148;2.3204;9.2672;-0.5504;0.5283;2.5738;0.2074;-0.3129;0.4492;71.0;-31.24;-29.08;-33.47;130.79;-12.48;-12.6;5.0;983.52;43.206;35.9587;-83.92456;791.61;NaN;;;45.567745;;0 / 21;20022;2022-10-25 12:52:01:854
2.3031;2.5307;10.3232;2.0046;3.3989;8.9777;0.4198;0.1652;0.4565;-0.5214;0.1095;-0.2741;38.0;-27.22;-39.21;-28.93;141.0;-20.28;-12.59;5.0;983.5;41.449;35.9587;-83.92456;791.61;NaN;;;45.567745;;0 / 21;20522;2022-10-25 12:52:02:354
4.3047;3.2907;14.9788;2.0276;3.0116;9.1099;-0.2786;0.4895;1.9079;-0.1649;0.1614;0.4767;18.0;-23.36;-42.92;-27.07;152.08;-17.88;-12.55;5.0;983.53;48.281;35.9587;-83.92456;791.61;NaN;;;45.567745;;0 / 21;21023;2022-10-25 12:52:02:855
2.2181;3.5312;10.0792;1.2527;3.298;9.1501;0.1346;-0.1383;0.9516;-1.1875;-0.3055;-0.1351;5.0;-15.92;-40.69;-18.21;157.19;-19.65;-7.8;5.0;983.54;45.625;35.9587;-83.92456;791.61;NaN;;;45.567745;;0 / 21;21521;2022-10-25 12:52:03:353
0.352;1.0606;13.838;1.3037;3.3022;9.1414;0.5685;-0.2726;5.4158;0.8421;0.5618;0.6747;10.0;-12.08;-36.6;-15.77;161.83;-18.57;-7.91;5.0;983.56;46.07;35.9587;-83.92456;791.61;NaN;;;45.567745;;0 / 21;22021;2022-10-25 12:52:03:853
3.5504;3.5097;11.2738;2.0302;3.5563;8.9107;0.425;-0.7795;-0.7959;-0.7991;-0.4943;-0.3193;40.0;-18.43;-38.85;-6.43;153.67;-21.26;-12.83;5.0;983.52;44.013;35.9587;-83.92456;791.61;NaN;;;45.567745;;0 / 21;22522;2022-10-25 12:52:04:354
0.6787;2.1787;10.2981;1.8382;2.5982;9.2758;0.9374;0.5153;1.9278;-0.0627;0.2607;0.2223;57.0;-31.5;-45.11;-5.44;143.04;-15.29;-10.74;5.0;983.54;44.896;35.9587;-83.92456;791.61;NaN;;;45.567745;;0 / 21;23022;2022-10-25 12:52:04:854
3.9909;2.0435;11.2271;2.3314;3.559;8.8357;0.1182;-1.2601;-1.409;-0.3998;-0.3661;-0.355;34.0;-41.81;-41.36;-8.83;129.12;-21.28;-14.78;5.0;983.54;41.913;35.9587;-83.92456;791.61;NaN;;;45.567745;;0 / 21;23523;2022-10-25 12:52:05:355
5.5639;2.3892;15.3832;2.6836;2.4143;9.1181;-1.8583;0.2981;1.0917;0.2025;-0.4994;0.9222;14.0;-37.16;-44.49;-9.28;138.47;-14.62;-13.82;5.0;983.52;42.072;35.958683;-83.92458;654.83;NaN;;;2050.8584;;0 / 21;24023;2022-10-25 12:52:05:855
5.0671;2.1272;10.5174;2.556;3.2067;8.9081;-0.6754;-1.0663;-2.7481;-1.0753;-0.2614;-0.3742;8.0;-46.46;-45.84;-4.33;131.44;-19.09;-16.01;5.0;983.51;45.187;35.958683;-83.92458;654.83;NaN;;;2050.8584;;0 / 21;24522;2022-10-25 12:52:06:354
4.1249;3.5958;11.3121;2.9297;1.9289;9.1579;-2.067;0.4096;1.2205;0.5037;-0.4467;0.6208;17.0;-55.52;-51.62;-0.51;131.61;-11.81;-16.22;5.0;983.53;43.557;35.958683;-83.92458;654.83;NaN;;;2050.8584;;5 / 21;25022;2022-10-25 12:52:06:854
3.2572;0.9745;7.9424;2.7875;3.0139;8.906;0.4484;-1.8126;-1.0829;-1.1589;-0.4079;-0.0919;55.0;-76.95;-24.64;3.98;103.48;-17.9;-17.38;5.0;983.52;45.718;35.958683;-83.92458;654.83;NaN;;;2050.8584;;5 / 21;25522;2022-10-25 12:52:07:354
4.66;3.201;12.1298;2.6143;1.8565;9.2676;-1.5655;0.746;1.2214;0.3505;0.203;0.4476;67.0;-57.38;2.89;-8.49;81.37;-11.57;-17.41;5.0;983.52;42.571;35.958626;-83.92452;666.07;NaN;;0.0;143.29778;;0 / 21;26023;2022-10-25 12:52:07:855
2.4191;1.6149;9.2566;2.7126;3.4825;8.757;-0.2124;-1.6408;-1.7168;-0.6984;-0.4135;-0.0337;42.0;-23.83;-6.26;-14.85;83.82;-20.8;-17.21;5.0;983.52;44.327;35.958626;-83.92452;666.07;NaN;;0.0;143.29778;;0 / 21;26522;2022-10-25 12:52:08:354
3.2297;3.3673;10.3591;2.6666;1.9005;9.2438;-1.1031;0.7737;-1.598;-0.2738;0.204;0.165;22.0;-23.06;-14.04;-12.19;118.67;-11.17;-16.09;5.0;983.53;46.763;35.95859;-83.924484;674.64;NaN;;0.0;71.70786;;7 / 21;27022;2022-10-25 12:52:08:854
1.7106;1.506;9.1179;1.5809;3.5143;9.0178;1.3408;-0.9525;-2.3145;-0.4939;0.2353;-0.5682;9.0;-22.2;-16.69;-14.14;116.43;-21.0;-9.94;5.0;983.53;47.734;35.95859;-83.924484;674.64;NaN;;0.0;71.70786;;7 / 21;27522;2022-10-25 12:52:09:354
0.4848;2.5331;10.5114;2.0424;2.6431;9.2203;-1.3744;-0.0494;1.1799;0.5221;-0.2111;0.4983;13.0;-22.57;-17.12;-14.29;121.18;-14.18;-11.07;5.0;983.51;47.321;35.95859;-83.924484;674.64;NaN;;0.0;71.70786;;7 / 21;28022;2022-10-25 12:52:09:854
1.252;2.0841;6.5001;1.7166;3.524;8.9892;-0.13;-1.3151;-2.3342;0.1755;-0.1917;-0.0791;41.0;-24.56;-14.61;-12.75;109.25;-21.06;-10.81;5.0;983.51;49.35;35.95859;-83.924484;674.64;NaN;;0.0;71.70786;;7 / 21;28521;2022-10-25 12:52:10:353
0.7875;2.758;9.8973;1.6456;2.5329;9.3299;-0.0958;0.3013;-0.9369;0.0975;0.1432;0.053;70.0;-26.87;-12.45;-12.94;106.5;-14.57;-10.45;5.0;983.52;44.417;35.95859;-83.924484;674.64;NaN;;0.0;71.70786;;7 / 21;29022;2022-10-25 12:52:10:854
1.9717;2.6444;7.5138;1.6882;3.2527;9.0962;-0.7285;-1.4267;-1.1905;0.423;0.087;0.3885;71.0;-28.89;-8.1;-18.79;94.94;-17.51;-10.94;5.0;983.5;51.141;35.95859;-83.924484;674.64;NaN;;0.0;71.70786;;7 / 21;29523;2022-10-25 12:52:11:355
1.4605;2.2014;7.0436;1.5583;2.2901;9.4073;0.1947;0.265;-2.8001;-0.3186;-0.0398;-0.3321;29.0;-28.57;-7.54;-26.98;89.37;-14.57;-10.44;5.0;983.49;45.165;35.95859;-83.924484;674.64;NaN;;0.0;71.70786;;6 / 21;30022;2022-10-25 12:52:11:854
0.5435;2.1224;6.032;1.086;2.9904;9.2762;0.1694;-1.1589;1.7393;0.1564;-0.0609;0.1486;15.0;-24.71;-9.99;-33.32;91.13;-13.65;-7.93;5.0;983.51;45.308;35.95859;-83.924484;674.64;NaN;;0.0;71.70786;;6 / 21;30522;2022-10-25 12:52:12:354
0.3365;2.1021;7.0086;1.1194;2.2264;9.4848;1.8079;0.4403;-0.2967;-0.1187;0.2776;-0.5301;15.0;-17.91;-12.86;-33.47;109.55;-12.99;-7.62;5.0;983.51;46.628;35.95859;-83.924484;674.64;NaN;;0.0;71.70786;;6 / 21;31023;2022-10-25 12:52:12:855
0.9338;2.0279;7.1847;0.9326;2.8531;9.336;-0.0791;-1.1048;-0.7429;0.5756;0.0428;0.0468;38.0;-9.99;-9.96;-31.44;111.99;-12.72;-5.87;5.0;983.49;47.519;35.95859;-83.924484;674.64;NaN;;0.0;71.70786;;6 / 21;31522;2022-10-25 12:52:13:354
1.6519;2.3414;7.7222;0.9492;1.8104;9.5912;1.745;-0.4346;-0.006;-0.3369;0.1565;-0.6224;74.0;-6.75;-9.43;-27.41;127.08;-12.28;-6.58;5.0;983.52;51.363;35.95859;-83.924484;674.64;NaN;;0.0;71.70786;;6 / 21;32023;2022-10-25 12:52:13:855
1.6232;1.1133;7.0014;0.1543;2.3608;9.517;2.0224;-1.6236;-0.6581;0.33;-0.1736;-0.7013;94.0;-2.76;-4.16;-28.52;99.47;-9.4;-2.09;5.0;983.5;52.908;35.95859;-83.924484;674.64;NaN;;0.0;71.70786;;6 / 21;32523;2022-10-25 12:52:14:355
1.1073;0.5662;8.7721;0.6756;1.2152;9.7076;0.8747;-1.5546;2.8735;-0.2584;-0.2863;-1.4458;70.0;-2.29;-5.55;-33.21;189.05;-7.12;-3.98;5.0;983.52;44.729;35.95859;-83.924484;674.64;NaN;;0.0;71.70786;;4 / 21;33022;2022-10-25 12:52:14:854
1.1312;-0.1376;6.8327;0.5976;1.5967;9.6573;1.2103;-1.9963;-3.1577;0.5098;0.2213;0.1773;76.0;4.89;-1.41;-40.07;306.21;-9.37;-3.54;5.0;983.5;42.917;35.95859;-83.924484;674.64;NaN;;0.0;71.70786;;4 / 21;33522;2022-10-25 12:52:15:354
1.9825;1.7405;7.3307;1.7752;0.8699;9.6053;2.0939;1.2385;-1.2953;0.0375;0.2456;-0.3896;82.0;13.76;-10.67;-41.72;247.76;-3.19;-10.76;5.0;983.51;51.428;35.958584;-83.92448;697.28;NaN;;0.0;132.0894;;3 / 21;34022;2022-10-25 12:52:15:854
0.1005;0.2213;6.3634;1.4021;2.6546;9.3358;2.0647;-1.5905;2.778;0.5136;-0.0733;-1.1386;90.0;26.19;-24.24;-39.36;246.48;-15.71;-8.54;5.0;983.5;55.22;35.958584;-83.92448;697.28;NaN;;0.0;132.0894;;3 / 21;34522;2022-10-25 12:52:16:354
2.636;2.6791;7.3092;2.1626;1.4956;9.4476;2.2461;1.406;-0.4843;-0.3715;0.341;-0.804;61.0;29.34;-37.16;-35.29;228.95;-9.96;-13.67;5.0;983.53;55.124;35.958584;-83.92448;697.28;NaN;;0.0;132.0894;;2 / 21;35021;2022-10-25 12:52:16:853
2.3222;0.7397;9.0329;2.1806;2.2496;9.2927;2.1138;-1.0557;2.9826;0.6173;0.2396;-0.1709;36.0;11.27;-28.31;-42.73;228.4;-13.26;-13.21;5.0;983.48;57.62;35.958584;-83.92448;697.28;NaN;;0.0;132.0894;;2 / 21;35522;2022-10-25 12:52:17:354
1.398;2.5798;6.8949;3.1869;1.4184;9.1653;1.805;1.1065;0.5388;-0.3856;0.1063;-0.3799;57.0;5.06;-29.51;-30.67;209.64;-10.37;-17.13;5.0;983.52;56.889;35.958584;-83.92448;697.28;NaN;;0.0;132.0894;;3 / 21;36022;2022-10-25 12:52:17:854
1.9319;1.057;6.5276;2.7614;2.9005;8.9516;0.6666;-1.6375;3.2116;1.2848;0.6806;0.4523;65.0;-6.32;-24.82;-29.08;190.52;-17.2;-17.14;5.0;983.49;54.546;35.958584;-83.92448;697.28;NaN;;0.0;132.0894;;3 / 21;36523;2022-10-25 12:52:18:355
1.1898;2.9303;5.6883;1.7775;2.8051;9.2273;1.9604;0.1114;0.7378;-0.0801;0.2532;-0.4108;29.0;-5.1;-29.98;-28.54;182.55;-17.02;-11.52;5.0;983.53;54.657;35.958584;-83.92448;697.28;NaN;;0.0;132.0894;;3 / 21;37021;2022-10-25 12:52:18:853
1.8745;1.9848;6.7119;0.8423;4.1342;8.8527;1.2805;-2.3379;-0.1193;1.0623;0.5317;0.7098;21.0;-6.39;-28.48;-33.98;165.8;-24.93;-5.44;5.0;983.47;49.716;35.958584;-83.92448;697.28;NaN;;0.0;132.0894;;3 / 21;37522;2022-10-25 12:52:19:354
2.6575;3.2058;7.6493;1.6136;3.1633;9.1411;1.4928;-0.5547;2.627;-0.1606;0.0049;-0.5772;24.0;-9.34;-33.92;-31.41;174.51;-21.31;-12.78;5.0;983.49;53.962;35.958584;-83.92448;697.28;NaN;;0.0;132.0894;;4 / 21;38022;2022-10-25 12:52:19:854
0.8847;2.6695;5.8211;1.1626;3.9185;8.9143;-0.1387;-1.818;-0.1927;0.7835;0.2699;0.0542;89.0;-5.12;-30.82;-36.28;178.75;-23.55;-7.43;5.0;983.48;57.081;35.958584;-83.92448;697.28;NaN;;0.0;132.0894;;4 / 21;38522;2022-10-25 12:52:20:354
0.6619;3.0595;5.2956;1.6504;2.8757;9.2291;0.8158;-0.531;1.5631;-0.0161;-0.0896;-0.184;81.0;-2.91;-33.94;-31.13;186.11;-17.05;-10.14;5.0;983.49;52.637;35.958584;-83.92448;697.28;NaN;;0.0;132.0894;;4 / 21;39022;2022-10-25 12:52:20:854
-0.3305;1.6914;5.7529;0.1666;3.5234;9.1503;0.2291;-1.9803;-1.3502;0.4823;0.6955;-0.1051;22.0;3.26;-28.56;-31.67;192.94;-21.06;-1.04;5.0;983.47;46.972;35.958584;-83.92448;697.28;NaN;;0.0;132.0894;;4 / 21;39523;2022-10-25 12:52:21:355
0.0718;1.768;7.0998;0.0229;1.3541;9.7127;0.4777;0.7573;-2.2005;-0.1565;-0.2134;-0.286;20.0;8.16;-27.81;-29.31;200.63;-9.49;-1.21;5.0;983.54;51.751;35.958584;-83.924484;672.49;NaN;;0.0;116.91677;;8 / 21;40023;2022-10-25 12:52:21:855
-1.0295;0.8907;5.4108;-0.5289;2.6571;9.425;1.432;-1.9104;0.9937;0.6163;0.7749;-0.5327;86.0;13.24;-20.53;-34.43;225.67;-15.72;3.21;5.0;983.48;62.802;35.958584;-83.924484;672.49;NaN;;0.0;116.91677;;8 / 21;40522;2022-10-25 12:52:22:354
-1.5215;1.1791;7.3798;-0.5591;0.0332;9.7906;-0.9193;0.4093;-1.9517;-0.0709;-0.2851;-0.1377;107.0;18.83;-17.23;-32.89;223.96;-0.22;4.64;5.0;983.48;57.48;35.958584;-83.924484;672.49;NaN;;0.0;116.91677;;8 / 21;41023;2022-10-25 12:52:22:855
-0.3006;0.984;5.7027;-1.9676;2.2869;9.3311;0.3347;-3.8344;1.9575;0.9182;1.125;0.7504;110.0;32.23;-3.41;-31.18;282.88;-13.49;11.91;5.0;983.46;49.994;35.958584;-83.924484;672.49;NaN;;0.0;116.91677;;8 / 21;41522;2022-10-25 12:52:23:354
-0.8007;1.4486;8.8223;-0.1964;0.1858;9.8029;-0.7186;1.7268;0.0921;0.0191;-0.213;-0.2928;131.0;46.03;-11.46;-18.96;257.01;-1.64;2.7;5.0;983.49;52.137;35.958584;-83.924484;672.49;NaN;;0.0;116.91677;;7 / 21;42022;2022-10-25 12:52:23:854
-1.063;0.9673;6.6509;-1.236;1.0831;9.668;0.0324;-1.9044;-0.752;0.2633;-0.26;-0.1109;374.0;30.99;-23.19;-21.36;234.38;-6.34;7.29;5.0;983.44;47.651;35.958584;-83.924484;672.49;NaN;;0.0;116.91677;;7 / 21;42522;2022-10-25 12:52:24:354
-1.9271;1.0762;9.0377;-0.4231;0.1929;9.7956;-0.3717;1.264;-0.8183;-0.0224;-0.1284;-0.0496;378.0;21.81;-24.15;-23.94;221.9;-1.85;2.81;5.0;983.46;47.453;35.958584;-83.924484;672.49;NaN;;0.0;116.91677;;7 / 21;43022;2022-10-25 12:52:24:854
0.9302;-0.1244;7.4013;-1.1939;1.5468;9.61;1.4877;-1.9923;-2.77;0.2178;-0.1835;0.5123;404.0;13.09;-22.59;-30.86;207.28;-9.08;7.08;5.0;983.45;47.832;35.958584;-83.924484;672.49;NaN;;0.0;116.91677;;7 / 21;43521;2022-10-25 12:52:25:353
-4.27;-0.9505;12.5629;-0.9125;0.0262;9.7641;0.7248;1.665;-3.1783;-0.1695;0.2612;-0.2719;425.0;9.04;-24.36;-32.64;195.65;-0.1;3.95;5.0;983.44;45.083;35.958584;-83.924484;672.49;NaN;;0.0;116.91677;;7 / 21;44022;2022-10-25 12:52:25:854
-0.0347;0.9936;7.2912;-2.0059;2.1988;9.3441;1.9883;-1.3774;-3.0971;0.3398;-0.0195;-0.0857;454.0;9.53;-24.38;-30.97;191.47;-12.96;12.12;5.0;983.46;49.506;35.958584;-83.924484;672.49;NaN;;0.0;116.91677;;7 / 21;44523;2022-10-25 12:52:26:355
-4.8314;0.8728;10.5927;-2.0496;0.8363;9.5535;-0.2196;0.5874;-2.5281;-0.06;-0.0291;-0.4074;405.0;11.14;-24.43;-26.61;193.34;-4.89;12.11;5.0;983.43;53.428;35.95858;-83.9245;713.07;NaN;;0.0;60.515167;;9 / 21;45022;2022-10-25 12:52:26:854
-1.2162;1.4617;8.7494;-2.9691;3.7565;8.5583;1.7745;-2.0213;-1.828;0.3585;0.2711;0.2375;374.0;11.68;-20.72;-25.13;204.87;-11.6;13.77;5.0;983.47;47.401;35.95858;-83.9245;713.07;NaN;;0.0;60.515167;;9 / 21;45523;2022-10-25 12:52:27:355
-3.833;2.2983;10.4707;-2.4021;1.7735;9.341;-2.0113;0.1692;0.8885;-0.3754;0.0633;0.3137;327.0;4.61;-20.27;-26.72;173.83;-12.39;13.57;5.0;983.48;46.054;35.958584;-83.924515;725.38;NaN;;0.0;53.52112;;8 / 21;46022;2022-10-25 12:52:27:854
-0.5602;2.12;9.1944;-2.5014;2.8318;9.0495;1.3121;-0.9814;-1.8615;-0.2824;-0.325;0.0132;148.0;8.03;-8.29;-33.47;26.79;-16.78;15.45;5.0;983.51;46.448;35.958584;-83.924515;725.38;NaN;;0.0;53.52112;;8 / 21;46522;2022-10-25 12:52:28:354
-3.189;2.339;9.5979;-3.1483;2.7301;8.8772;-0.0612;-0.14;0.3294;0.4843;0.2211;-0.2321;99.0;15.45;-0.71;-37.76;338.07;-13.16;16.85;5.0;983.49;48.037;35.958584;-83.92453;707.27;NaN;;0.0;52.754543;;10 / 21;47023;2022-10-25 12:52:28:855
-2.0758;2.9602;9.3861;-2.2001;3.6226;8.8435;0.7389;-0.6696;-3.9728;-0.2086;-0.8074;0.0741;42.0;15.43;-11.33;-46.09;335.59;-21.68;13.97;5.0;983.47;48.336;35.958584;-83.92453;707.27;NaN;;0.0;52.754543;;10 / 21;47522;2022-10-25 12:52:29:354
-2.9447;2.1416;12.5498;-0.2356;3.1039;9.2995;-2.3598;-0.1495;1.7375;0.6048;-0.0124;0.5201;31.0;3.71;-16.95;-47.46;242.97;-16.79;3.96;5.0;983.47;48.512;35.95857;-83.924545;734.98;NaN;;0.0;36.70213;;11 / 21;48023;2022-10-25 12:52:29:855
0.7744;3.1436;10.0421;0.0515;4.6173;8.6515;-0.4123;-1.2263;-3.1859;-0.8266;-0.1723;-0.6171;31.0;0.08;-25.07;-39.24;183.6;-28.09;-0.34;5.0;983.48;48.917;35.95857;-83.924545;734.98;NaN;;0.0;36.70213;;11 / 21;48522;2022-10-25 12:52:30:354
-0.8859;4.3717;11.6019;0.0983;2.6718;9.4352;-2.2244;1.3381;2.5816;0.4497;0.3287;0.3458;32.0;-3.75;-28.76;-36.23;169.11;-15.06;-0.66;5.0;983.49;47.665;35.95855;-83.92456;731.9;NaN;;0.0;28.666037;;13 / 21;49022;2022-10-25 12:52:30:854
1.1862;2.642;8.6904;0.5669;3.1175;9.2806;0.6537;-0.396;-0.7838;-1.6382;-0.2927;-0.3147;38.0;-4.65;-31.97;-25.82;171.2;-18.54;-3.5;5.0;983.46;48.613;35.95855;-83.92456;731.9;NaN;;0.0;28.666037;;13 / 21;49522;2022-10-25 12:52:31:354
0.2572;4.2317;11.1446;1.0212;5.6359;7.9602;0.3961;-1.9935;-1.0093;1.0019;0.8838;-0.1582;41.0;-4.01;-27.97;-19.84;176.63;-23.53;-8.41;5.0;983.45;49.105;35.958534;-83.92456;822.09;NaN;;0.0;23.690012;;13 / 21;50021;2022-10-25 12:52:31:853
-0.9422;8.9958;7.5604;0.6617;4.4155;8.7313;0.2651;-0.8039;-1.1198;-1.6313;0.5478;0.834;42.0;-2.48;-23.14;-9.94;175.57;-26.76;-4.33;5.0;983.46;55.783;35.958534;-83.92456;822.09;NaN;;0.0;23.690012;;13 / 21;50522;2022-10-25 12:52:32:354
-4.7282;0.5148;8.2382;-4.4782;4.1353;7.6821;3.5257;-3.5098;4.1901;1.5454;3.1509;-1.3524;62.0;0.0;-14.91;-12.86;143.55;-24.94;30.24;5.0;983.44;56.159;35.958534;-83.92456;822.09;NaN;;0.0;23.690012;;12 / 21;51021;2022-10-25 12:52:32:853
-3.0488;-0.7457;11.5672;-3.2236;-0.1394;9.2606;1.5304;-0.2235;-0.0876;-1.3741;-0.1223;0.5653;104.0;12.38;-0.37;-17.33;267.17;0.81;19.19;5.0;983.47;60.355;35.958534;-83.92456;822.09;NaN;;0.0;23.690012;;12 / 21;51522;2022-10-25 12:52:33:354
-1.7022;0.5758;6.6341;-0.9916;3.5184;9.0999;-1.2455;-3.1134;-1.3039;1.4037;-0.7406;0.8144;346.0;14.93;7.91;-24.81;322.93;-5.77;14.75;5.0;983.46;48.736;35.95851;-83.92457;802.76;NaN;;0.0;21.63837;;12 / 21;52021;2022-10-25 12:52:33:853
-0.3341;3.5157;9.871;-0.1194;4.3877;8.7695;-0.0161;-0.4305;2.1874;0.3594;0.0717;-0.0764;233.0;10.48;-17.59;-30.47;254.75;-26.58;0.78;5.0;983.46;47.372;35.95851;-83.92457;802.76;NaN;;0.0;21.63837;;12 / 21;52522;2022-10-25 12:52:34:354
-1.8111;4.9259;10.2287;-1.7066;5.2346;8.1152;-0.396;-0.0164;0.4712;-0.234;0.7739;0.4171;218.0;14.89;-25.56;-25.14;236.79;-32.69;8.3;5.0;983.48;48.348;35.958496;-83.92457;789.77;NaN;;0.0;19.804333;;12 / 21;53022;2022-10-25 12:52:34:854
-0.0191;2.2301;10.5425;-0.7036;4.9352;8.445;0.4764;-1.1296;2.6437;0.2926;0.4839;0.2365;232.0;19.56;-27.51;-10.71;226.82;-30.22;4.76;5.0;983.44;47.974;35.958496;-83.92457;789.77;NaN;;0.0;19.804333;;12 / 21;53522;2022-10-25 12:52:35:354
-1.0319;4.6361;8.8475;-0.3321;4.841;8.522;-0.4548;0.1349;0.4031;0.1617;0.2336;0.4658;220.0;16.78;-25.18;-5.72;221.79;-28.66;2.16;5.0;983.43;50.767;35.958496;-83.92457;789.77;NaN;;0.0;19.804333;;12 / 21;54022;2022-10-25 12:52:35:854
-0.1292;4.3609;8.4464;-0.294;4.9284;8.4732;-0.4741;-0.9235;-0.5054;0.5821;0.4937;0.2891;178.0;12.58;-20.7;2.76;213.97;-30.17;1.99;5.0;983.46;49.134;35.958496;-83.92457;789.77;NaN;;0.0;19.804333;;12 / 21;54522;2022-10-25 12:52:36:354
0.1388;5.5866;7.552;0.4549;5.4347;8.1503;0.4456;0.1438;-1.4134;-0.002;-0.2515;-0.5983;160.0;8.42;-18.09;7.95;200.22;-32.83;-4.83;5.0;983.44;51.155;35.95849;-83.924576;770.13;NaN;;0.0;16.265652;;12 / 21;55022;2022-10-25 12:52:36:854
-0.4741;6.5228;9.8013;-1.6366;5.2972;8.089;1.5265;-1.0544;2.3647;0.3396;0.4458;-1.0702;156.0;12.11;-5.44;5.12;246.41;-32.7;11.44;5.0;983.47;52.253;35.95849;-83.924576;770.13;NaN;;0.0;16.265652;;12 / 21;55522;2022-10-25 12:52:37:354
-6.8638;5.388;10.9313;-2.3503;5.5366;7.7455;-3.4191;0.1401;-1.0372;0.0292;0.4306;0.5499;116.0;20.36;-1.33;-5.94;287.76;-34.85;16.01;5.0;983.46;55.328;35.95848;-83.92457;767.04;NaN;;0.0;15.127054;;12 / 21;56023;2022-10-25 12:52:37:855
-3.1507;3.1711;8.627;-3.4135;2.9811;8.6966;3.8703;3.1679;-2.6177;-2.464;0.0109;-2.5177;97.0;21.99;-8.83;-19.87;267.95;-17.7;21.43;5.0;983.45;57.976;35.95848;-83.92457;767.04;NaN;;0.0;15.127054;;12 / 21;56522;2022-10-25 12:52:38:354
-3.5025;2.776;11.6821;-3.7414;2.9688;8.565;0.3646;0.3426;1.3315;0.3198;0.777;-0.4029;141.0;24.38;-5.87;-29.85;298.9;-17.62;23.6;5.0;983.45;52.686;35.95847;-83.924576;766.84;NaN;;0.0;14.374107;;13 / 21;57021;2022-10-25 12:52:38:853
-1.908;5.8905;7.022;-2.3982;5.5201;7.7426;1.6378;0.4392;-0.607;0.5768;-0.8985;-0.4545;286.0;27.84;-14.87;-31.71;298.73;-34.26;17.21;5.0;983.43;56.814;35.95847;-83.924576;766.84;NaN;;0.0;14.374107;;13 / 21;57522;2022-10-25 12:52:39:354
-1.2461;4.3837;10.7399;-1.292;4.7751;8.4675;-1.9505;0.8474;3.5501;0.4968;0.6738;0.58;278.0;19.2;-16.58;-35.51;275.61;-26.53;5.01;5.0;983.39;57.191;35.958454;-83.924576;765.38;NaN;;0.0;13.931856;;11 / 21;58022;2022-10-25 12:52:39:854
-0.2297;4.526;9.082;-0.547;4.3418;8.7761;0.6539;0.5952;-1.3956;-0.4003;-0.4247;-0.2286;450.0;16.03;-14.46;-42.28;295.76;-26.28;3.57;5.0;983.42;56.651;35.958454;-83.924576;765.38;NaN;;0.0;13.931856;;11 / 21;58522;2022-10-25 12:52:40:354
-3.3374;3.7181;10.0205;-0.8719;2.9664;9.3065;-2.0245;0.12;1.6124;-0.5023;0.0454;0.7769;465.0;14.68;-13.44;-45.07;279.17;-18.03;4.27;5.0;983.44;57.937;35.958416;-83.924576;774.2;NaN;;5.15;13.84998;63.9;12 / 21;59022;2022-10-25 12:52:40:854
0.0491;3.9766;12.1753;-0.573;4.5589;8.6636;-0.1935;-1.3208;-1.635;-0.1965;-0.1284;-0.0019;464.0;18.88;-23.25;-39.64;265.7;-27.7;3.78;5.0;983.43;57.088;35.958416;-83.924576;774.2;NaN;;5.15;13.84998;63.9;12 / 21;59522;2022-10-25 12:52:41:354
-4.089;5.3028;10.716;-1.1383;4.0273;8.8688;-2.4548;-0.7266;2.1937;0.4049;1.1013;1.8062;452.0;15.11;-26.36;-36.39;227.27;-21.03;4.96;5.0;983.42;57.897;35.95838;-83.92457;781.21;NaN;;1.84;14.975008;72.5;14 / 21;60021;2022-10-25 12:52:41:853
-0.268;5.5448;6.5815;-0.7636;6.3429;7.4401;1.5026;-1.4158;-2.064;-1.1256;-0.312;-0.6874;556.0;8.4;-27.47;-33.0;286.35;-39.24;3.32;5.0;983.44;60.252;35.95838;-83.92457;781.21;NaN;;1.84;14.975008;72.5;14 / 21;60522;2022-10-25 12:52:42:354
-0.9924;4.7174;10.2706;-0.2993;4.686;8.6094;-2.1658;-0.3451;2.0653;0.7877;0.4933;0.8247;615.0;11.31;-25.11;-37.54;235.52;-24.35;1.16;5.0;983.44;59.116;35.958355;-83.92458;784.08;NaN;;0.0;13.852684;;14 / 21;61022;2022-10-25 12:52:42:854
0.0024;5.0755;8.5887;-0.764;5.5496;8.0491;0.0285;-0.6175;-1.6455;-0.4901;-0.5558;-0.2126;728.0;15.45;-30.75;-33.26;242.44;-34.47;5.42;5.0;983.44;59.286;35.958355;-83.92458;784.08;NaN;;0.0;13.852684;;14 / 21;61523;2022-10-25 12:52:43:355
-2.0255;4.526;9.7211;-0.7894;4.2016;8.8257;-1.5084;0.1579;-0.1126;0.4659;0.2527;0.8222;764.0;13.22;-31.24;-31.82;211.28;-23.02;6.25;5.0;983.45;59.862;35.958336;-83.924576;786.94;NaN;;3.6;14.674608;141.0;14 / 21;62023;2022-10-25 12:52:43:855
-0.4872;4.2365;7.9783;-0.718;5.4293;8.135;0.3144;-1.194;-1.3402;-0.0911;-0.4473;-0.0037;857.0;2.27;-29.55;-32.93;172.26;-33.62;5.04;5.0;983.46;59.294;35.958336;-83.924576;786.94;NaN;;3.6;14.674608;141.0;14 / 21;62522;2022-10-25 12:52:44:354
-2.9889;4.52;9.3538;-1.517;3.8918;8.8726;0.1399;0.911;-1.9872;-0.2589;0.401;-0.2196;860.0;4.48;-27.71;-36.64;168.18;-23.38;9.7;5.0;983.45;61.023;35.95831;-83.92458;781.3;NaN;;4.14;15.055881;152.6;14 / 21;63022;2022-10-25 12:52:44:854
-1.1192;3.609;7.8024;-1.2896;4.6238;8.5515;0.4934;-0.8199;-1.639;-0.2169;-0.3124;-0.1592;1043.0;9.96;-31.24;-34.87;204.35;-28.13;8.58;5.0;983.45;60.191;35.95831;-83.92458;781.3;NaN;;4.14;15.055881;152.6;14 / 21;63522;2022-10-25 12:52:45:354
-2.6695;3.4522;9.4687;-1.2393;3.7751;8.9657;-1.2455;-0.2661;0.6269;0.4052;0.0133;0.5656;1049.0;7.95;-31.33;-34.71;190.1;-20.18;8.11;5.0;983.45;60.721;35.9583;-83.92459;780.27;NaN;;4.25;15.42598;152.7;15 / 21;64021;2022-10-25 12:52:45:853
-0.5734;2.5379;9.8507;-1.5859;4.7474;8.4331;1.2413;-1.4913;-2.7028;0.0181;0.2166;0.0276;1090.0;5.29;-32.55;-30.41;177.45;-28.95;10.65;5.0;983.45;59.982;35.9583;-83.92459;780.27;NaN;;4.25;15.42598;152.7;15 / 21;64521;2022-10-25 12:52:46:353
-2.6683;4.1189;10.9325;-2.1712;3.6894;8.8229;-1.239;0.1631;-0.2411;0.0989;0.1447;0.3642;1082.0;8.27;-29.98;-29.1;185.2;-22.3;12.58;5.0;983.44;61.316;35.958282;-83.92459;783.89;NaN;;4.21;15.504432;157.7;15 / 21;65021;2022-10-25 12:52:46:853
-0.3843;3.7887;4.9989;-2.5868;5.4306;7.7451;1.7184;-2.3327;-1.5773;0.5304;0.2282;-0.0522;1161.0;12.17;-29.79;-27.94;197.6;-28.76;16.17;5.0;983.46;59.339;35.958282;-83.92459;783.89;NaN;;4.21;15.504432;157.7;15 / 21;65521;2022-10-25 12:52:47:353
-2.7951;4.1859;8.723;-2.6649;3.9217;8.5842;0.9259;0.7872;-1.104;-0.14;0.4058;-0.405;1174.0;14.57;-32.94;-26.49;204.23;-24.96;14.58;5.0;983.45;61.011;35.95827;-83.92458;783.56;NaN;;4.32;15.434264;156.7;15 / 21;66021;2022-10-25 12:52:47:853
-3.0093;4.1166;6.7825;-2.6593;5.6243;7.5806;1.0103;-2.3806;-2.4565;-0.5772;-0.3674;-0.3896;1178.0;12.32;-35.27;-19.93;196.81;-35.0;19.33;5.0;983.48;61.09;35.95827;-83.92458;783.56;NaN;;4.32;15.434264;156.7;15 / 21;66521;2022-10-25 12:52:48:353
-3.4642;4.3932;9.8889;-2.5105;3.6427;8.7521;0.1024;0.3496;-2.0946;-0.3757;0.1949;-0.1423;1145.0;8.44;-33.39;-17.36;187.21;-21.81;16.01;5.0;983.42;60.521;35.958256;-83.92458;786.05;NaN;;4.46;15.607519;151.6;14 / 21;67022;2022-10-25 12:52:48:854
-3.0631;2.7915;10.3989;-3.2173;4.6971;7.9848;0.4382;-1.1853;-5.8254;-0.6272;-1.3245;-0.6527;1312.0;2.96;-32.44;-17.62;168.6;-28.62;21.95;5.0;983.45;61.536;35.958256;-83.92458;786.05;NaN;;4.46;15.607519;151.6;14 / 21;67522;2022-10-25 12:52:49:354
-2.6791;3.4834;9.9069;-1.9932;3.0992;9.088;-0.3497;0.4075;-2.1228;-0.1404;-0.2795;-0.1457;1351.0;5.08;-27.6;-17.81;181.81;-19.45;13.57;5.0;983.45;60.657;35.95825;-83.924576;787.53;NaN;;4.43;16.167461;144.9;13 / 21;68023;2022-10-25 12:52:49:855
-2.1464;3.3506;8.2681;-1.9369;4.608;8.4371;0.8526;-0.521;-3.0059;-0.1083;-0.378;-0.1781;1289.0;4.56;-28.41;-12.54;186.13;-27.73;12.9;5.0;983.47;59.638;35.95825;-83.924576;787.53;NaN;;4.43;16.167461;144.9;13 / 21;68522;2022-10-25 12:52:50:354
-1.7082;3.2094;9.7475;-1.0632;3.0029;9.2748;-1.7085;0.876;-1.6046;0.2976;0.0047;0.4855;1243.0;0.64;-25.88;-11.77;178.99;-17.83;6.54;5.0;983.44;60.17;35.958237;-83.92457;789.8;NaN;;4.21;17.4059;144.1;12 / 21;69022;2022-10-25 12:52:50:854
-0.4226;4.4004;6.9033;-1.9002;5.2514;8.0612;0.9199;-1.5365;-1.1602;0.5782;0.4353;0.276;1287.0;4.22;-22.87;-11.06;186.9;-27.29;10.98;5.0;983.45;60.412;35.958237;-83.92457;789.8;NaN;;4.21;17.4059;144.1;12 / 21;69522;2022-10-25 12:52:51:354
-3.8474;2.8848;10.3603;-2.4268;3.6853;8.7578;-0.8798;-0.432;1.2492;0.2039;0.4367;0.69;1229.0;15.69;-21.82;-6.82;219.83;-21.51;14.19;5.0;983.46;59.996;35.958225;-83.92457;788.56;NaN;;4.43;17.949236;152.7;10 / 21;70022;2022-10-25 12:52:51:854
-1.5514;4.4782;5.9865;-2.0472;5.1099;8.1159;0.944;-1.5097;-1.5564;0.4087;0.1416;0.2465;1292.0;17.66;-20.03;-12.39;239.03;-31.4;14.16;5.0;983.47;61.366;35.958225;-83.92457;788.56;NaN;;4.43;17.949236;152.7;10 / 21;70522;2022-10-25 12:52:52:354
-2.5989;3.4965;9.7582;-2.0945;3.59;8.8823;-0.1588;0.3713;-1.2725;-0.1801;0.1181;-0.0063;1248.0;15.26;-19.05;-21.6;232.71;-23.29;11.93;5.0;983.46;62.478;35.958206;-83.92457;786.02;NaN;;4.32;17.082584;154.2;11 / 21;71023;2022-10-25 12:52:52:855
-1.0199;4.2664;7.3283;-1.4814;4.7778;8.435;0.2078;-1.6556;-0.7994;0.3515;-0.0599;0.2763;1317.0;16.69;-19.67;-29.31;249.86;-26.03;11.27;5.0;983.48;60.425;35.958206;-83.92457;786.02;NaN;;4.32;17.082584;154.2;11 / 21;71522;2022-10-25 12:52:53:354
-2.3198;3.4128;9.0891;-1.7912;3.6396;8.9284;0.962;0.4559;-2.5773;-0.3369;0.0522;-0.2404;1277.0;18.43;-29.63;-32.61;221.82;-23.73;10.46;5.0;983.46;60.206;35.95819;-83.92457;786.75;NaN;;4.32;16.932783;151.9;11 / 21;72021;2022-10-25 12:52:53:853
-1.3848;3.912;5.4826;-1.626;4.5606;8.528;0.317;-1.9821;-0.3975;-0.0893;-0.5609;-0.119;1341.0;19.65;-36.84;-30.66;219.4;-27.71;10.79;5.0;983.46;61.46;35.95819;-83.92457;786.75;NaN;;4.32;16.932783;151.9;11 / 21;72521;2022-10-25 12:52:54:353
-0.8043;3.475;8.4906;-1.2689;3.2213;9.1752;0.9178;0.0828;-1.1426;-0.0857;0.1924;-0.1002;1310.0;16.41;-38.51;-28.57;204.0;-19.18;7.87;5.0;983.46;61.749;35.958176;-83.92456;788.73;NaN;;4.5;16.231318;152.8;13 / 21;73021;2022-10-25 12:52:54:853
-2.9901;2.9925;7.1656;-2.9962;3.8154;8.5227;-1.085;-0.5053;-2.1775;-0.2542;0.0829;0.3957;1344.0;19.8;-35.79;-27.36;205.62;-22.9;19.37;5.0;983.49;59.61;35.958176;-83.92456;788.73;NaN;;4.5;16.231318;152.8;13 / 21;73521;2022-10-25 12:52:55:353
-2.6838;3.9168;6.9703;-2.4967;4.0216;8.5886;-0.3389;-0.1849;0.0899;-0.0056;0.2162;0.1192;1487.0;23.68;-36.68;-23.16;217.41;-24.37;16.05;5.0;983.45;62.01;35.958164;-83.92456;781.61;NaN;;3.82;15.904874;152.7;13 / 21;74022;2022-10-25 12:52:55:854
-1.349;3.4869;7.8;-1.6185;4.5805;8.5188;-0.017;-1.0421;-0.123;0.4729;0.0662;0.3993;1486.0;18.71;-37.39;-24.0;211.78;-24.45;11.42;5.0;983.47;60.933;35.958164;-83.92456;781.61;NaN;;3.82;15.904874;152.7;13 / 21;74522;2022-10-25 12:52:56:354
-1.7907;3.5169;7.5461;-1.6407;3.7219;8.9233;-0.0142;-0.3775;0.3019;-0.318;-0.079;-0.5115;1440.0;21.71;-35.89;-22.12;216.82;-22.3;10.42;5.0;983.47;61.966;35.958153;-83.92456;781.95;NaN;;4.0;15.311841;148.2;13 / 21;75023;2022-10-25 12:52:56:855
-1.014;3.9179;7.9747;-1.3184;4.2432;8.7423;-0.1106;-0.6876;0.3722;0.2124;0.1679;0.6506;1413.0;29.14;-30.51;-23.36;237.25;-25.64;8.58;5.0;983.48;62.956;35.958153;-83.92456;781.95;NaN;;4.0;15.311841;148.2;13 / 21;75522;2022-10-25 12:52:57:354
0.6141;3.5779;8.2214;-1.13;4.0961;8.8383;1.1853;-0.574;-0.1472;0.1258;0.105;-0.4048;1324.0;25.86;-32.08;-20.01;230.14;-24.45;6.45;5.0;983.54;62.558;35.958138;-83.92457;783.05;NaN;;3.96;14.750879;149.5;13 / 21;76022;2022-10-25 12:52:57:854
-0.5339;3.5001;9.3419;-1.3208;3.9823;8.8638;0.0016;0.2393;2.4094;-0.1451;0.3121;0.0124;1265.0;24.88;-26.53;-24.81;238.02;-23.96;8.48;5.0;983.49;63.084;35.958138;-83.92457;783.05;NaN;;3.96;14.750879;149.5;13 / 21;76521;2022-10-25 12:52:58:353
-2.6444;2.9913;7.5676;-2.601;2.9023;8.999;0.6487;0.0359;0.0473;-0.3678;0.3987;-0.8584;1420.0;23.29;-25.01;-24.13;233.24;-21.67;13.08;5.0;983.52;62.548;35.95812;-83.924576;782.53;NaN;;4.07;14.434544;153.7;13 / 21;77023;2022-10-25 12:52:58:855
4.3621;-0.5171;7.9807;1.7912;0.4352;9.6318;0.5419;2.2838;0.3325;-1.6614;-3.3022;-1.1698;1516.0;23.93;-16.5;-27.11;242.56;-10.21;7.86;5.0;983.49;63.614;35.95812;-83.924576;782.53;NaN;;4.07;14.434544;153.7;13 / 21;77522;2022-10-25 12:52:59:354
3.9861;2.8011;8.9803;4.1334;3.1463;8.3178;2.5489;-0.0829;2.3046;-0.0247;-0.2952;-0.8098;1082.0;8.55;-18.15;-26.68;243.72;-20.13;-27.35;5.0;983.5;61.258;35.958103;-83.924576;778.38;NaN;;3.78;14.418974;153.7;13 / 21;78023;2022-10-25 12:52:59:855
5.0432;2.91;7.1309;5.4936;3.2043;7.4648;-0.34;-0.4169;0.0065;0.8175;0.4366;0.2951;676.0;-4.76;-22.8;-16.71;200.13;-17.22;-37.06;5.0;983.5;61.285;35.958103;-83.924576;778.38;NaN;;3.78;14.418974;153.7;13 / 21;78522;2022-10-25 12:53:00:354
5.1377;2.8167;6.3263;6.1965;3.4019;6.7971;2.2113;-0.1251;0.2603;-0.6111;0.7326;-0.358;801.0;-14.91;-17.25;-4.37;143.68;-20.3;-42.35;5.0;983.52;62.019;35.958084;-83.92459;774.77;NaN;;8.6;14.593052;216.8;11 / 21;79022;2022-10-25 12:53:00:854
5.6333;1.337;7.6624;5.078;3.4731;7.6369;-0.7401;-2.4156;1.9101;1.1857;-0.744;1.7193;1250.0;-10.16;-9.77;-11.16;151.66;-20.74;-33.62;5.0;983.48;61.299;35.958084;-83.92459;774.77;NaN;;8.6;14.593052;216.8;11 / 21;79522;2022-10-25 12:53:01:354
7.6923;2.7257;5.8008;6.3578;3.0656;6.8082;3.4803;-0.6543;3.2964;-0.048;0.4248;-0.3054;1145.0;-16.11;-7.29;-7.89;102.73;-18.22;-43.04;5.0;983.51;61.719;35.95807;-83.9246;772.53;NaN;;4.39;14.665667;192.5;11 / 21;80022;2022-10-25 12:53:01:854
4.6361;3.1208;7.3403;4.9963;4.6711;7.0277;1.5946;0.211;0.1479;-0.1628;0.8007;0.2518;1156.0;-20.89;-12.02;-9.19;94.31;-28.72;-39.11;5.0;983.51;63.194;35.95807;-83.9246;772.53;NaN;;4.39;14.665667;192.5;11 / 21;80522;2022-10-25 12:53:02:354
6.0547;2.8322;5.9339;6.5256;3.4142;6.4754;3.928;1.1568;2.0751;-0.4733;0.5952;-1.6394;1210.0;-24.11;-18.77;-9.94;133.87;-20.37;-45.22;5.0;983.52;62.983;35.95806;-83.9246;777.37;NaN;;2.84;35.134266;182.8;11 / 21;81022;2022-10-25 12:53:02:854
4.9857;1.4234;11.1589;3.3772;3.3927;8.5589;4.311;-0.5594;2.598;-1.4717;0.9477;-1.3834;1889.0;-14.27;-26.87;-19.29;160.87;-20.24;-21.53;5.0;983.52;60.608;35.95806;-83.9246;777.37;NaN;;2.84;35.134266;182.8;11 / 21;81522;2022-10-25 12:53:03:354
0.0682;3.195;9.1502;0.2163;3.1642;9.2796;0.3086;-0.2048;0.1568;-0.0618;-0.0257;-0.1304;15816.0;4.26;-29.47;-24.51;193.59;-20.54;-1.04;5.0;983.52;60.016;35.958054;-83.92458;780.0;NaN;;3.85;35.1216;149.8;11 / 21;82022;2022-10-25 12:53:03:854
0.6428;2.9279;7.011;0.4803;3.5696;9.1213;1.0283;-2.7382;2.9007;0.4643;0.6608;0.4268;19915.0;10.22;-30.38;-25.26;210.68;-21.35;-3.01;5.0;983.47;60.192;35.958054;-83.92458;780.0;NaN;;3.85;35.1216;149.8;11 / 21;82521;2022-10-25 12:53:04:353
0.262;3.3015;6.7837;0.9301;3.7711;9.0047;1.6817;-0.3013;-0.9863;-0.1423;0.5254;-0.4581;16443.0;9.26;-34.82;-20.87;205.6;-22.17;-8.54;5.0;983.5;60.013;35.958035;-83.924576;782.64;NaN;;4.46;34.639572;159.5;11 / 21;83021;2022-10-25 12:53:04:853
1.2305;2.7772;7.2601;2.0751;4.3871;8.5216;0.5729;-0.8601;2.7016;0.2181;0.216;0.1766;18331.0;9.28;-34.65;-19.61;209.77;-26.57;-13.69;5.0;983.48;60.055;35.958035;-83.924576;782.64;NaN;;4.46;34.639572;159.5;11 / 21;83522;2022-10-25 12:53:05:354
1.7752;3.4953;7.247;2.0389;4.2342;8.6073;0.8706;0.2048;-1.4638;-0.2755;0.1543;0.0455;15173.0;6.47;-36.96;-17.1;199.58;-25.43;-12.56;5.0;983.5;61.594;35.95802;-83.924576;787.47;NaN;;4.28;34.195015;147.1;11 / 21;84022;2022-10-25 12:53:05:854
0.5375;2.7485;6.1361;0.981;4.6382;8.5846;0.8611;-1.6144;0.4173;0.4487;1.1715;0.4863;16621.0;2.29;-37.11;-20.16;193.64;-25.76;-11.86;5.0;983.45;61.115;35.95802;-83.924576;787.47;NaN;;4.28;34.195015;147.1;11 / 21;84521;2022-10-25 12:53:06:353
1.8936;4.0735;6.2282;2.2394;4.0053;8.6668;0.4107;-0.1853;0.4049;-0.0364;-0.273;-0.1066;12136.0;-4.26;-39.75;-17.25;180.74;-24.11;-14.49;5.0;983.46;62.119;35.958008;-83.92456;788.35;NaN;;4.64;13.468012;153.3;12 / 21;85022;2022-10-25 12:53:06:854
2.1057;2.0399;8.7781;1.311;3.9595;8.8755;2.2568;-1.019;0.8346;0.2285;0.7379;-0.5617;15686.0;-5.53;-38.61;-20.53;177.23;-21.31;-12.34;5.0;983.44;62.496;35.958008;-83.92456;788.35;NaN;;4.64;13.468012;153.3;12 / 21;85522;2022-10-25 12:53:07:354
3.2584;3.2249;6.676;2.7307;3.8005;8.618;0.7726;-1.8663;1.7297;0.3112;-1.0319;0.6605;13176.0;-1.89;-39.37;-18.6;187.61;-22.8;-17.58;5.0;983.46;59.076;35.957996;-83.92455;787.94;NaN;;4.54;12.653173;155.2;13 / 21;86022;2022-10-25 12:53:07:854
4.2401;1.9558;7.1201;4.6406;3.5871;7.8593;0.1932;-1.4166;1.3782;0.9521;-0.1607;-0.5204;14769.0;-10.89;-34.5;-22.44;184.27;-14.32;-31.24;5.0;983.45;60.541;35.957996;-83.92455;787.94;NaN;;4.54;12.653173;155.2;13 / 21;86522;2022-10-25 12:53:08:354
3.5731;1.8182;8.5265;3.2211;2.3124;8.9692;1.2685;-0.1368;0.8808;-0.5988;0.4584;-0.2129;15375.0;-6.21;-34.48;-21.17;182.98;-13.64;-19.75;5.0;983.44;61.723;35.957985;-83.924545;788.44;NaN;;5.08;12.361266;155.0;13 / 21;87022;2022-10-25 12:53:08:854
4.7139;-1.9836;12.2279;3.7342;-0.222;9.0652;1.5102;-1.4691;4.3442;0.151;0.0149;-0.243;49857.0;-6.26;-24.86;-31.59;194.48;1.3;-22.39;5.0;983.44;60.503;35.957985;-83.924545;788.44;NaN;;5.08;12.361266;155.0;13 / 21;87522;2022-10-25 12:53:09:354
13.7782;-2.2684;5.7278;9.63;-0.3849;1.8127;1.656;-2.0778;4.6698;-0.1506;-2.6369;0.0411;45635.0;-11.14;-23.34;-30.86;221.51;-1.86;-56.08;5.0;983.45;61.644;35.95797;-83.92453;793.98;NaN;;5.22;12.226105;146.4;13 / 21;88022;2022-10-25 12:53:09:854
15.8513;-2.7114;2.2146;9.7091;-1.3436;-0.3153;4.7933;-0.0144;3.2752;0.636;0.9825;-0.153;10407.0;-35.23;-16.18;-12.58;214.47;7.87;-91.86;5.0;983.45;60.1;35.95797;-83.92453;793.98;NaN;;5.22;12.226105;146.4;13 / 21;88522;2022-10-25 12:53:10:354
15.2049;0.079;-0.5841;9.7875;0.5527;0.2637;-0.1982;-0.2375;0.0364;0.2653;-1.8952;1.0607;12121.0;-30.56;-26.23;-11.66;188.6;-13.45;-73.43;5.0;983.46;62.068;35.95795;-83.92452;801.39;NaN;;4.75;12.226105;146.5;13 / 21;89022;2022-10-25 12:53:10:854
14.5992;-0.839;1.2963;9.5938;-1.251;-1.6013;4.3879;2.0057;2.5571;-0.3007;1.0394;-0.1903;4642.0;-36.88;-23.4;-0.32;198.96;8.25;-105.01;5.0;983.47;61.319;35.95795;-83.92452;801.39;NaN;;4.75;12.226105;146.5;13 / 21;89522;2022-10-25 12:53:11:354
13.1988;0.4645;-0.2046;9.7241;1.1446;0.5506;0.6077;-3.4399;-2.7605;-1.108;-1.0629;1.4608;4499.0;-32.91;-28.39;-1.91;167.3;-18.21;-80.14;5.0;983.45;61.521;35.957935;-83.92452;804.07;NaN;;4.72;12.226105;150.2;14 / 21;90022;2022-10-25 12:53:11:854
16.6929;-2.2457;1.3334;9.7549;-0.9733;-0.2547;4.4437;0.0621;2.1654;0.4724;1.1372;-1.0185;2907.0;-38.23;-23.31;4.69;185.29;13.14;-101.81;5.0;983.48;61.404;35.957935;-83.92452;804.07;NaN;;4.72;12.226105;150.2;14 / 21;90521;2022-10-25 12:53:12:353
10.9182;-0.9362;-3.9646;9.4725;2.4247;-0.7504;0.4015;-4.077;-1.9286;1.0315;-3.8122;0.0039;4397.0;-33.69;-29.79;-1.74;192.72;-14.32;-94.53;5.0;983.46;61.954;35.95792;-83.924515;808.49;NaN;;4.64;12.226105;149.7;14 / 21;91021;2022-10-25 12:53:12:853
16.0597;1.3119;-2.3509;8.9241;-1.4371;-3.8034;4.4537;2.7498;1.6475;-0.6062;1.0113;-0.1487;1731.0;-32.85;-28.48;12.77;187.52;11.03;-118.81;5.0;983.46;61.91;35.95792;-83.924515;808.49;NaN;;4.64;12.226105;149.7;14 / 21;91521;2022-10-25 12:53:13:353
6.585;-1.6675;-4.0723;8.5964;4.6571;-0.7642;-2.8183;-6.682;-2.7393;0.481;-0.3833;-0.3593;1818.0;-31.18;-29.1;9.79;145.34;-28.35;-95.08;5.0;983.45;61.904;35.957912;-83.92451;813.86;NaN;;4.5;12.226105;151.5;15 / 21;92021;2022-10-25 12:53:13:853
16.608;0.7062;-1.4414;8.8447;-1.6824;-3.8872;4.5226;4.0673;2.4848;-0.8215;0.946;0.0889;1511.0;-31.39;-27.24;14.14;183.23;11.25;-117.45;5.0;983.47;63.363;35.957912;-83.92451;813.86;NaN;;4.5;12.226105;151.5;15 / 21;92521;2022-10-25 12:53:14:353
9.6864;-0.8163;-2.6192;8.588;4.6341;-0.971;-3.0136;-6.4466;-3.3196;-1.1372;-1.4366;2.683;1765.0;-28.13;-29.83;9.77;151.98;-28.2;-96.45;5.0;983.45;62.572;35.957897;-83.9245;818.26;NaN;;4.5;12.226105;149.5;15 / 21;93021;2022-10-25 12:53:14:853
15.6144;-0.935;-2.9889;8.3883;-2.8133;-4.23;3.9772;5.7483;1.0976;-0.3258;0.4231;-0.1124;1229.0;-33.37;-21.47;17.36;179.4;16.67;-116.76;5.0;983.5;61.591;35.957897;-83.9245;818.26;NaN;;4.5;12.226105;149.5;15 / 21;93521;2022-10-25 12:53:15:353
10.3436;-1.6065;-3.5635;9.3232;2.4376;-1.8185;-1.9418;-5.3033;-2.6064;-0.2771;-0.8642;2.137;2218.0;-28.24;-27.9;12.62;135.6;-28.12;-94.34;5.0;983.47;62.498;35.957886;-83.9245;822.02;NaN;;4.5;12.226105;152.0;15 / 21;94021;2022-10-25 12:53:15:853
14.7775;1.8386;-1.5622;8.4649;-2.8108;-4.0762;4.4432;6.1639;3.1629;-0.482;0.4887;-0.0073;1536.0;-30.39;-23.21;16.5;175.87;16.66;-115.71;5.0;983.47;62.035;35.957886;-83.9245;822.02;NaN;;4.5;12.226105;152.0;15 / 21;94522;2022-10-25 12:53:16:354
8.8834;-1.7979;-4.4495;9.0786;3.3483;-1.5934;-1.7809;-6.0001;-1.7936;-0.1656;-1.3242;1.8105;1658.0;-24.88;-30.79;10.71;144.98;-31.38;-94.16;5.0;983.43;62.014;35.95787;-83.924484;823.66;NaN;;4.36;12.226105;150.3;15 / 21;95022;2022-10-25 12:53:16:854
13.2263;2.2935;-0.1101;7.9071;-2.9012;-5.0231;4.2151;6.7135;3.4007;-1.2204;0.5588;0.5926;1833.0;-27.6;-26.66;15.56;180.84;17.05;-120.67;5.0;983.49;62.476;35.95787;-83.924484;823.66;NaN;;4.36;12.226105;150.3;15 / 21;95522;2022-10-25 12:53:17:354
3.1567;-7.6014;-6.355;8.5475;4.4259;-1.8767;-1.7091;-7.6369;-3.4193;-0.0123;-0.3476;0.1888;1530.0;-29.59;-26.78;12.6;142.31;-25.92;-99.16;5.0;983.47;61.087;35.95786;-83.92448;824.64;NaN;;4.54;12.226105;156.9;15 / 21;96022;2022-10-25 12:53:17:854
15.7663;2.7784;-2.3462;7.3383;-2.5083;-6.0024;6.6877;4.8996;5.1062;-0.5232;0.3624;-0.6658;1623.0;-29.49;-22.59;19.73;187.06;18.96;-131.27;5.0;983.46;61.514;35.95786;-83.92448;824.64;NaN;;4.54;12.226105;156.9;15 / 21;96521;2022-10-25 12:53:18:353
7.1249;-0.5231;-7.2841;7.5257;6.1432;-1.3399;0.1715;-7.6512;-5.6291;-0.2345;0.367;-0.9108;1299.0;-25.5;-28.09;9.68;131.59;-38.79;-100.1;5.0;983.45;62.128;35.95785;-83.92448;818.72;NaN;;4.18;12.226105;157.0;14 / 21;97022;2022-10-25 12:53:18:854
15.7998;0.76;1.689;8.8261;-0.3847;-4.257;6.3928;1.8936;6.3244;0.0961;0.4814;0.3136;2204.0;-20.1;-34.05;3.45;190.93;0.14;-117.51;5.0;983.47;61.086;35.95785;-83.92448;818.72;NaN;;4.18;12.226105;157.0;14 / 21;97523;2022-10-25 12:53:19:355
8.2298;-1.1073;-5.5842;8.6589;4.5864;-0.3984;-2.4189;-5.3047;-4.2851;0.8243;0.0902;-0.6483;2423.0;-30.54;-25.95;1.61;176.12;-27.88;-92.63;5.0;983.44;61.841;35.95784;-83.92448;817.98;NaN;;4.43;12.226105;153.4;13 / 21;98022;2022-10-25 12:53:19:854
14.6734;1.0726;-3.1663;8.8933;-0.3959;-4.1137;2.714;2.0337;1.9276;-0.4409;-0.0914;0.871;2271.0;-28.86;-28.35;7.26;191.16;-2.17;-113.8;5.0;983.46;61.588;35.95784;-83.92448;817.98;NaN;;4.43;12.226105;153.4;13 / 21;98521;2022-10-25 12:53:20:353
9.7798;-0.5973;-3.0739;9.374;2.8709;0.2396;-3.2727;-3.5232;-3.0998;0.2923;-1.3767;0.9691;2874.0;-30.15;-27.82;0.09;177.56;-17.02;-88.54;5.0;983.42;61.383;35.957832;-83.92447;817.21;NaN;;4.5;12.226105;141.5;13 / 21;99021;2022-10-25 12:53:20:853
11.6773;0.8656;-0.3688;8.6518;-2.9295;-3.5687;1.1078;4.0817;2.8933;0.1708;-0.5206;0.8343;2982.0;-35.76;-20.7;4.48;198.24;17.38;-112.42;5.0;983.45;63.486;35.957832;-83.92447;817.21;NaN;;4.5;12.226105;141.5;13 / 21;99522;2022-10-25 12:53:21:354
5.8678;-0.6727;4.5476;2.6534;2.9294;8.9749;6.3137;-5.514;-3.9815;0.8515;3.0447;0.8915;2269.0;-32.4;-21.07;-0.47;122.2;-14.68;-42.66;5.0;983.44;62.506;35.957825;-83.92446;815.37;NaN;;4.5;12.226105;146.0;14 / 21;100022;2022-10-25 12:53:21:854
-1.5945;5.3148;7.7617;0.062;4.9375;8.4728;0.1718;0.5421;-2.2621;0.4054;0.4605;0.1532;5479.0;-5.32;-33.92;-20.16;165.88;-30.23;-0.42;5.0;983.4;62.162;35.957825;-83.92446;815.37;NaN;;4.5;12.226105;146.0;14 / 21;100522;2022-10-25 12:53:22:354
-0.0718;3.8545;9.5022;1.1268;2.8394;9.3187;0.0172;1.407;0.7002;-0.0996;-0.6926;-0.5898;5835.0;-4.46;-31.61;-21.21;176.17;-18.4;-6.54;5.0;983.4;58.928;35.957817;-83.92445;814.94;NaN;;4.54;12.226105;137.2;14 / 21;101022;2022-10-25 12:53:22:854
0.5183;3.3793;10.9014;0.8408;2.6496;9.4044;0.8919;-0.2139;-0.8099;0.6281;-0.3498;-0.4056;6648.0;-8.81;-25.95;-27.26;159.51;-15.68;-5.11;5.0;983.38;59.497;35.957817;-83.92445;814.94;NaN;;4.54;12.226105;137.2;14 / 21;101522;2022-10-25 12:53:23:354
2.077;1.8733;10.5556;0.9621;3.2234;9.2116;-0.804;0.0025;-1.9503;-0.1094;-0.8476;0.0412;3631.0;-8.51;-26.57;-27.58;154.61;-18.36;-2.18;5.0;983.41;59.821;35.9578;-83.924446;818.77;NaN;;5.0;12.226105;151.5;14 / 21;102022;2022-10-25 12:53:23:854
-2.9243;4.4542;10.844;-2.2833;2.3089;9.2534;-0.003;0.4307;1.13;-0.5568;0.464;0.7069;10193.0;-8.27;-24.34;-32.23;142.57;-13.94;7.62;5.0;983.39;61.224;35.9578;-83.924446;818.77;NaN;;5.0;12.226105;151.5;14 / 21;102522;2022-10-25 12:53:24:354
-2.2026;3.335;9.4914;-2.4224;3.1806;8.9547;0.1397;0.3993;-2.6594;-0.2311;-1.0201;-0.2752;24800.0;-3.99;-22.65;-35.23;130.59;-18.93;15.14;5.0;983.37;61.776;35.95779;-83.92444;820.15;NaN;;4.57;12.226105;148.0;14 / 21;103022;2022-10-25 12:53:24:854
0.2321;1.9175;9.8061;0.1632;2.8259;9.3892;-0.2914;-2.2492;2.6113;0.8786;0.8527;1.1743;19891.0;-8.21;-23.79;-34.5;164.29;-9.08;-4.79;5.0;983.42;61.026;35.95779;-83.92444;820.15;NaN;;4.57;12.226105;148.0;14 / 21;103522;2022-10-25 12:53:25:354
1.6651;3.0368;10.4587;0.6994;3.4627;9.1483;-0.7579;0.3252;-0.8945;0.1896;-0.2898;-0.0908;9507.0;-12.81;-27.39;-30.17;143.35;-20.68;-4.37;5.0;983.37;60.04;35.95778;-83.92443;821.03;NaN;;4.57;12.226105;154.7;14 / 21;104021;2022-10-25 12:53:25:853
1.0917;3.6739;8.164;0.6315;3.9239;8.9652;0.2633;0.5204;0.663;0.2515;0.3303;-0.0847;9212.0;-13.39;-29.78;-27.82;148.94;-21.94;-5.6;5.0;983.36;59.769;35.95778;-83.92443;821.03;NaN;;4.57;12.226105;154.7;14 / 21;104522;2022-10-25 12:53:26:354
-0.7038;4.6146;7.9962;-1.9936;3.2145;9.0478;-0.8778;-0.9305;2.3345;-0.6958;-0.6558;-0.5128;16318.0;-9.98;-28.29;-31.26;136.36;-19.13;12.43;5.0;983.31;60.494;35.957767;-83.92442;817.93;NaN;;4.72;12.226105;152.2;14 / 21;105021;2022-10-25 12:53:26:853
-3.5719;2.4969;10.6968;-2.6503;2.1257;9.1993;-0.7686;-0.656;-3.1841;-0.8894;0.2723;-0.5216;22957.0;-3.09;-27.54;-33.86;148.06;-16.31;13.93;5.0;983.35;60.502;35.957767;-83.92442;817.93;NaN;;4.72;12.226105;152.2;14 / 21;105522;2022-10-25 12:53:27:354
-3.5659;2.3928;9.8782;-3.4703;2.4599;8.8361;-0.3541;0.078;-0.5339;-0.5747;-0.4078;-0.5272;21478.0;6.32;-27.82;-32.89;155.82;-18.62;22.73;5.0;983.33;60.95;35.957756;-83.924416;818.26;NaN;;4.82;12.226105;152.2;15 / 21;106022;2022-10-25 12:53:27:854
-4.1321;5.5232;9.9547;-1.2904;4.0991;8.8149;-2.3199;-2.2302;-2.5141;1.582;-2.6271;0.7646;20340.0;8.64;-29.91;-29.55;197.68;-24.71;8.33;5.0;983.36;59.575;35.957756;-83.924416;818.26;NaN;;4.82;12.226105;152.2;15 / 21;106522;2022-10-25 12:53:28:354
-1.1563;5.7434;6.7908;-2.9299;5.4767;7.5889;1.6836;0.4182;-3.7082;-1.217;0.8357;-0.3416;10327.0;0.3;-35.48;-21.99;157.31;-38.3;15.83;5.0;983.31;60.894;35.957745;-83.92441;820.27;NaN;;4.75;12.226105;153.8;15 / 21;107021;2022-10-25 12:53:28:853
-8.1326;5.4981;5.9686;-4.4676;3.9457;7.7873;0.2023;-1.0244;-0.5732;0.5732;0.8547;-0.296;11962.0;9.24;-33.34;-23.62;168.33;-23.73;29.84;5.0;983.32;59.989;35.957745;-83.92441;820.27;NaN;;4.75;12.226105;153.8;15 / 21;107523;2022-10-25 12:53:29:355
-2.016;1.4043;6.4666;-2.715;4.2537;8.4087;-0.4144;-1.8122;-3.557;-0.4264;-1.1786;-0.4638;10976.0;15.69;-32.83;-21.47;178.76;-27.32;38.12;5.0;983.3;61.132;35.957733;-83.9244;820.78;NaN;;4.68;12.226105;152.2;15 / 21;108022;2022-10-25 12:53:29:854
-2.1021;2.1739;11.2558;0.7361;2.6267;9.4196;-2.399;-0.406;1.8065;-0.1033;-0.4817;0.236;16052.0;5.79;-31.8;-25.56;197.04;-18.2;-1.88;5.0;983.36;60.777;35.957733;-83.9244;820.78;NaN;;4.68;12.226105;152.2;15 / 21;108522;2022-10-25 12:53:30:354
2.4215;1.215;6.7513;0.8027;4.1422;8.8526;2.1925;0.1402;-3.7284;-0.6463;-1.4865;-1.6651;15422.0;2.12;-32.57;-24.6;192.31;-24.99;-5.18;5.0;983.33;60.513;35.95772;-83.92439;819.09;NaN;;4.61;12.226105;148.8;15 / 21;109021;2022-10-25 12:53:30:853
9.5034;-0.9386;11.4054;4.5404;-0.8001;8.6554;-2.0154;-1.1296;1.8303;0.0835;0.4219;1.1553;58328.0;-0.97;-24.06;-31.93;212.73;-0.42;-30.32;5.0;983.34;60.744;35.95772;-83.92439;819.09;NaN;;4.61;12.226105;148.8;15 / 21;109522;2022-10-25 12:53:31:354
8.3411;-2.7975;10.887;3.7235;-0.1303;9.0713;0.7749;0.7873;-3.2769;-0.4464;-0.7418;-0.4422;54110.004;-6.56;-18.26;-35.98;201.28;0.76;-22.32;5.0;983.3;59.758;35.95771;-83.92438;819.09;NaN;;4.72;12.226105;142.3;14 / 21;110022;2022-10-25 12:53:31:854
8.9515;-4.7788;18.2647;5.879;-2.3152;7.4998;-1.6788;0.0586;3.6913;-0.2341;-0.0861;0.7711;64208.0;-12.64;-13.69;-36.02;211.52;10.02;-38.63;5.0;983.34;60.91;35.95771;-83.92438;819.09;NaN;;4.72;12.226105;142.3;14 / 21;110521;2022-10-25 12:53:32:353
5.668;-3.4116;12.2961;4.4508;-0.92;8.6899;-0.1317;1.4148;-7.3921;-0.8395;-0.9822;-0.5592;57695.0;-12.41;-15.58;-35.96;196.42;5.38;-27.12;5.0;983.32;59.568;35.957703;-83.92436;819.39;NaN;;4.75;12.226105;145.1;14 / 21;111021;2022-10-25 12:53:32:853
8.4081;-3.9323;7.879;6.1879;-2.5558;7.1657;0.0571;0.2505;3.339;-0.2571;-0.2106;0.7894;64913.996;-17.81;-13.44;-35.83;205.42;11.52;-40.6;5.0;983.33;59.878;35.957703;-83.92436;819.39;NaN;;4.75;12.226105;145.1;14 / 21;111522;2022-10-25 12:53:33:354
7.3319;-2.9638;6.1732;6.1496;-1.1676;7.5491;1.0037;-1.7114;-0.5215;-0.6969;-0.7261;0.291;54207.0;-18.99;-15.71;-35.68;193.15;2.1;-33.58;5.0;983.33;59.644;35.957695;-83.924355;819.05;NaN;;4.57;12.226105;149.9;13 / 21;112022;2022-10-25 12:53:33:854
6.4268;-2.3569;11.5959;5.8211;-2.081;7.6128;1.0283;-0.2199;1.8773;-0.4612;0.4647;0.2262;55812.0;-20.04;-15.04;-35.74;194.39;12.25;-37.4;5.0;983.32;58.695;35.957695;-83.924355;819.05;NaN;;4.57;12.226105;149.9;13 / 21;112523;2022-10-25 12:53:34:355
4.1967;-2.8765;14.5418;4.8726;-1.0688;8.4431;0.2337;-2.2052;-1.2446;-0.9877;0.0945;0.0744;54334.004;-11.55;-17.08;-37.37;208.06;-3.87;-29.34;5.0;983.31;61.011;35.957684;-83.92435;818.89;NaN;;4.79;12.226105;150.4;13 / 21;113022;2022-10-25 12:53:34:854
4.9822;-2.2708;8.2095;4.7141;-2.5222;8.2211;0.9577;0.558;0.5529;-1.6031;0.0748;-0.1162;67962.0;-6.32;-8.76;-40.41;218.62;14.9;-29.83;5.0;983.32;60.365;35.957684;-83.92435;818.89;NaN;;4.79;12.226105;150.4;13 / 21;113522;2022-10-25 12:53:35:354
6.3215;-2.2313;8.8774;4.7237;-1.918;8.3772;1.3167;-0.6732;1.6323;-0.5052;-0.8976;-0.6259;71570.0;-1.11;-6.9;-41.21;230.47;7.55;-22.13;5.0;983.33;58.368;35.957672;-83.92434;819.29;NaN;;4.72;12.226105;150.5;13 / 21;114023;2022-10-25 12:53:35:855
7.2685;-5.2813;16.0753;4.3797;0.5926;8.7543;4.1107;-5.7679;7.0615;3.1253;0.6731;0.1434;76736.0;-3.38;-4.54;-39.9;239.68;9.11;-31.16;5.0;983.3;58.984;35.957672;-83.92434;819.29;NaN;;4.72;12.226105;150.5;13 / 21;114522;2022-10-25 12:53:36:354
5.4491;-1.142;4.3621;4.5064;1.187;8.6287;2.6267;-1.0392;-2.587;-1.1071;-1.7363;-0.7132;48240.0;0.75;-19.14;-33.26;226.43;-6.95;-27.58;5.0;983.28;61.092;35.957664;-83.92433;818.07;NaN;;5.08;12.226105;151.3;13 / 21;115022;2022-10-25 12:53:36:854
12.2842;-6.1768;6.038;7.2289;-1.6081;6.4286;7.2426;-6.0602;1.1916;3.6921;1.7429;0.8162;66211.0;-22.86;-2.91;-30.11;218.26;9.44;-48.35;5.0;983.29;59.736;35.957664;-83.92433;818.07;NaN;;5.08;12.226105;151.3;13 / 21;115522;2022-10-25 12:53:37:354
10.3113;-4.3789;1.0869;9.4396;-2.6335;-0.359;0.0136;-4.101;-0.0067;-2.1764;-1.1914;1.5371;4637.0;-33.68;-13.88;-7.44;200.19;15.58;-92.18;5.0;983.31;60.125;35.957653;-83.92432;816.25;NaN;;4.72;12.226105;147.0;13 / 21;116022;2022-10-25 12:53:37:854
15.2097;-6.5886;1.0881;9.5992;-1.9961;0.2018;5.7448;-2.944;1.8928;2.9366;1.0807;-2.5109;5768.0;-42.37;-2.72;9.19;189.22;26.88;-106.87;5.0;983.29;62.471;35.957653;-83.92432;816.25;NaN;;4.72;12.226105;147.0;13 / 21;116521;2022-10-25 12:53:38:353
9.1932;1.4605;-1.0905;8.5771;4.7505;0.1909;-0.6059;-5.5976;-3.8141;-1.3008;-0.8819;2.4048;5897.0;-26.25;-32.1;5.66;156.96;-28.97;-88.73;5.0;983.27;60.341;35.95764;-83.92431;814.12;NaN;;4.14;12.226105;151.2;13 / 21;117021;2022-10-25 12:53:38:853
13.2287;-0.1053;3.3147;9.7647;0.8399;-0.3392;1.2029;0.6182;5.4954;2.2325;1.3674;-0.8472;6015.0;-32.31;-27.69;4.63;185.75;1.51;-104.02;5.0;983.28;60.201;35.95764;-83.92431;814.12;NaN;;4.14;12.226105;151.2;13 / 21;117521;2022-10-25 12:53:39:353
10.9615;1.6328;-2.2732;9.6733;1.3497;-0.8813;1.7637;-0.4101;-1.2753;-1.1339;-0.5646;1.6651;5650.0;-26.83;-31.5;3.92;170.11;-21.84;-91.22;5.0;983.3;57.875;35.95763;-83.92431;813.14;NaN;;4.72;12.226105;152.2;13 / 21;118021;2022-10-25 12:53:39:853
9.1609;-1.2879;-0.1196;9.7737;0.7975;-0.0978;4.6058;-0.0051;3.5576;1.7551;1.27;-1.7016;5408.0;-35.4;-22.71;4.44;169.7;-4.66;-90.57;5.0;983.29;60.072;35.95763;-83.92431;813.14;NaN;;4.72;12.226105;152.2;13 / 21;118522;2022-10-25 12:53:40:354
9.6805;-0.5949;-1.1527;9.7059;-0.4276;-1.3353;1.9277;-0.765;-0.8706;-1.0908;-1.2725;2.0279;5805.0;-29.01;-31.09;4.16;168.34;-12.45;-88.09;5.0;983.31;58.017;35.95762;-83.9243;813.62;NaN;;5.0;12.226105;149.9;13 / 21;119022;2022-10-25 12:53:40:854
11.8687;-2.5989;-1.0881;9.5447;-1.7186;-1.4547;3.7223;2.6036;3.0151;0.4013;1.4799;-1.3404;3746.0;-38.72;-16.69;12.06;165.89;10.09;-98.67;5.0;983.29;60.465;35.95762;-83.9243;813.62;NaN;;5.0;12.226105;149.9;13 / 21;119522;2022-10-25 12:53:41:354
12.6374;-1.5586;-0.693;9.7775;0.2143;-0.7242;-0.8364;-4.0709;-1.3752;-1.557;-1.5393;2.9266;4882.0;-29.59;-28.33;5.34;150.2;-22.83;-83.67;5.0;983.3;60.389;35.957607;-83.92429;814.44;NaN;;5.11;12.226105;149.1;14 / 21;120022;2022-10-25 12:53:41:854
12.9054;-5.1832;0.1029;9.7557;-0.9901;-0.1307;6.0141;-2.9036;1.2492;2.0221;1.777;-2.5178;3925.0;-38.19;-11.33;9.06;187.98;21.78;-108.4;5.0;983.3;60.202;35.957607;-83.92429;814.44;NaN;;5.11;12.226105;149.1;14 / 21;120522;2022-10-25 12:53:42:354
11.6689;-4.9211;-1.3717;9.713;0.9724;-0.9395;-1.4416;-4.4037;-2.7777;-1.2002;-0.9477;2.3447;4352.0;-32.04;-26.27;8.08;167.83;-5.69;-95.52;5.0;983.28;61.367;35.957596;-83.92429;814.93;NaN;;4.75;12.226105;157.0;14 / 21;121023;2022-10-25 12:53:42:855
12.9712;-6.2474;-1.8266;9.6956;-1.1842;-0.874;9.1467;-2.397;2.1822;2.2636;2.2132;-3.4345;3065.0;-39.43;-7.8;16.99;133.66;6.94;-95.15;5.0;983.31;58.441;35.957596;-83.92429;814.93;NaN;;4.75;12.226105;157.0;14 / 21;121522;2022-10-25 12:53:43:354
11.7275;-1.7489;-3.8246;9.5714;1.669;-1.3315;-4.0424;-6.4093;-2.0472;-1.1965;-0.2875;3.2712;3063.0;-27.99;-25.78;14.36;154.06;-9.8;-97.92;5.0;983.3;59.625;35.957584;-83.924286;816.15;NaN;;5.15;12.226105;154.1;14 / 21;122022;2022-10-25 12:53:43:854
14.8397;-3.2022;-0.2548;9.6714;-0.9453;-1.3192;7.6339;-1.3121;0.1998;0.1596;1.8906;-3.0418;1863.0;-35.98;-11.16;17.25;172.36;24.82;-110.13;5.0;983.31;58.618;35.957584;-83.924286;816.15;NaN;;5.15;12.226105;154.1;14 / 21;122522;2022-10-25 12:53:44:354
8.5421;-0.1065;-2.5005;9.715;0.5722;-1.209;-1.6237;-3.616;-1.2532;-0.8179;-1.2499;1.9675;1975.0;-30.04;-24.82;16.95;150.32;-3.35;-97.09;5.0;983.29;58.538;35.957573;-83.92428;817.39;NaN;;5.18;12.226105;148.9;13 / 21;123022;2022-10-25 12:53:44:854
9.932;-2.2756;-1.7716;9.559;0.155;-2.1843;5.5475;-0.6441;-0.5696;0.208;1.6714;-2.7719;923.0;-34.16;-14.14;23.72;166.13;17.04;-116.53;5.0;983.31;58.881;35.957573;-83.92428;817.39;NaN;;5.18;12.226105;148.9;13 / 21;123522;2022-10-25 12:53:45:354
8.6019;0.4836;-2.193;9.0443;-1.744;-3.3659;0.7603;1.6683;0.2654;-0.5562;-0.5476;1.8294;844.0;-29.96;-28.44;17.83;158.97;-2.82;-104.15;5.0;983.29;56.966;35.957558;-83.92427;818.3;NaN;;5.04;12.226105;152.4;13 / 21;124022;2022-10-25 12:53:45:854
8.9815;-1.8601;-2.8765;9.5717;-0.9093;-1.9301;3.9819;0.3535;1.786;1.3833;0.9541;-2.1388;717.0;-38.61;-15.15;20.91;145.68;5.32;-101.4;5.0;983.28;57.452;35.957558;-83.92427;818.3;NaN;;5.04;12.226105;152.4;13 / 21;124522;2022-10-25 12:53:46:354
10.4599;-0.3843;-3.5504;9.1285;-1.7719;-3.1147;2.2883;0.2718;-0.7585;-0.7424;-0.6151;2.0369;837.0;-33.51;-26.51;18.56;154.35;-5.03;-102.26;5.0;983.29;58.364;35.957542;-83.92427;818.29;NaN;;5.26;12.226105;149.0;13 / 21;125022;2022-10-25 12:53:46:854
10.3364;-2.8561;-1.1061;9.1116;-2.4678;-2.657;5.7265;4.5374;0.6805;-0.2018;1.2204;-1.6369;668.0;-39.45;-12.54;23.34;172.88;24.29;-115.71;5.0;983.28;58.504;35.957542;-83.92427;818.29;NaN;;5.26;12.226105;149.0;13 / 21;125522;2022-10-25 12:53:47:354
10.4527;-0.4705;-1.707;9.3754;-1.4095;-2.5072;1.2951;-0.3096;-1.2357;-0.6499;-0.8885;2.4882;952.0;-35.66;-27.67;13.93;152.0;-12.55;-95.9;5.0;983.27;57.97;35.95753;-83.924255;818.56;NaN;;4.97;12.226105;145.2;13 / 21;126022;2022-10-25 12:53:47:854
16.0693;-3.9084;-1.3777;9.7097;-0.2144;-1.3586;4.2508;-4.2464;-0.3117;1.0765;1.5567;-3.1365;941.0;-41.64;-9.45;24.24;166.77;22.38;-112.32;5.0;983.27;59.369;35.95753;-83.924255;818.56;NaN;;4.97;12.226105;145.2;13 / 21;126522;2022-10-25 12:53:48:354
10.4085;-1.7991;-3.1125;9.5728;-0.135;-2.1244;-3.0321;-3.4471;-0.2594;-0.5938;-0.6714;2.7901;1147.0;-31.11;-28.57;21.04;154.94;0.79;-102.51;5.0;983.27;59.159;35.95752;-83.92425;817.77;NaN;;5.26;12.226105;140.8;12 / 21;127022;2022-10-25 12:53:48:854
10.0863;-2.965;-1.8888;9.6955;-0.4332;-1.4071;3.5797;-2.6949;-0.9631;0.896;0.946;-2.6838;1557.0;-40.63;-13.22;18.56;139.08;2.53;-98.26;5.0;983.25;57.815;35.95752;-83.92425;817.77;NaN;;5.26;12.226105;140.8;12 / 21;127521;2022-10-25 12:53:49:353
8.2717;-1.2556;-2.8657;9.6165;-0.4961;-1.8565;-0.0691;-1.0517;-1.4011;-0.4569;-0.6084;1.4269;1769.0;-31.52;-25.93;17.61;157.28;2.9;-100.93;5.0;983.26;58.24;35.95751;-83.92424;816.3;NaN;;4.72;12.226105;140.7;13 / 21;128022;2022-10-25 12:53:49:854
9.9236;-1.9391;-1.1049;9.6308;-0.9431;-1.5904;2.4237;-0.7915;1.0767;1.4468;0.7977;-2.5554;2086.0;-37.76;-13.42;16.43;174.94;21.4;-109.49;5.0;983.26;59.105;35.95751;-83.92424;816.3;NaN;;4.72;12.226105;140.7;13 / 21;128522;2022-10-25 12:53:50:354
8.5552;0.0658;-1.3167;9.5831;-0.7095;-1.9574;-1.9107;-2.07;-0.5759;-0.5395;-0.6654;1.9078;2621.0;-32.93;-23.31;14.44;164.4;4.15;-101.54;5.0;983.24;61.289;35.957504;-83.92424;815.93;NaN;;5.0;12.226105;151.1;13 / 21;129022;2022-10-25 12:53:50:854
9.2507;-2.4873;-1.2832;9.7391;-0.1019;-1.1449;2.2565;-2.8359;0.2831;1.3164;0.865;-2.481;2738.0;-38.42;-11.46;17.63;130.34;0.6;-96.7;5.0;983.29;61.62;35.957504;-83.92424;815.93;NaN;;5.0;12.226105;151.1;13 / 21;129523;2022-10-25 12:53:51:355
10.1665;-0.5483;-2.0435;8.8366;-3.2669;-2.7225;-0.1115;2.7681;0.6918;-0.1897;-0.5366;1.8529;2995.0;-32.87;-24.54;18.54;156.52;5.19;-101.19;5.0;983.27;61.25;35.957493;-83.92423;814.44;NaN;;4.9;12.226105;152.1;13 / 21;130022;2022-10-25 12:53:51:854
7.2577;-3.0523;-2.455;9.6586;-0.7926;-1.5014;4.112;-1.5492;0.5593;1.1691;0.8666;-2.5917;2176.0;-37.22;-10.65;22.35;131.47;4.64;-98.84;5.0;983.26;68.624;35.957493;-83.92423;814.44;NaN;;4.9;12.226105;152.1;13 / 21;130522;2022-10-25 12:53:52:354
8.0106;0.5901;-3.2584;8.9895;-2.1962;-3.2459;0.1775;2.1862;-0.4248;0.2114;-0.3477;1.8296;2910.0;-28.37;-23.34;22.86;146.81;-2.06;-106.25;5.0;983.24;72.347;35.95748;-83.924225;815.06;NaN;;4.79;12.226105;155.0;13 / 21;131022;2022-10-25 12:53:52:854
8.1278;-2.4718;-1.6017;9.577;-0.5521;-2.0365;4.2444;-1.9562;1.2479;1.2677;0.7965;-2.8407;2091.0;-34.37;-10.35;26.66;154.3;21.22;-112.73;5.0;983.27;69.863;35.95748;-83.924225;815.06;NaN;;4.79;12.226105;155.0;13 / 21;131522;2022-10-25 12:53:53:354
8.6294;-0.4442;-2.7389;8.8356;-2.7735;-3.2264;0.7917;1.6711;-1.0544;-0.802;0.0404;2.2594;3598.0;-28.35;-24.13;23.74;149.69;1.11;-107.6;5.0;983.23;60.867;35.957474;-83.92422;815.29;NaN;;4.93;12.226105;147.7;13 / 21;132022;2022-10-25 12:53:53:854
9.0102;-3.1149;-2.0841;9.2696;2.9192;-1.3128;-0.94;-6.1135;-0.952;1.9366;0.295;-2.7093;4815.0;-35.78;-12.04;23.12;128.54;2.37;-99.01;5.0;983.23;71.181;35.957474;-83.92422;815.29;NaN;;4.93;12.226105;147.7;13 / 21;132522;2022-10-25 12:53:54:354
9.4639;0.571;-2.0973;8.5752;-3.5044;-3.218;4.212;1.7032;-0.3973;0.2412;-0.7865;2.3014;5002.0;-30.13;-23.4;23.08;162.28;20.94;-110.57;5.0;983.21;70.386;35.95746;-83.92421;815.86;NaN;;4.86;12.226105;150.0;13 / 21;133022;2022-10-25 12:53:54:854
8.0453;-3.2189;-0.9194;9.6079;1.8071;-0.77;-0.4745;-5.2029;-0.0716;1.9145;0.4935;-2.7442;4926.0;-37.11;-9.39;22.14;95.2;-10.62;-94.58;5.0;983.18;69.626;35.95746;-83.92421;815.86;NaN;;4.86;12.226105;150.0;13 / 21;133522;2022-10-25 12:53:55:354
8.9061;-0.2827;-2.7114;9.289;-2.0335;-2.3978;2.0772;-0.8809;-1.2208;-0.4679;-0.6584;2.6118;5080.0;-30.71;-24.38;19.71;159.3;11.97;-104.47;5.0;983.21;70.01;35.957447;-83.92421;817.66;NaN;;4.86;12.226105;156.7;13 / 21;134022;2022-10-25 12:53:55:854
9.4759;-3.2524;-0.8007;9.7672;0.7885;-0.3868;2.3073;-4.6468;-0.6723;1.5655;1.2152;-2.7443;6097.0;-38.25;-7.65;19.41;153.07;14.97;-103.83;5.0;983.21;62.418;35.957447;-83.92421;817.66;NaN;;4.86;12.226105;156.7;13 / 21;134522;2022-10-25 12:53:56:354
8.0824;-0.1675;-0.4406;9.3306;-1.8681;-2.3707;2.6094;0.009;-0.0696;-1.4673;-0.3153;1.9802;5901.0;-32.12;-22.48;15.58;164.89;10.98;-104.26;5.0;983.22;57.348;35.957436;-83.9242;817.48;NaN;;4.86;12.226105;159.4;14 / 21;135022;2022-10-25 12:53:56:854
8.7302;-3.9168;-1.7859;9.7831;0.2226;-0.6409;5.235;-4.7515;-0.4921;1.9775;1.0462;-3.2615;6078.0;-37.78;-8.68;17.66;117.65;-1.3;-93.75;5.0;983.22;62.259;35.957436;-83.9242;817.48;NaN;;4.86;12.226105;159.4;14 / 21;135522;2022-10-25 12:53:57:354
8.2107;-0.2898;-1.8242;8.5595;-2.4916;-4.0862;1.7414;2.1459;0.5173;-1.0651;-0.5487;2.1867;6337.0;-29.44;-25.76;18.75;160.58;0.66;-107.67;5.0;983.22;57.631;35.957424;-83.924194;818.45;NaN;;4.9;12.226105;151.5;14 / 21;136022;2022-10-25 12:53:57:854
9.6398;-2.4993;-1.3681;9.6137;0.2403;-1.9206;5.5786;-2.1039;0.3724;1.491;1.2893;-2.8995;6843.0;-35.59;-13.11;21.94;129.63;-1.4;-101.3;5.0;983.22;63.688;35.957424;-83.924194;818.45;NaN;;4.9;12.226105;151.5;14 / 21;136522;2022-10-25 12:53:58:354
9.4986;1.2257;-1.3992;9.4307;-1.7606;-2.0327;2.4939;1.8395;-0.1347;-0.1075;-0.7481;2.1484;7163.0;-28.82;-27.79;16.82;162.48;10.34;-102.16;5.0;983.25;54.498;35.957413;-83.92419;819.86;NaN;;4.9;12.226105;153.2;13 / 21;137022;2022-10-25 12:53:58:854
10.0552;-2.3821;-2.4826;9.5923;-0.0068;-2.0392;3.5335;-1.7206;1.6384;1.3672;0.6493;-2.9305;7271.0;-37.63;-12.22;18.21;171.98;18.58;-110.6;5.0;983.23;57.857;35.957413;-83.92419;819.86;NaN;;4.9;12.226105;153.2;13 / 21;137521;2022-10-25 12:53:59:353
13.1842;3.1902;0.7648;9.483;-1.0675;-2.2593;-3.2923;1.5022;1.246;0.4316;-0.2529;2.5543;7460.0;-29.46;-27.24;17.81;148.32;-11.7;-100.64;5.0;983.22;54.624;35.9574;-83.92418;820.19;NaN;;4.93;12.326251;147.9;13 / 21;138021;2022-10-25 12:53:59:853
7.0062;-1.9908;-2.8418;9.5048;2.1255;-1.1456;-2.7131;-4.159;-1.5784;0.0616;-0.2317;-0.7399;7291.0;-36.88;-15.02;18.36;128.37;-5.13;-95.27;5.0;983.22;61.64;35.9574;-83.92418;820.19;NaN;;4.93;12.326251;147.9;13 / 21;138521;2022-10-25 12:54:00:353
9.4603;0.3341;-0.5136;8.9792;-3.1739;-2.339;-0.7437;3.0637;1.6398;-0.6929;-0.2898;1.3024;7521.0;-36.41;-18.84;14.87;169.88;18.88;-104.6;5.0;983.2;56.725;35.95739;-83.92417;817.55;NaN;;4.97;12.445218;149.4;13 / 21;139023;2022-10-25 12:54:00:855
7.861;-3.7098;-2.3103;9.3973;2.669;0.8593;-2.5024;-5.9053;-2.6621;0.8274;0.4414;-0.796;10127.0;-38.62;-15.43;8.18;109.42;-15.79;-84.78;5.0;983.19;58.727;35.95739;-83.92417;817.55;NaN;;4.97;12.445218;149.4;13 / 21;139522;2022-10-25 12:54:01:354
10.2168;0.1316;0.7181;8.6832;-1.8942;-4.1455;0.196;2.083;2.7192;-1.8569;-1.6613;1.7265;8255.0;-35.14;-25.24;10.89;189.28;11.14;-115.52;5.0;983.21;55.702;35.957375;-83.92416;817.19;NaN;;5.26;12.226105;158.8;13 / 21;140023;2022-10-25 12:54:01:855
7.1357;-3.0921;-3.597;9.1166;3.0063;-2.0051;-0.8168;-5.9276;-0.9647;2.7015;-0.1229;-2.4064;10064.0;-40.01;-15.96;13.56;149.63;-1.76;-97.55;5.0;983.2;64.143;35.957375;-83.92416;817.19;NaN;;5.26;12.226105;158.8;13 / 21;140522;2022-10-25 12:54:02:354
10.0421;1.5694;-1.0845;8.9342;-2.6316;-3.07;0.8214;1.6086;0.0614;0.1066;-0.4666;1.2017;7022.0;-32.81;-22.41;22.22;162.25;15.57;-108.96;5.0;983.21;53.814;35.957363;-83.92414;818.63;NaN;;4.86;12.226105;152.6;13 / 21;141022;2022-10-25 12:54:02:854
7.7749;-3.0691;-2.1284;9.3788;2.6761;-1.0227;-1.3287;-6.1109;-0.2321;1.6513;0.2673;-2.3224;8693.0;-37.74;-14.89;17.68;104.61;-15.84;-96.22;5.0;983.18;62.335;35.957363;-83.92414;818.63;NaN;;4.86;12.226105;152.6;13 / 21;141523;2022-10-25 12:54:03:355
11.2511;0.9912;-0.5566;8.0236;-4.8359;-2.8995;2.9549;3.8824;2.7114;-0.4485;-0.4265;1.8277;7476.0;-34.35;-24.3;17.81;162.8;16.64;-102.22;5.0;983.21;53.991;35.957348;-83.92414;819.24;NaN;;5.0;12.226105;157.0;13 / 21;142023;2022-10-25 12:54:03:855
5.4802;-3.4355;-2.26;9.5665;1.9157;-0.9912;0.0066;-5.6257;0.1679;1.8242;0.1131;-2.99;7529.0;-41.27;-7.5;16.91;87.91;-11.27;-95.92;5.0;983.2;58.004;35.957348;-83.92414;819.24;NaN;;5.0;12.226105;157.0;13 / 21;142522;2022-10-25 12:54:04:354
10.7638;1.1109;-2.2732;9.1132;-2.8296;-2.2614;-0.9586;3.0227;0.4492;0.1762;-0.4776;1.9565;7908.0;-36.9;-23.68;18.19;166.1;16.77;-103.94;5.0;983.21;52.058;35.957336;-83.924126;817.11;NaN;;5.18;12.226105;162.9;13 / 21;143022;2022-10-25 12:54:04:854
8.2107;-3.5276;-1.5957;9.6642;0.84;-1.4379;0.9423;-3.2959;1.079;1.1463;0.3927;-2.8228;7062.0;-44.72;-7.61;20.18;156.83;15.11;-103.78;5.0;983.22;59.215;35.957336;-83.924126;817.11;NaN;;5.18;12.226105;162.9;13 / 21;143522;2022-10-25 12:54:05:354
12.9281;1.1204;-2.0722;8.5972;-4.0556;-2.4106;1.023;2.5212;1.3986;-0.3264;-0.7465;2.5601;7804.0;-36.6;-25.59;17.53;158.91;5.49;-99.8;5.0;983.18;55.138;35.957325;-83.92412;817.7;NaN;;5.4;12.226105;144.3;13 / 21;144022;2022-10-25 12:54:05:854
7.1967;-4.1991;-1.6783;9.3586;2.8055;-0.8465;-1.7838;-6.7649;-1.0413;0.7816;0.2393;-1.7762;8152.0;-43.37;-7.99;15.64;120.77;-1.27;-95.53;5.0;983.2;58.641;35.957325;-83.92412;817.7;NaN;;5.4;12.226105;144.3;13 / 21;144521;2022-10-25 12:54:06:353
10.6155;0.8031;-1.3896;8.5863;-3.893;-2.6999;0.8097;3.5683;2.0886;-0.3689;-0.4821;1.5918;8180.0;-35.1;-22.56;15.3;173.98;23.39;-107.46;5.0;983.21;55.685;35.957314;-83.9241;818.46;NaN;;5.15;12.226105;147.8;13 / 21;145021;2022-10-25 12:54:06:853
6.9811;-3.6401;-2.5834;9.3099;3.048;-0.4545;-1.4392;-6.502;-2.219;0.8157;0.0439;-1.9332;8648.0;-37.82;-14.55;15.08;99.65;-18.11;-92.8;5.0;983.17;59.41;35.957314;-83.9241;818.46;NaN;;5.15;12.226105;147.8;13 / 21;145522;2022-10-25 12:54:07:354
11.2211;8.3937;-0.2429;9.5165;-0.8964;-2.1915;-0.3105;3.991;0.6635;-0.1268;-0.5175;0.8162;9022.0;-30.94;-28.59;14.06;168.17;5.24;-102.97;5.0;983.2;55.482;35.9573;-83.924095;816.44;NaN;;5.22;12.226105;156.2;13 / 21;146023;2022-10-25 12:54:07:855
5.3303;-0.5925;-5.0145;8.5011;4.8709;0.4191;-5.2031;-5.5107;-5.7763;-0.9107;-0.1119;0.895;10680.0;-27.64;-30.67;10.69;130.73;-33.24;-86.33;5.0;983.17;60.981;35.9573;-83.924095;816.44;NaN;;5.22;12.226105;156.2;13 / 21;146522;2022-10-25 12:54:08:354
14.5083;1.6053;2.1464;9.7101;-0.4557;-1.2947;3.9416;3.0472;3.2668;0.1652;0.3434;-0.2377;11485.0;-33.75;-27.22;4.01;186.04;4.58;-101.97;5.0;983.23;54.103;35.957287;-83.92409;816.86;NaN;;5.22;12.226105;151.0;13 / 21;147022;2022-10-25 12:54:08:854
8.6258;-1.5335;-3.0141;9.4496;2.2771;1.2998;-2.9616;-3.0921;-2.7492;-0.0323;-0.7931;0.2174;12634.0;-33.13;-28.8;0.9;165.12;-13.43;-82.17;5.0;983.16;61.647;35.957287;-83.92409;816.86;NaN;;5.22;12.226105;151.0;13 / 21;147521;2022-10-25 12:54:09:353
14.895;-2.7018;0.7923;7.8765;-4.2493;-4.0094;4.2793;3.6229;4.1331;-0.6461;0.812;0.6118;9179.0;-37.33;-21.02;6.13;200.26;22.74;-118.21;5.0;983.18;58.71;35.957275;-83.92408;815.99;NaN;;5.22;12.226105;156.9;13 / 21;148022;2022-10-25 12:54:09:854
6.1863;-4.4542;-3.8569;9.6894;1.5093;0.0898;-3.3362;-4.634;-3.159;0.3111;0.0882;-1.2302;11696.0;-40.56;-13.18;6.54;131.57;-8.85;-89.47;5.0;983.18;62.04;35.957275;-83.92408;815.99;NaN;;5.22;12.226105;156.9;13 / 21;148523;2022-10-25 12:54:10:355
18.2874;-1.9848;0.4322;7.5091;-4.8993;-3.9724;4.0561;5.1963;3.2653;-0.9741;0.4684;0.6229;7768.0;-39.79;-12.32;9.64;197.98;29.97;-117.88;5.0;983.19;61.764;35.957264;-83.92407;816.81;NaN;;5.29;12.226105;157.5;13 / 21;149022;2022-10-25 12:54:10:854
6.9846;-6.6532;-0.0873;8.7803;1.987;3.8895;-2.5503;-5.7781;-5.7926;0.6165;-0.1313;-0.8826;20685.0;-38.04;-9.69;-1.63;124.28;0.08;-64.19;5.0;983.15;64.69;35.957264;-83.92407;816.81;NaN;;5.29;12.226105;157.5;13 / 21;149522;2022-10-25 12:54:11:354
14.8648;-3.2632;1.5383;8.0084;-4.8852;-2.8584;5.4656;5.0051;5.4423;0.0496;0.3901;-0.3989;12016.0;-38.57;-11.17;-6.0;216.4;31.76;-111.84;5.0;983.17;59.715;35.95725;-83.92407;817.36;NaN;;5.15;12.226105;163.7;14 / 21;150022;2022-10-25 12:54:11:854
6.4594;-4.4566;-3.1041;9.6675;1.577;-0.4714;-2.6532;-6.3422;-3.8918;-0.8634;-0.8553;1.6152;11868.0;-37.44;-15.04;0.94;119.99;-19.0;-85.65;5.0;983.14;61.477;35.95725;-83.92407;817.36;NaN;;5.15;12.226105;163.7;14 / 21;150522;2022-10-25 12:54:12:354
13.3986;0.2764;4.8159;9.3553;-2.3783;-1.7298;3.412;3.0609;7.1925;0.3112;0.2256;-0.1798;11901.0;-39.68;-14.79;1.67;192.38;14.04;-100.48;5.0;983.18;55.122;35.957237;-83.924065;816.99;NaN;;5.08;12.226105;166.2;14 / 21;151022;2022-10-25 12:54:12:854
8.8223;-2.8202;-0.5614;9.7398;1.0698;0.4032;-2.1811;-4.6096;-2.4637;-0.5443;-0.7809;1.5759;12306.0;-37.61;-18.86;-5.1;186.35;-17.19;-83.64;5.0;983.17;59.753;35.957237;-83.924065;816.99;NaN;;5.08;12.226105;166.2;14 / 21;151522;2022-10-25 12:54:13:354
13.019;-0.2728;1.1731;8.3054;-4.6095;-2.4377;5.7353;6.0614;2.42;-0.0892;0.1697;0.021;6285.0;-39.77;-14.36;9.11;184.76;28.04;-106.36;5.0;983.17;56.009;35.957226;-83.924065;818.76;NaN;;5.33;12.226105;149.3;14 / 21;152022;2022-10-25 12:54:13:854
10.8224;-2.3581;-2.7173;9.6457;1.7697;-0.0093;-1.9401;-5.8282;-2.9765;-0.5663;-0.6309;1.4983;8872.0;-36.75;-21.49;10.84;120.18;-19.49;-86.5;5.0;983.16;64.692;35.957226;-83.924065;818.76;NaN;;5.33;12.226105;149.3;14 / 21;152522;2022-10-25 12:54:14:354
15.8417;-0.996;2.7341;9.5433;-1.8782;-1.2523;6.0876;4.4235;4.3999;1.4279;1.9063;-2.1024;7435.0;-40.87;-14.83;9.38;195.92;22.24;-113.93;5.0;983.15;54.072;35.95721;-83.92406;819.81;NaN;;5.0;12.226105;151.3;15 / 21;153022;2022-10-25 12:54:14:854
11.6246;-2.5762;-2.2935;9.6841;0.9959;-1.1819;-0.9106;-5.3367;-2.0164;-1.1589;-0.6708;1.845;9254.0;-34.48;-26.55;4.09;180.36;-5.83;-96.96;5.0;983.13;61.404;35.95721;-83.92406;819.81;NaN;;5.0;12.226105;151.3;15 / 21;153522;2022-10-25 12:54:15:354
11.8819;1.622;1.8063;9.3941;-2.033;-1.9461;3.1476;2.436;2.9481;2.3792;0.036;-1.9668;6596.0;-40.54;-14.46;6.73;196.75;21.07;-111.26;5.0;983.13;61.051;35.9572;-83.92405;823.52;NaN;;4.82;12.226105;166.2;15 / 21;154022;2022-10-25 12:54:15:854
10.1785;-2.3964;-1.2497;9.6138;1.7924;-0.7297;-1.8531;-6.2425;-1.2843;-0.7988;-0.2262;2.0724;9620.0;-33.06;-25.57;4.54;172.72;-10.53;-94.34;5.0;983.15;56.932;35.9572;-83.92405;823.52;NaN;;4.82;12.226105;166.2;15 / 21;154522;2022-10-25 12:54:16:354
14.5514;-2.327;0.0048;9.2793;-2.5922;-1.8292;2.8339;4.0036;2.7851;1.2264;0.6706;-1.6479;4712.0;-40.87;-11.83;8.53;177.72;15.33;-101.15;5.0;983.12;60.103;35.95719;-83.92405;822.59;NaN;;5.11;12.226105;159.7;15 / 21;155022;2022-10-25 12:54:16:854
6.7537;-1.7824;-1.7369;9.571;2.0583;-0.5737;-2.1453;-6.8599;-0.5423;-0.0046;-0.8704;2.4228;9170.0;-33.13;-25.56;5.36;170.71;-12.12;-93.43;5.0;983.12;55.935;35.95719;-83.92405;822.59;NaN;;5.11;12.226105;159.7;15 / 21;155524;2022-10-25 12:54:17:356
13.8105;-2.2146;-1.3896;9.3382;-2.466;-1.699;3.882;3.9852;1.5353;0.5628;0.8652;-1.665;4450.0;-38.59;-14.08;9.06;188.26;25.76;-109.22;5.0;983.15;60.771;35.957176;-83.92405;822.15;NaN;;4.97;12.226105;169.0;15 / 21;156022;2022-10-25 12:54:17:854
12.5569;-1.6986;-4.416;9.6616;-0.7883;-1.4839;-0.1879;-0.7322;-1.0103;-0.4458;-0.8043;1.6484;8326.0;-33.71;-23.25;6.08;168.44;-8.54;-94.0;5.0;983.08;59.868;35.957176;-83.92405;822.15;NaN;;4.97;12.226105;169.0;15 / 21;156522;2022-10-25 12:54:18:354
11.0979;-2.5618;-1.2724;8.9033;-3.4768;-2.1941;6.8795;4.823;2.0963;0.3667;0.9587;-1.2145;4514.0;-40.61;-9.92;8.38;184.84;20.76;-103.84;5.0;983.11;63.513;35.957165;-83.92404;822.95;NaN;;5.08;12.226105;169.8;15 / 21;157022;2022-10-25 12:54:18:854
8.5002;1.3454;-4.4435;9.4786;1.2898;-2.1596;-1.9818;-4.0031;1.0244;-0.152;-1.5703;0.9299;8390.0;-35.79;-19.16;5.68;167.88;-15.28;-96.52;5.0;983.09;59.978;35.957165;-83.92404;822.95;NaN;;5.08;12.226105;169.8;15 / 21;157522;2022-10-25 12:54:19:354
9.5704;-0.2656;-2.01;9.4599;-0.5284;-2.53;2.7876;4.3722;0.2298;0.6757;0.23;-1.1653;5381.0;-36.23;-20.49;10.37;179.06;3.09;-104.97;5.0;983.11;55.345;35.957153;-83.92404;823.37;NaN;;4.86;12.226105;170.5;15 / 21;158021;2022-10-25 12:54:19:853
8.0345;1.1216;-1.5861;9.4596;-0.8018;-2.4582;2.4169;0.2457;-1.3938;-0.7083;-0.4577;1.3719;7442.0;-33.15;-26.61;7.33;175.8;-6.66;-99.12;5.0;983.09;56.544;35.957153;-83.92404;823.37;NaN;;4.86;12.226105;170.5;15 / 21;158522;2022-10-25 12:54:20:354
13.5506;-2.1464;2.6468;9.6202;0.4148;-1.8572;4.9803;-1.7221;7.0484;3.3997;0.6806;-2.8163;4879.0;-39.81;-14.14;8.46;195.09;12.75;-109.88;5.0;983.1;55.566;35.957146;-83.924034;820.76;NaN;;4.82;12.226105;156.5;14 / 21;159022;2022-10-25 12:54:20:854
9.8375;-2.1248;-2.6133;9.5988;0.3144;-1.9837;-1.6051;-2.1603;-1.9264;-0.1563;-0.8418;2.2704;7427.0;-30.69;-27.97;6.66;178.77;-1.84;-101.68;5.0;983.08;63.363;35.957146;-83.924034;820.76;NaN;;4.82;12.226105;156.5;14 / 21;159522;2022-10-25 12:54:21:354
16.1865;-1.902;0.0885;9.6971;-0.5102;-1.3701;5.7556;-0.6696;1.4109;1.1421;2.0841;-2.4808;4714.0;-39.0;-12.75;9.09;198.39;18.06;-114.74;5.0;983.1;62.145;35.95713;-83.924034;819.52;NaN;;5.22;12.226105;161.0;14 / 21;160022;2022-10-25 12:54:21:854
13.1734;-0.984;-3.3386;9.6077;0.4998;-1.9008;-0.8546;-4.0024;-2.4861;-0.7868;-0.9667;2.7728;8188.0;-32.04;-25.11;0.0;194.88;-2.92;-101.19;5.0;983.1;58.678;35.95713;-83.924034;819.52;NaN;;5.22;12.226105;161.0;14 / 21;160522;2022-10-25 12:54:22:354
14.537;-1.689;-1.1563;9.5767;-0.6659;-2.0032;5.866;-0.0996;0.8557;0.747;1.4491;-2.3194;5011.0;-41.34;-9.77;7.74;182.52;3.89;-101.81;5.0;983.12;58.632;35.95712;-83.924034;818.42;NaN;;4.86;12.226105;175.3;14 / 21;161023;2022-10-25 12:54:22:855
11.7622;-2.8442;-1.884;9.6601;0.785;-1.4956;-1.642;-3.9386;-1.5298;-0.4817;-0.7229;2.2411;7558.0;-33.17;-28.18;4.05;182.49;-4.59;-98.8;5.0;983.07;61.301;35.95712;-83.924034;818.42;NaN;;4.86;12.226105;175.3;14 / 21;161522;2022-10-25 12:54:23:354
13.8344;-3.1926;-3.8306;9.7306;-0.1883;-1.2043;5.067;-1.1376;4.7709;3.5544;0.2982;-3.4789;4727.0;-41.59;-11.34;6.0;197.03;21.55;-108.76;5.0;983.11;64.272;35.957108;-83.924034;817.21;NaN;;5.0;12.226105;168.4;15 / 21;162022;2022-10-25 12:54:23:854
14.0318;-1.5012;-3.0583;9.0139;-2.9318;-2.5147;5.5007;0.2158;-1.9028;-2.0652;0.1193;3.0266;7709.0;-28.44;-28.63;8.61;170.69;-5.5;-99.46;5.0;983.08;58.185;35.957108;-83.924034;817.21;NaN;;5.0;12.226105;168.4;15 / 21;162522;2022-10-25 12:54:24:354
14.9022;-3.1232;-0.1268;9.4065;-2.1842;-1.7078;6.0928;2.6593;2.7839;1.5976;0.5126;-2.5155;5097.0;-41.29;-5.59;6.08;185.38;12.87;-100.29;5.0;983.09;61.264;35.957096;-83.92403;818.53;NaN;;5.0;12.226105;162.9;15 / 21;163023;2022-10-25 12:54:24:855
12.4313;-2.3079;-4.1285;9.2947;-1.2956;-2.8462;0.9757;-1.5934;-0.9569;-1.2975;-0.2246;3.0385;8082.0;-32.34;-24.09;7.74;183.25;-12.82;-105.62;5.0;983.08;61.583;35.957096;-83.92403;818.53;NaN;;5.0;12.226105;162.9;15 / 21;163522;2022-10-25 12:54:25:354
13.1447;-2.2409;-0.7624;8.6372;-3.2895;-3.2786;3.8298;4.4612;3.9984;0.4481;0.6522;-0.8387;5099.0;-41.29;-9.71;10.2;192.5;19.6;-110.79;5.0;983.09;58.701;35.95709;-83.92403;820.59;NaN;;4.9;12.226105;168.5;15 / 21;164022;2022-10-25 12:54:25:854
8.7326;-0.4573;-2.8669;9.5008;0.5269;-2.3723;-2.2626;-2.8158;-1.6882;-0.8689;-0.0585;2.1859;8590.0;-33.9;-24.11;4.74;183.32;-14.66;-99.77;5.0;983.06;62.785;35.95709;-83.92403;820.59;NaN;;4.9;12.226105;168.5;15 / 21;164522;2022-10-25 12:54:26:354
9.3838;-2.2588;-2.1715;9.6096;1.0147;-1.6723;2.7372;-2.775;-0.2272;1.9165;0.7539;-3.0099;5652.0;-39.64;-12.47;6.54;196.46;13.25;-108.66;5.0;983.07;60.801;35.957077;-83.92402;820.64;NaN;;5.08;12.226105;177.9;15 / 21;165022;2022-10-25 12:54:26:854
9.4663;-1.64;-4.4327;9.5153;0.6555;-2.2802;-1.0049;-2.6737;-0.9172;0.6864;-0.3476;1.9585;8578.0;-28.71;-27.99;7.86;177.74;-3.83;-103.48;5.0;983.06;63.688;35.957077;-83.92402;820.64;NaN;;5.08;12.226105;177.9;15 / 21;165522;2022-10-25 12:54:27:354
11.458;-2.2038;-1.3669;9.7474;0.0983;-1.0722;4.2484;-2.1808;-0.3384;1.7602;0.9684;-2.7596;5451.0;-37.28;-12.19;6.98;189.65;16.72;-106.49;5.0;983.09;59.616;35.957066;-83.92402;818.95;NaN;;4.72;12.226105;170.4;15 / 21;166022;2022-10-25 12:54:27:854
8.7577;-0.0455;-1.8745;9.5202;-0.3758;-2.3228;-0.4127;-2.4512;-1.9724;-1.3049;0.4239;2.9079;6299.0;-30.99;-24.43;5.53;183.45;2.2;-103.71;5.0;983.1;59.412;35.957066;-83.92402;818.95;NaN;;4.72;12.226105;170.4;15 / 21;166522;2022-10-25 12:54:28:354
9.647;-3.3697;-2.0148;9.6848;0.1407;-1.5346;5.4419;-2.5076;0.8448;1.7704;0.9161;-3.3114;3346.0;-41.12;-6.21;6.32;185.19;-0.82;-99.0;5.0;983.08;59.635;35.957047;-83.92402;819.0;NaN;;4.5;12.226105;177.6;15 / 21;167022;2022-10-25 12:54:28:854
9.3371;-1.6352;-4.0244;9.4571;0.7562;-2.4822;-1.5032;-3.3008;-0.1838;-0.7793;-0.2663;2.7484;4854.0;-31.8;-27.34;9.06;178.63;-4.42;-104.71;5.0;983.07;58.104;35.957047;-83.92402;819.0;NaN;;4.5;12.226105;177.6;15 / 21;167522;2022-10-25 12:54:29:354
10.2132;-2.1057;-1.3729;9.5966;-0.8374;-1.8367;5.0054;-0.8388;1.049;1.2558;0.7594;-2.451;2822.0;-41.18;-8.98;8.83;192.69;19.71;-109.32;5.0;983.05;58.259;35.95704;-83.92402;818.72;NaN;;4.86;12.226105;182.4;14 / 20;168022;2022-10-25 12:54:29:854
9.7355;-1.3765;-2.4251;8.8781;-2.7382;-3.1387;1.3998;0.9233;-0.7236;-1.2505;-0.2412;3.1712;3154.0;-32.36;-27.13;6.98;181.83;-4.59;-103.7;5.0;983.09;58.463;35.95704;-83.92402;818.72;NaN;;4.86;12.226105;182.4;14 / 20;168523;2022-10-25 12:54:30:355
14.3827;-3.8809;-2.0004;9.6287;-0.9337;-1.6083;6.7098;-0.5778;0.1971;1.4265;1.2353;-3.3288;2028.0;-41.44;-6.84;5.98;184.39;5.46;-99.48;5.0;983.08;59.518;35.957027;-83.92401;819.44;NaN;;4.86;12.226105;171.3;14 / 20;169023;2022-10-25 12:54:30:855
11.391;-1.2772;-2.6372;9.3326;-1.3988;-2.6677;1.9282;-1.0071;-2.0538;-1.748;-0.2365;3.3062;3178.0;-25.88;-26.59;4.18;185.37;-14.22;-102.79;5.0;983.07;58.714;35.957027;-83.92401;819.44;NaN;;4.86;12.226105;171.3;14 / 20;169523;2022-10-25 12:54:31:355
17.9797;-3.1591;-3.4008;9.2734;-1.9157;-2.5502;7.8892;3.6621;2.1849;1.2682;1.4721;-2.9145;3168.0;-33.99;-2.94;2.44;216.87;11.27;-105.38;5.0;983.08;58.619;35.957016;-83.92401;819.02;NaN;;4.46;12.226105;187.4;14 / 20;170022;2022-10-25 12:54:31:854
7.2888;4.7653;-2.5905;8.6118;3.453;-3.1755;3.4272;0.8602;-1.9553;-0.6038;-0.5581;1.4214;4159.0;-27.04;-28.5;-0.77;225.35;-31.56;-114.87;5.0;983.08;60.164;35.957016;-83.92401;819.02;NaN;;4.46;12.226105;187.4;14 / 20;170522;2022-10-25 12:54:32:354
11.0058;2.7425;-2.4885;8.874;4.0967;-0.8001;3.5985;-1.5037;-0.9937;0.2387;0.9423;-1.6352;8814.0;-37.87;-22.01;-6.34;222.08;-12.54;-99.58;5.0;983.09;59.505;35.95701;-83.92402;821.21;NaN;;5.0;12.226105;202.0;14 / 20;171022;2022-10-25 12:54:32:854
12.5007;-1.5335;-3.5276;9.1626;1.5061;-3.1541;1.8377;-2.1496;-2.327;-1.7017;-0.7009;2.8192;8408.0;-30.32;-29.63;-9.09;227.37;-25.59;-106.33;5.0;983.08;60.62;35.95701;-83.92402;821.21;NaN;;5.0;12.226105;202.0;14 / 20;171522;2022-10-25 12:54:33:354
13.82;-5.3689;0.1005;9.8059;-0.0306;-0.1171;5.8643;-4.4166;3.0855;5.1507;0.8368;-1.8976;11672.0;-41.1;5.53;-7.61;271.89;8.18;-105.34;5.0;983.05;60.095;35.956997;-83.92403;821.82;NaN;;4.9;12.226105;216.5;13 / 20;172021;2022-10-25 12:54:33:853
11.3743;-2.2158;-4.0507;9.3835;0.5825;-2.7893;-0.7539;-3.8228;-1.4271;-0.9014;-0.5376;2.3685;11804.0;-35.57;-12.13;-14.29;246.76;-3.41;-106.55;5.0;983.1;62.746;35.956997;-83.92403;821.82;NaN;;4.9;12.226105;216.5;13 / 20;172522;2022-10-25 12:54:34:354
9.4866;-3.1747;-2.2959;9.4583;-0.814;-2.4595;5.2937;-0.1894;1.5269;1.3775;1.4056;-2.6662;6782.0;-41.14;6.6;-4.74;284.03;4.76;-104.58;5.0;983.07;61.393;35.956985;-83.92403;821.87;NaN;;4.93;12.226105;214.5;13 / 20;173022;2022-10-25 12:54:34:854
9.318;0.2477;-3.9778;9.2327;2.2786;-2.395;-1.0583;-5.9546;-1.5721;-0.6972;-0.3993;2.0947;11529.0;-34.48;-18.43;-9.08;238.95;-13.44;-104.54;5.0;983.06;63.535;35.956985;-83.92403;821.87;NaN;;4.93;12.226105;214.5;13 / 20;173521;2022-10-25 12:54:35:353
14.1981;-1.5802;-1.9645;9.0573;-1.7388;-3.3336;4.5696;3.4023;3.449;1.7233;0.5123;-1.7148;7332.0;-39.11;-1.05;-3.58;245.31;17.45;-119.8;5.0;983.09;63.154;35.95698;-83.92404;821.76;NaN;;5.44;12.226105;231.2;13 / 20;174021;2022-10-25 12:54:35:853
8.0094;-0.8127;-2.8741;8.9388;-0.2066;-4.0282;-1.4493;-0.7165;0.787;0.5117;-0.5156;2.1435;10505.0;-37.14;-13.61;-5.55;254.81;-15.1;-110.35;5.0;983.08;64.815;35.95698;-83.92404;821.76;NaN;;5.44;12.226105;231.2;13 / 20;174522;2022-10-25 12:54:36:354
13.2084;-3.1627;-4.8577;8.2208;-2.6089;-4.6672;8.8288;4.3148;0.7353;-0.2797;1.2251;-1.7179;4440.0;-41.62;0.38;7.11;234.02;15.43;-119.58;5.0;983.11;63.97;35.95697;-83.92405;820.85;NaN;;4.82;12.226105;221.9;13 / 20;175022;2022-10-25 12:54:36:854
8.7972;-3.1771;-4.1417;9.4618;1.5117;-2.0879;-2.5679;-4.9504;-2.6983;-0.979;-0.7752;2.6007;8529.0;-36.3;-17.04;1.97;263.43;-24.81;-98.08;5.0;983.07;64.279;35.95697;-83.92405;820.85;NaN;;4.82;12.226105;221.9;13 / 20;175521;2022-10-25 12:54:37:353
15.4421;-5.3701;0.4047;7.8344;-3.7972;-4.5136;7.2316;2.9403;8.7267;-0.4136;1.3391;0.0381;7921.0;-38.27;-3.52;-2.03;232.21;22.78;-119.95;5.0;983.09;65.04;35.95696;-83.92406;819.82;NaN;;5.15;12.226105;214.7;13 / 20;176021;2022-10-25 12:54:37:853
7.1225;-2.3306;-4.5284;9.1827;2.9553;-1.7647;-3.4326;-8.0325;-1.1083;0.3455;-0.2479;1.7069;7847.0;-33.69;-14.94;-5.59;277.28;-26.99;-99.06;5.0;983.05;63.943;35.95696;-83.92406;819.82;NaN;;5.15;12.226105;214.7;13 / 20;176521;2022-10-25 12:54:38:353
17.2843;-0.2405;2.3785;8.7427;-3.4072;-2.8506;7.6991;3.1536;5.1224;1.1204;1.3559;-1.4956;7346.0;-40.43;-2.36;-0.39;230.84;25.95;-121.04;5.0;983.09;62.034;35.956947;-83.924065;819.4;NaN;;5.0;12.226105;207.4;13 / 20;177021;2022-10-25 12:54:38:853
7.369;-5.0743;-2.7066;9.3083;2.6604;-1.5647;-2.544;-6.7749;-1.3876;0.1984;-0.0921;0.1849;9932.0;-39.79;-3.62;-4.22;301.48;-14.22;-97.74;5.0;983.06;63.931;35.956947;-83.924065;819.4;NaN;;5.0;12.226105;207.4;13 / 20;177523;2022-10-25 12:54:39:355
13.389;1.0056;-1.0522;8.0246;-4.6644;-3.1654;5.0276;4.1021;1.7021;-0.0892;0.2426;0.0141;5497.0;-38.94;-10.35;-2.57;214.62;28.22;-112.19;5.0;983.06;65.079;35.956936;-83.92407;820.54;NaN;;4.9;12.226105;209.1;13 / 20;178022;2022-10-25 12:54:39:854
11.3288;-5.8475;-2.6958;9.4239;2.3718;-1.3176;-1.2216;-6.3049;-1.2121;0.0524;0.2319;-0.956;8317.0;-37.63;-8.08;-4.59;276.55;-14.0;-97.96;5.0;983.07;65.506;35.956936;-83.92407;820.54;NaN;;4.9;12.226105;209.1;13 / 20;178522;2022-10-25 12:54:40:354
13.9505;3.6197;-4.8422;9.015;-3.0017;-2.4271;2.5769;6.4756;0.8282;0.9061;-0.0047;0.221;5706.0;-37.48;-14.94;-1.05;202.84;17.82;-105.07;5.0;983.07;64.812;35.956924;-83.92407;821.34;NaN;;4.97;12.226105;202.2;14 / 20;179023;2022-10-25 12:54:40:855
7.5197;-3.0165;-3.335;8.6772;4.3078;-1.5229;-0.8564;-6.6261;-0.8317;-1.5109;0.0153;1.517;7670.0;-32.04;-22.07;-2.25;231.02;-26.06;-99.95;5.0;983.04;64.828;35.956924;-83.92407;821.34;NaN;;4.97;12.226105;202.2;14 / 20;179522;2022-10-25 12:54:41:354
16.4581;2.1882;-1.7991;8.2693;-4.1297;-3.2764;4.5185;7.6455;1.8349;-0.2127;-0.4318;0.9617;8032.0;-34.69;-17.81;-4.29;206.94;17.33;-106.27;5.0;983.08;65.688;35.956913;-83.92408;822.21;NaN;;5.08;12.226105;207.8;14 / 20;180022;2022-10-25 12:54:41:854
9.8483;-6.9906;-4.1034;9.6152;1.7104;-0.8906;-2.2725;-9.2742;0.2925;1.3164;-1.3255;2.2191;11371.0;-36.04;-14.08;-6.13;304.54;-25.63;-87.51;5.0;983.02;65.683;35.956913;-83.92408;822.21;NaN;;5.08;12.226105;207.8;14 / 20;180521;2022-10-25 12:54:42:353
14.9907;0.7217;-2.1583;7.5675;-5.0711;-3.6314;4.5454;7.1359;2.3878;-0.0309;0.0056;0.264;5087.0;-39.88;-5.21;-0.3;217.04;31.14;-115.63;5.0;983.06;65.02;35.9569;-83.92408;823.29;NaN;;5.08;12.226105;199.9;14 / 20;181021;2022-10-25 12:54:42:853
5.9471;-2.8394;-4.55;8.7825;4.3298;-0.5392;-2.3762;-8.9718;-2.7918;-0.9632;0.3529;0.1036;9433.0;-33.9;-16.95;-3.41;266.05;-26.2;-93.51;5.0;983.04;65.164;35.9569;-83.92408;823.29;NaN;;5.08;12.226105;199.9;14 / 20;181522;2022-10-25 12:54:43:354
14.3264;0.3891;2.2349;8.1238;-3.0228;-4.5865;4.2779;3.7658;5.2001;-1.4795;-0.4177;1.4075;8670.0;-34.33;-16.48;-2.61;218.97;17.95;-119.45;5.0;983.06;64.811;35.956886;-83.92409;827.83;NaN;;5.22;12.226105;201.7;14 / 20;182022;2022-10-25 12:54:43:854
10.7578;-4.7486;-3.687;8.6588;2.7018;-3.7278;-4.6277;-8.038;-1.2082;1.0318;-0.7661;0.5925;6815.0;-36.75;-9.36;-1.2;283.57;-17.26;-101.94;5.0;983.03;63.27;35.956886;-83.92409;827.83;NaN;;5.22;12.226105;201.7;14 / 20;182521;2022-10-25 12:54:44:353
20.5678;-2.3414;-1.6711;8.145;-4.4137;-3.217;4.875;5.9944;2.6721;-0.2549;0.937;0.2472;5864.0;-37.44;-9.37;3.49;209.92;24.83;-115.29;5.0;983.02;63.141;35.956875;-83.92409;829.83;NaN;;5.0;12.226105;195.0;14 / 20;183023;2022-10-25 12:54:44:855
7.8491;-3.3541;-1.4928;9.2256;2.7627;-1.8512;-2.2111;-5.5186;-0.8416;-1.0085;0.1672;-0.8192;6951.0;-39.49;-2.72;-2.81;278.96;-7.26;-102.21;5.0;983.05;63.19;35.956875;-83.92409;829.83;NaN;;5.0;12.226105;195.0;14 / 20;183522;2022-10-25 12:54:45:354
12.9592;-1.1001;-1.3753;6.3432;-6.2768;-4.0666;5.2368;5.8271;2.855;0.0412;-0.2798;0.4125;5125.0;-38.01;-11.21;3.28;209.17;34.95;-119.47;5.0;983.06;61.551;35.956863;-83.924095;832.36;NaN;;5.04;12.226105;199.5;13 / 20;184022;2022-10-25 12:54:45:854
5.9638;-6.8782;-2.7604;9.4568;1.1996;-2.3024;-0.9634;-7.2678;0.1277;1.8168;-0.7965;-2.9564;6029.0;-40.37;4.07;0.47;312.68;-7.03;-103.68;5.0;983.02;63.663;35.956863;-83.924095;832.36;NaN;;5.04;12.226105;199.5;13 / 20;184521;2022-10-25 12:54:46:353
13.0262;-0.3173;-0.8824;8.1901;-4.2808;-3.2814;1.7574;3.1384;1.9765;-1.3042;0.0815;1.9826;4427.0;-37.89;-17.78;7.82;191.52;25.88;-111.83;5.0;983.04;61.161;35.95685;-83.924095;834.75;NaN;;5.18;12.226105;184.6;13 / 20;185021;2022-10-25 12:54:46:853
7.4276;-3.8043;-2.7616;9.5724;0.1106;-2.1278;-1.1193;-3.3705;0.058;0.0651;-0.2154;-0.8234;4885.0;-41.44;-6.99;0.98;230.43;-0.65;-102.53;5.0;983.02;62.053;35.95685;-83.924095;834.75;NaN;;5.18;12.226105;184.6;13 / 20;185523;2022-10-25 12:54:47:355
11.2857;0.7552;-1.9259;7.9127;-4.6717;-3.4256;1.1066;3.6689;1.94;-0.4814;-0.3115;2.0567;3650.0;-37.95;-18.0;3.68;195.89;15.45;-107.75;5.0;983.06;61.826;35.956837;-83.924095;836.43;NaN;;4.75;12.226105;187.2;13 / 20;186022;2022-10-25 12:54:47:854
7.6289;-4.3669;-3.8414;9.5936;1.2439;-1.6079;-2.4294;-4.3719;-1.656;-0.032;0.049;-0.9876;3065.0;-41.14;-4.09;-0.58;234.81;1.7;-98.96;5.0;983.03;64.779;35.956837;-83.924095;836.43;NaN;;4.75;12.226105;187.2;13 / 20;186521;2022-10-25 12:54:48:353
11.761;-0.3736;-1.0917;8.3236;-4.1611;-3.0941;-0.6096;2.2339;1.8818;-0.9077;-0.5179;1.9304;2855.0;-36.41;-13.71;-2.21;208.37;25.11;-110.39;5.0;983.04;63.171;35.956825;-83.92409;837.26;NaN;;4.57;12.226105;194.2;13 / 20;187022;2022-10-25 12:54:48:854
6.4953;-4.4949;-2.3665;9.4625;1.7548;-1.8847;-2.1201;-6.0504;-0.773;0.7815;-0.265;-1.8893;2847.0;-37.07;-1.91;-3.07;293.49;-10.31;-101.26;5.0;983.03;63.592;35.956825;-83.92409;837.26;NaN;;4.57;12.226105;194.2;13 / 20;187522;2022-10-25 12:54:49:354
8.3172;-0.5207;-2.4072;8.3493;-2.4652;-4.5147;0.1418;1.9795;-0.0311;-2.3654;0.307;2.3747;1795.0;-31.88;-18.02;4.18;205.1;14.56;-118.4;5.0;983.04;63.091;35.956818;-83.924095;837.06;NaN;;4.28;12.226105;206.0;13 / 20;188022;2022-10-25 12:54:49:854
7.0914;-2.8107;-4.1201;8.8203;2.9827;-3.0784;-0.4998;-6.2946;-0.4924;1.5955;-0.0601;-2.728;2649.0;-34.24;-3.06;4.99;239.33;-0.17;-106.54;5.0;983.01;63.744;35.956818;-83.924095;837.06;NaN;;4.28;12.226105;206.0;13 / 20;188522;2022-10-25 12:54:50:354
9.5465;-0.4023;-1.1264;7.8761;-3.4258;-4.733;1.4356;2.139;3.1871;-1.8175;-0.1644;2.8232;2397.0;-32.31;-12.28;0.6;216.6;8.59;-114.0;5.0;983.03;62.389;35.956806;-83.924095;836.2;NaN;;4.18;12.226105;206.7;13 / 20;189022;2022-10-25 12:54:50:854
7.5616;-3.4403;-3.5228;9.5304;1.4296;-1.8159;1.316;-4.3978;-1.329;1.7788;0.7716;-3.2399;3881.0;-34.01;9.77;-0.43;286.09;12.04;-108.01;5.0;983.01;62.911;35.956806;-83.924095;836.2;NaN;;4.18;12.226105;206.7;13 / 20;189522;2022-10-25 12:54:51:354
12.1837;0.0323;-2.3414;7.7456;-4.276;-4.2298;2.3456;3.1592;1.3538;-0.9271;-0.5019;2.7687;3767.0;-34.01;-16.22;-9.24;225.43;8.6;-110.64;5.0;983.02;59.002;35.9568;-83.9241;836.22;NaN;;4.68;12.226105;218.1;14 / 20;190022;2022-10-25 12:54:51:854
6.4364;-3.7373;-3.8821;9.5467;1.3653;-1.7796;3.1288;-5.271;-0.9708;1.6452;1.0199;-3.349;9777.0;-38.51;5.27;-5.32;310.11;-8.0;-100.56;5.0;983.01;60.156;35.9568;-83.9241;836.22;NaN;;4.68;12.226105;218.1;14 / 20;190522;2022-10-25 12:54:52:354
12.0541;-0.1914;-3.8761;7.524;-4.3144;-4.5767;3.6661;3.6806;-0.4832;-1.0564;-0.4288;3.077;7980.0;-31.78;-19.97;-5.57;217.24;26.1;-121.31;5.0;983.03;59.051;35.956795;-83.92411;837.44;NaN;;5.11;12.226105;246.5;14 / 20;191023;2022-10-25 12:54:52:855
7.6923;-3.8605;-4.3119;9.024;0.9711;-3.7142;4.4951;-5.7056;0.1465;0.3778;0.1113;-1.8812;5097.0;-34.43;-3.04;-0.9;270.37;-5.68;-112.37;5.0;983.03;59.995;35.956795;-83.92411;837.44;NaN;;5.11;12.226105;246.5;14 / 20;191522;2022-10-25 12:54:53:354
11.3851;-0.9625;-2.8956;8.0539;-3.8775;-4.0337;3.4282;1.7825;-2.1371;-1.962;0.1674;3.3787;5399.0;-27.15;-19.74;1.5;199.08;2.69;-109.95;5.0;983.03;60.668;35.956787;-83.924126;838.61;NaN;;4.79;12.226105;225.5;14 / 20;192021;2022-10-25 12:54:53:853
8.2741;-5.1329;-3.1603;9.2215;2.5564;-2.1444;3.1386;-8.7375;-0.619;2.5662;0.2639;-4.0398;9282.0;-33.6;7.93;-0.81;280.47;10.67;-105.35;5.0;982.99;60.981;35.956787;-83.924126;838.61;NaN;;4.79;12.226105;225.5;14 / 20;192522;2022-10-25 12:54:54:354
11.5863;-1.884;-2.8262;9.0314;-1.8136;-3.3639;3.6457;-1.3041;-2.0997;-0.9885;0.9246;3.363;3611.0;-28.99;-20.1;2.4;198.39;10.66;-110.43;5.0;983.0;59.594;35.956776;-83.924126;837.63;NaN;;4.97;12.226105;201.1;14 / 20;193022;2022-10-25 12:54:54:854
9.2052;-4.9594;-3.2596;9.5818;1.2401;-1.68;4.9649;-5.7146;-0.9469;1.8534;0.6877;-3.8826;9032.0;-36.21;8.96;-3.22;325.5;-7.26;-99.94;5.0;983.03;58.199;35.956776;-83.924126;837.63;NaN;;4.97;12.226105;201.1;14 / 20;193522;2022-10-25 12:54:55:354
8.6725;-0.7481;-4.617;8.3896;0.6463;-5.0366;-0.2074;-1.2625;-3.1265;-0.6631;0.5661;3.2605;5409.0;-31.61;-19.48;-0.92;225.24;-3.78;-120.98;5.0;983.0;58.768;35.956768;-83.924126;833.67;NaN;;4.68;12.226105;188.3;14 / 20;194022;2022-10-25 12:54:55:854
13.4776;-2.9518;-2.9183;9.5094;0.6886;-2.2949;5.9245;-2.8479;-0.3653;2.5467;1.3173;-3.4408;7091.0;-39.19;8.49;1.13;322.51;-4.03;-103.57;5.0;983.02;57.874;35.956768;-83.924126;833.67;NaN;;4.68;12.226105;188.3;14 / 20;194522;2022-10-25 12:54:56:354
9.871;-0.9135;-1.6807;8.5592;-2.9529;-3.767;3.0793;1.2442;0.6174;-1.4612;-0.3945;2.808;9154.0;-35.96;-16.24;-6.24;228.07;-0.48;-109.21;5.0;983.02;57.014;35.956757;-83.92414;831.43;NaN;;5.22;12.226105;221.8;14 / 20;195023;2022-10-25 12:54:56:855
15.3808;-6.3622;-1.3107;9.5266;-1.6634;-1.627;7.6928;-1.5419;1.6381;2.7428;1.2673;-3.4954;6903.0;-38.12;12.51;-3.11;261.23;27.85;-119.41;5.0;982.99;57.672;35.956757;-83.92414;831.43;NaN;;5.22;12.226105;221.8;14 / 20;195522;2022-10-25 12:54:57:354
9.6601;1.1934;1.1982;9.7158;-0.9807;-0.9015;5.6144;-0.254;1.0222;-1.984;-1.084;2.1378;10608.0;-34.12;-14.7;-10.24;245.23;-13.49;-99.55;5.0;983.03;58.167;35.95675;-83.92415;830.59;NaN;;4.61;12.226105;219.8;14 / 20;196022;2022-10-25 12:54:57:854
11.2008;-4.0065;-0.6009;9.418;-2.4239;-1.2638;6.9353;1.3016;4.9121;1.758;1.239;-1.251;17151.0;-36.09;14.1;-14.16;285.59;14.31;-97.64;5.0;983.03;55.981;35.95675;-83.92415;830.59;NaN;;4.61;12.226105;219.8;14 / 20;196522;2022-10-25 12:54:58:354
13.0597;-4.7907;-2.7784;9.3928;-1.9443;-2.0409;0.8268;-3.2256;-1.2811;-0.5267;-1.5455;3.5544;38956.0;-32.31;-10.76;-20.27;238.5;11.44;-102.26;5.0;983.04;54.693;35.956745;-83.92416;827.12;NaN;;4.64;12.226105;212.8;13 / 20;197022;2022-10-25 12:54:58:854
15.5761;-1.7847;1.3083;6.9363;-5.927;-3.5957;6.951;6.3452;4.8096;2.7659;1.0547;-4.0388;2152.0;-35.53;13.16;-9.28;256.06;39.07;-120.8;5.0;983.04;54.13;35.956745;-83.92416;827.12;NaN;;4.64;12.226105;212.8;13 / 20;197521;2022-10-25 12:54:59:353
14.4532;-5.4514;-3.3099;9.3123;1.7356;-2.5375;-4.7862;-7.3236;-0.1146;-0.2431;-0.4747;2.2259;10216.0;-34.26;-6.06;-11.1;288.52;-22.25;-102.68;5.0;983.01;57.11;35.956738;-83.92417;823.85;NaN;;4.5;12.226105;217.4;13 / 20;198022;2022-10-25 12:54:59:854
18.4621;-6.8339;-0.6894;8.0958;-4.8821;-2.6066;8.5462;2.2669;4.5417;1.2819;1.7294;-2.1785;1857.0;-35.04;11.94;-5.51;257.38;40.35;-129.12;5.0;983.04;56.644;35.956738;-83.92417;823.85;NaN;;4.5;12.226105;217.4;13 / 20;198522;2022-10-25 12:55:00:354
7.1022;-7.4707;-2.3868;8.2829;4.0684;-3.3185;-4.7283;-8.8332;0.4337;-0.0728;-0.4326;0.0942;8793.0;-34.16;-9.0;-8.53;279.5;-24.51;-111.83;5.0;983.01;56.93;35.956734;-83.92419;826.09;NaN;;3.92;12.226105;225.5;13 / 20;199022;2022-10-25 12:55:00:854
15.3796;-0.7887;0.9817;6.7832;-5.7648;-4.114;5.5472;6.7116;5.3684;0.1147;0.2602;-0.0098;2072.0;-35.53;8.44;-6.23;247.63;36.0;-121.24;5.0;983.04;59.27;35.956734;-83.92419;826.09;NaN;;3.92;12.226105;225.5;13 / 20;199522;2022-10-25 12:55:01:354
4.6325;-4.1465;-2.6623;8.5525;4.0308;-2.6035;-1.3635;-9.4357;0.5488;1.2104;-0.5718;-2.1403;9404.0;-33.19;5.74;-9.39;313.63;-24.27;-106.93;5.0;983.01;58.287;35.956722;-83.924194;826.7;NaN;;4.46;12.226105;226.3;13 / 20;200022;2022-10-25 12:55:01:854
13.0789;0.3281;-0.4023;5.9603;-6.1476;-4.7803;7.1778;4.2871;5.8197;0.0036;-0.836;1.4056;3513.0;-34.56;-2.4;-5.08;237.06;38.82;-128.73;5.0;983.04;56.541;35.956722;-83.924194;826.7;NaN;;4.46;12.226105;226.3;13 / 20;200522;2022-10-25 12:55:02:354
5.2705;-4.9834;-2.63;8.3417;4.1821;-3.0159;-1.2519;-9.1405;0.6169;0.8489;-0.5768;-2.026;6345.0;-34.22;9.17;-7.03;317.65;-10.68;-101.19;5.0;983.03;56.995;35.95672;-83.92421;825.65;NaN;;4.43;12.226105;228.8;14 / 20;201022;2022-10-25 12:55:02:854
13.5206;-2.4742;-1.8099;6.7716;-6.1118;-3.6003;6.152;3.6082;1.0635;-1.7023;-0.1074;3.5925;2185.0;-33.68;-16.91;-5.29;210.8;16.28;-107.33;5.0;983.01;56.97;35.95672;-83.92421;825.65;NaN;;4.43;12.226105;228.8;14 / 20;201522;2022-10-25 12:55:03:354
7.1716;-5.0001;-3.5731;7.589;5.4026;-3.0641;0.9805;-10.9889;-0.2247;1.2627;-0.7221;-3.3023;3474.0;-34.41;15.26;-6.99;328.96;-9.63;-98.89;5.0;983.04;56.028;35.956707;-83.92422;823.9;NaN;;4.43;12.226105;214.6;14 / 20;202022;2022-10-25 12:55:03:854
10.3989;1.6376;-2.916;8.5883;-1.3835;-4.5275;7.0039;1.2104;-0.968;-1.7247;-0.2137;3.6472;2547.0;-29.7;-21.58;-2.62;213.31;8.11;-117.8;5.0;983.04;59.445;35.956707;-83.92422;823.9;NaN;;4.43;12.226105;214.6;14 / 20;202522;2022-10-25 12:55:04:354
11.8173;-4.4052;-1.9657;9.511;1.2207;-2.0548;3.8224;-6.4622;1.8437;3.4541;0.4377;-3.6058;2361.0;-35.4;16.89;-2.85;333.87;-7.15;-102.19;5.0;983.07;56.284;35.956703;-83.924225;821.16;NaN;;4.32;12.226105;219.1;15 / 19;203022;2022-10-25 12:55:04:854
12.2291;-2.5149;-3.687;9.2746;-0.142;-3.1831;1.7769;-3.757;-1.2542;-2.201;-0.2473;3.976;2536.0;-34.28;-15.02;-4.78;258.52;-20.97;-119.14;5.0;983.07;55.987;35.956703;-83.924225;821.16;NaN;;4.32;12.226105;219.1;15 / 19;203523;2022-10-25 12:55:05:355
9.4017;-5.9327;-2.9399;9.7522;0.734;-0.725;7.3683;-6.7812;0.6322;3.3954;1.478;-3.8621;2498.0;-33.98;18.94;-4.33;296.32;18.96;-112.46;5.0;983.08;55.685;35.956696;-83.92424;819.37;NaN;;5.22;12.226105;249.5;15 / 20;204022;2022-10-25 12:55:05:854
9.2004;2.1655;4.2437;9.716;0.2258;-1.3108;-0.4652;1.8692;2.1099;-2.9123;-1.1128;1.501;7053.0;-32.29;-16.54;-11.01;234.45;-12.89;-94.55;5.0;983.07;55.877;35.956696;-83.92424;819.37;NaN;;5.22;12.226105;249.5;15 / 20;204522;2022-10-25 12:55:06:354
6.3622;-1.2126;-2.1727;9.6679;1.5795;-0.4547;2.3838;-3.5024;0.1923;2.4718;0.5937;-1.7322;8896.0;-36.15;4.65;-14.66;302.48;-9.27;-92.69;5.0;983.05;51.831;35.956696;-83.924255;819.12;NaN;;4.61;12.226105;248.5;14 / 20;205023;2022-10-25 12:55:06:855
9.9583;-0.309;-0.5088;8.7504;-3.1583;-3.1025;1.0775;2.8979;0.7047;-1.724;0.0723;1.7017;6776.0;-35.27;-6.67;-11.14;233.94;18.79;-109.52;5.0;983.05;51.021;35.956696;-83.924255;819.12;NaN;;4.61;12.226105;248.5;14 / 20;205522;2022-10-25 12:55:07:354
11.7718;-3.6583;-1.4809;9.6556;-0.8884;-1.4668;5.2439;-1.5849;0.6518;1.4011;0.9497;-2.6559;4132.0;-35.32;12.69;-6.51;309.13;5.2;-98.64;5.0;983.04;52.599;35.956696;-83.92427;816.84;NaN;;4.28;12.226105;254.8;14 / 20;206023;2022-10-25 12:55:07:855
12.7463;-1.6065;-3.1723;8.8692;-3.3957;-2.4446;4.5749;0.4474;-0.3595;0.2953;-0.5449;2.4771;13385.0;-33.73;-7.8;-9.9;226.16;20.26;-105.41;5.0;983.04;52.281;35.956696;-83.92427;816.84;NaN;;4.28;12.226105;254.8;14 / 20;206522;2022-10-25 12:55:08:354
11.9166;-4.2075;-0.9517;9.6635;-0.9249;-1.3896;3.3894;-3.4249;0.6783;0.8763;0.2075;-2.0268;1939.0;-34.52;12.86;-7.78;274.74;19.73;-102.24;5.0;983.04;53.579;35.95669;-83.924286;815.22;NaN;;4.25;12.226105;236.8;14 / 20;207021;2022-10-25 12:55:08:853
10.9807;-3.754;-3.9012;9.6038;-0.001;-1.9842;-0.4566;-4.5002;-0.706;0.323;-0.3762;1.5722;13418.0;-34.65;-9.75;-9.99;239.34;0.01;-101.67;5.0;983.02;52.994;35.95669;-83.924286;815.22;NaN;;4.25;12.226105;236.8;14 / 20;207522;2022-10-25 12:55:09:354
18.1591;-3.6401;-0.6188;9.2336;-2.8685;-1.6382;6.3445;1.0352;0.9397;0.7229;0.7928;-2.2846;2514.0;-34.82;6.84;-6.77;242.7;31.71;-111.12;5.0;983.05;53.677;35.956688;-83.9243;817.77;NaN;;4.82;12.226105;243.4;14 / 20;208022;2022-10-25 12:55:09:854
9.9081;-3.7528;-2.2816;9.4177;1.9072;-1.9598;-3.315;-5.9086;-0.0589;-0.368;-0.2533;0.8286;11996.0;-33.75;-5.96;-10.07;270.66;-11.21;-101.76;5.0;983.03;53.289;35.956688;-83.9243;817.77;NaN;;4.82;12.226105;243.4;14 / 20;208522;2022-10-25 12:55:10:354
14.6997;-4.902;0.0969;8.6677;-3.9065;-2.4043;9.1429;2.5101;2.1316;-0.2423;1.5157;-2.1199;2161.0;-34.29;11.55;-6.82;265.31;23.48;-105.5;5.0;983.04;54.677;35.956688;-83.92432;816.72;NaN;;4.43;12.226105;255.6;14 / 20;209022;2022-10-25 12:55:10:854
8.5181;-5.8343;-2.9279;9.1457;3.1371;-1.6386;-2.804;-7.0285;-0.215;-0.9244;-0.0321;2.7867;15189.0;-34.39;0.88;-11.33;301.15;-15.05;-97.68;5.0;983.01;52.535;35.956688;-83.92432;816.72;NaN;;4.43;12.226105;255.6;14 / 20;209522;2022-10-25 12:55:11:354
16.1016;-0.5662;1.445;8.0705;-4.4485;-3.3538;8.5402;4.5085;2.9619;-1.0783;0.9929;-0.8719;3665.0;-36.26;5.96;-10.16;244.59;34.06;-113.74;5.0;983.06;55.812;35.95668;-83.92434;815.31;NaN;;4.5;12.226105;241.5;14 / 20;210023;2022-10-25 12:55:11:855
12.3093;-2.3629;-1.6113;9.4636;0.6747;-2.4811;-2.4929;-5.4969;0.0248;-1.0056;0.2821;3.0137;10459.0;-34.82;-6.13;-11.02;285.09;-22.16;-107.92;5.0;983.01;54.507;35.95668;-83.92434;815.31;NaN;;4.5;12.226105;241.5;14 / 20;210522;2022-10-25 12:55:12:354
16.4665;0.3532;-1.4904;8.4772;-4.3455;-2.3292;5.0961;5.3819;0.1066;-0.587;0.1012;-0.2337;3061.0;-38.66;3.06;-11.47;238.8;26.3;-105.36;5.0;983.07;54.899;35.95668;-83.924355;815.56;NaN;;4.32;12.226105;254.3;14 / 20;211023;2022-10-25 12:55:12:855
9.3419;-3.3278;-2.8932;9.5663;-0.1412;-2.153;-1.1531;-5.3506;-0.2743;-0.8199;0.0204;2.6699;11872.0;-35.18;-11.76;-11.04;235.93;0.82;-102.68;5.0;983.04;56.037;35.95668;-83.924355;815.56;NaN;;4.32;12.226105;254.3;14 / 20;211523;2022-10-25 12:55:13:355
15.7029;-4.4291;-0.8366;8.2326;-4.7543;-2.4066;4.9421;6.5742;0.647;-0.9053;0.5413;-0.5482;2033.0;-36.96;2.27;-9.23;233.17;29.0;-106.29;5.0;983.04;57.385;35.956676;-83.92436;814.93;NaN;;4.32;12.226105;243.1;14 / 20;212022;2022-10-25 12:55:13:854
9.2219;-1.7201;-2.2983;9.5593;1.7567;-1.3052;-1.6794;-5.0815;-0.9861;-0.9884;-0.0961;2.2007;20491.0;-32.81;-12.06;-12.36;249.12;-10.32;-97.77;5.0;983.04;53.9;35.956676;-83.92436;814.93;NaN;;4.32;12.226105;243.1;14 / 20;212522;2022-10-25 12:55:14:354
16.7013;1.9944;-2.0901;9.7554;-0.0641;-0.9995;3.7288;1.6314;0.9245;0.7187;-0.0355;-0.7872;22600.0;-36.11;-6.34;-13.74;246.31;3.6;-97.36;5.0;983.04;52.137;35.956673;-83.92438;813.7;NaN;;4.28;12.226105;245.5;14 / 20;213022;2022-10-25 12:55:14:854
10.3412;-3.4475;-3.2261;9.536;1.425;-1.7899;-1.454;-3.4215;-0.107;-0.429;-0.9265;1.0074;27648.998;-34.39;-9.9;-14.66;255.49;-8.36;-100.63;5.0;983.03;50.615;35.956673;-83.92438;813.7;NaN;;4.28;12.226105;245.5;14 / 20;213521;2022-10-25 12:55:15:353
18.0239;0.3688;-3.6317;9.1108;-2.6182;-2.5116;6.5503;5.2598;0.7107;0.4004;-0.1358;-2.0277;5550.0;-36.71;1.22;-10.33;240.37;24.37;-108.89;5.0;983.08;51.661;35.956665;-83.924385;813.57;NaN;;4.25;12.226105;245.6;14 / 20;214023;2022-10-25 12:55:15:855
10.7722;3.4403;-3.213;8.5331;4.2713;-2.2611;-3.2337;-5.2257;-0.6405;-0.3737;-0.3217;0.5572;14739.0;-29.47;-13.05;-8.55;268.24;-25.82;-104.84;5.0;983.04;53.056;35.956665;-83.924385;813.57;NaN;;4.25;12.226105;245.6;14 / 20;214522;2022-10-25 12:55:16:354
12.824;3.1412;-1.579;9.6616;1.5314;-0.6916;0.8296;2.2828;0.3632;0.1032;1.1694;0.4213;17031.0;-28.5;-16.89;-9.41;221.76;-8.98;-94.09;5.0;983.06;52.539;35.95666;-83.9244;814.0;NaN;;4.43;12.226105;246.0;14 / 20;215023;2022-10-25 12:55:16:855
8.0094;-1.386;-0.2261;9.1496;3.2789;-1.3053;-2.8814;-2.683;-0.0338;-0.402;0.0354;0.1953;8064.0;-28.54;-19.43;-6.52;225.82;-16.01;-97.89;5.0;983.05;51.393;35.95666;-83.9244;814.0;NaN;;4.43;12.226105;246.0;14 / 20;215522;2022-10-25 12:55:17:354
18.3174;0.1472;1.768;9.3665;-0.8046;-2.7914;-0.4357;6.0742;2.7009;-1.8748;0.0604;0.2736;7830.0;-30.41;-19.31;-2.01;203.9;5.29;-104.7;5.0;983.07;52.714;35.95665;-83.92441;814.5;NaN;;5.18;12.226105;217.1;14 / 20;216022;2022-10-25 12:55:17:854
14.1586;-2.3593;-1.2688;9.6641;-0.5789;-1.5623;0.6651;-5.1017;-1.9744;-1.9645;0.0148;2.7522;8738.0;-32.98;-16.93;-4.12;221.38;-12.44;-97.95;5.0;983.07;59.746;35.95665;-83.92441;814.5;NaN;;5.18;12.226105;217.1;14 / 20;216522;2022-10-25 12:55:18:354
15.8058;2.4993;-0.2465;8.8481;-3.8225;-1.8084;5.3173;5.6067;1.3851;-0.7253;0.7121;-0.9809;8348.0;-38.06;0.28;-5.79;223.84;22.94;-101.55;5.0;983.04;57.741;35.95664;-83.924416;815.6;NaN;;4.64;12.226105;209.8;14 / 20;217022;2022-10-25 12:55:18:854
9.5895;-0.8812;-7.8838;8.88;2.293;-3.4726;1.4843;-5.5519;-1.2704;-0.1624;-1.7517;2.2746;5637.0;-31.71;-14.91;-5.64;275.7;-28.66;-102.03;5.0;983.05;52.7;35.95664;-83.924416;815.6;NaN;;4.64;12.226105;209.8;14 / 20;217522;2022-10-25 12:55:19:354
14.4616;-0.7433;1.1575;8.4043;-2.4091;-4.4424;5.1324;4.3461;3.802;-2.1028;1.1055;0.8676;9622.0;-36.21;-10.65;0.69;220.6;14.22;-117.86;5.0;983.08;52.813;35.956627;-83.924416;815.84;NaN;;4.72;12.226105;202.1;15 / 20;218022;2022-10-25 12:55:19:854
7.9675;-2.0052;-3.894;9.2796;0.9246;-3.034;-0.6536;-4.9534;-0.5514;-0.6619;-0.223;2.4012;10629.0;-35.25;-14.51;-4.16;230.94;-5.41;-108.11;5.0;983.08;52.052;35.956627;-83.924416;815.84;NaN;;4.72;12.226105;202.1;15 / 20;218523;2022-10-25 12:55:20:355
16.0286;-2.5427;-1.2975;9.3154;-1.6943;-2.554;4.786;1.2594;1.3223;0.3786;0.9659;-2.0977;8740.0;-40.28;0.58;-2.14;235.01;23.63;-115.31;5.0;983.08;51.455;35.956615;-83.92443;814.15;NaN;;4.72;12.226105;223.0;15 / 20;219022;2022-10-25 12:55:20:854
13.8691;-1.9836;-3.14;9.4442;0.8628;-2.4967;-1.8022;-5.0308;-1.1036;-0.2676;-0.5367;2.3544;19517.0;-35.74;-15.32;-8.04;234.55;-5.05;-104.81;5.0;983.05;51.338;35.956615;-83.92443;814.15;NaN;;4.72;12.226105;223.0;15 / 20;219522;2022-10-25 12:55:21:354
14.0653;-1.2891;-1.4605;8.8335;-3.1186;-2.9006;6.101;2.4336;1.8074;0.2925;0.7748;-1.5622;10135.0;-38.72;1.31;-4.22;234.94;28.84;-117.15;5.0;983.09;53.429;35.956608;-83.92444;813.52;NaN;;4.61;12.226105;226.2;15 / 20;220022;2022-10-25 12:55:21:854
12.7965;-2.0722;-3.341;9.1013;2.9416;-2.1641;-3.1443;-6.6635;-1.0738;-0.1125;-0.3079;0.7905;23748.0;-34.82;-10.89;-8.61;266.93;-17.46;-103.38;5.0;983.05;52.514;35.956608;-83.92444;813.52;NaN;;4.61;12.226105;226.2;15 / 20;220522;2022-10-25 12:55:22:354
14.9309;1.0941;-0.5255;8.2411;-4.0309;-3.465;8.1841;3.6506;3.475;0.6635;0.9325;-1.5835;10595.0;-38.23;4.2;-2.55;239.57;24.27;-112.8;5.0;983.1;52.285;35.9566;-83.92445;812.39;NaN;;4.82;12.226105;226.8;15 / 20;221023;2022-10-25 12:55:22:855
7.5544;-2.8322;-4.6588;8.9068;3.2046;-2.5633;-1.9876;-7.9403;0.0635;0.2283;-0.3799;2.1128;20552.0;-36.43;-5.16;-5.27;291.32;-16.46;-102.19;5.0;983.07;52.113;35.9566;-83.92445;812.39;NaN;;4.82;12.226105;226.8;15 / 20;221521;2022-10-25 12:55:23:353
14.1407;-2.0088;-2.4897;9.112;-2.5109;-2.615;5.9299;3.4974;0.74;0.615;0.0331;-1.0936;14388.0;-39.17;-7.39;-3.94;221.6;19.56;-108.93;5.0;983.08;51.751;35.956593;-83.92447;812.45;NaN;;5.0;12.226105;229.3;15 / 20;222021;2022-10-25 12:55:23:853
8.5804;-0.6416;-2.9004;9.4036;-0.4751;-2.7416;3.0335;-0.0698;-1.8171;-1.8262;-0.1886;1.3586;15630.0;-41.4;-15.66;-5.19;234.01;-5.9;-106.68;5.0;983.09;51.991;35.956593;-83.92447;812.45;NaN;;5.0;12.226105;229.3;15 / 20;222522;2022-10-25 12:55:24:354
15.2707;-1.2891;-0.7995;9.5014;-0.79;-2.2956;5.8952;2.5644;0.4555;0.2708;1.1677;-1.6136;20704.0;-43.41;-2.44;-8.06;253.75;4.62;-103.58;5.0;983.07;52.185;35.956585;-83.92448;810.86;NaN;;4.46;12.226105;231.8;15 / 20;223022;2022-10-25 12:55:24:854
11.3336;-2.1691;-2.4981;9.3924;-1.3616;-2.4695;1.9528;-0.8818;-0.1453;-1.278;-0.3083;2.2388;34451.0;-36.68;-13.2;-11.1;246.58;-8.21;-102.15;5.0;983.09;50.64;35.956585;-83.92448;810.86;NaN;;4.46;12.226105;231.8;15 / 20;223522;2022-10-25 12:55:25:354
16.0609;-3.9503;-0.8572;8.5905;-3.6632;-2.9924;5.836;3.9707;4.2849;1.4595;0.5333;-1.5032;7518.0;-40.09;10.39;-6.43;257.72;21.93;-109.21;5.0;983.08;51.775;35.95658;-83.9245;810.92;NaN;;4.72;12.226105;235.6;15 / 20;224022;2022-10-25 12:55:25:854
8.8678;0.291;-0.8752;9.6635;1.4175;-0.8816;-2.1524;-3.402;-2.3204;-0.1315;-0.5472;2.5475;54041.0;-33.62;-13.99;-15.47;243.07;-8.31;-95.21;5.0;983.06;52.866;35.95658;-83.9245;810.92;NaN;;4.72;12.226105;235.6;15 / 20;224523;2022-10-25 12:55:26:355
13.0071;-1.6005;-0.6488;8.719;-3.7114;-2.5249;1.8559;4.1397;2.6125;-0.2756;0.3938;0.3658;23299.0;-40.87;-1.46;-9.96;239.52;19.96;-108.28;5.0;983.06;50.334;35.956577;-83.92451;807.96;NaN;;5.0;12.226105;250.5;15 / 20;225022;2022-10-25 12:55:26:854
5.7936;-2.3629;-3.0921;9.5951;1.8411;-0.845;-4.0773;-3.992;-1.9613;0.1617;-0.2787;-0.2047;58945.996;-38.21;-1.63;-15.73;284.21;-10.82;-95.03;5.0;983.07;51.49;35.956577;-83.92451;807.96;NaN;;5.0;12.226105;250.5;15 / 20;225521;2022-10-25 12:55:27:353
11.19;0.2465;-1.3167;8.6942;-3.1406;-3.2738;0.2132;4.363;2.3351;-0.0164;0.0038;0.1046;21091.0;-39.75;1.01;-11.72;249.46;18.09;-110.26;5.0;983.08;51.099;35.956573;-83.92452;808.18;NaN;;4.5;12.226105;244.9;15 / 20;226022;2022-10-25 12:55:27:854
8.1844;-4.0807;-3.6018;9.2268;3.1938;-0.915;-1.7735;-5.9391;-1.6956;1.0672;0.068;-1.6708;50231.0;-39.21;0.9;-12.38;309.89;-19.01;-95.66;5.0;983.05;49.76;35.956573;-83.92452;808.18;NaN;;4.5;12.226105;244.9;15 / 20;226522;2022-10-25 12:55:28:354
15.9673;-0.7349;-0.6153;7.6424;-4.1398;-4.5417;2.5558;6.1941;3.4857;-1.114;0.0279;0.8869;20093.0;-39.96;0.41;-8.89;245.95;24.97;-120.72;5.0;983.07;48.562;35.95657;-83.92454;809.8;NaN;;5.36;12.226105;241.9;14 / 20;227022;2022-10-25 12:55:28:854
4.7824;-3.414;-3.2776;9.3822;2.4252;-1.5044;-4.3074;-5.8659;-1.9973;-0.6465;-0.4102;1.1242;47075.0;-37.43;-1.2;-12.52;302.73;-19.25;-95.88;5.0;983.06;49.681;35.95657;-83.92454;809.8;NaN;;5.36;12.226105;241.9;14 / 20;227523;2022-10-25 12:55:29:355
16.3241;1.4258;2.4754;8.4281;-3.5316;-3.5587;1.5082;6.144;0.6639;-2.4099;0.3151;0.7107;24202.0;-38.48;-3.81;-11.76;237.42;19.42;-107.52;5.0;983.09;50.071;35.956566;-83.924545;809.45;NaN;;4.68;12.226105;250.5;14 / 20;228021;2022-10-25 12:55:29:853
10.1342;-3.1304;-5.103;9.149;2.3827;-2.6057;-2.8144;-5.4697;-0.3171;0.3647;-0.2557;1.5157;27384.0;-37.48;-6.41;-8.49;297.83;-23.8;-102.59;5.0;983.07;51.522;35.956566;-83.924545;809.45;NaN;;4.68;12.226105;250.5;14 / 20;228522;2022-10-25 12:55:30:354
12.842;1.4964;0.5614;8.6923;-2.2258;-3.9573;0.2553;3.7101;5.7729;-0.4171;-0.7477;0.6987;19345.0;-38.61;2.33;-8.01;257.13;13.12;-114.48;5.0;983.12;51.686;35.95656;-83.92456;807.88;NaN;;4.64;12.226105;257.4;14 / 20;229021;2022-10-25 12:55:30:853
8.9611;-2.0806;-2.6755;9.5321;2.2989;0.1586;-2.3885;-3.9225;-4.0535;-0.4389;-0.1547;0.053;57377.0;-38.01;12.24;-11.4;332.06;-12.63;-89.44;5.0;983.06;52.491;35.95656;-83.92456;807.88;NaN;;4.64;12.226105;257.4;14 / 20;229522;2022-10-25 12:55:31:354
14.5047;-0.0538;0.8596;8.2303;-3.3789;-4.1251;0.5759;2.603;3.4655;-1.4325;1.4253;0.1255;25418.0;-38.27;4.88;-15.71;261.75;20.15;-116.62;5.0;983.07;52.191;35.95656;-83.924576;807.14;NaN;;4.79;12.226105;255.3;14 / 20;230023;2022-10-25 12:55:31:855
7.5245;-2.8071;-3.827;8.6394;4.1958;-1.9813;-1.7802;-7.1367;-1.6182;0.4006;-0.3767;-1.4237;30832.0;-37.91;6.92;-9.94;319.31;-25.33;-102.92;5.0;983.06;50.445;35.95656;-83.924576;807.14;NaN;;4.79;12.226105;255.3;14 / 20;230521;2022-10-25 12:55:32:353
9.8279;1.9992;-0.9829;8.3891;-2.6674;-4.3219;0.464;4.8347;3.8868;0.135;-0.2818;0.4769;14042.0;-39.62;-4.61;-6.67;243.14;12.16;-115.33;5.0;983.07;51.356;35.95655;-83.92458;806.4;NaN;;5.18;12.226105;239.3;14 / 20;231022;2022-10-25 12:55:32:854
7.8287;-2.4514;-4.0926;9.2463;3.0522;-1.1665;-2.4029;-5.317;-2.9665;0.7359;0.209;-1.3632;32476.998;-39.11;4.41;-11.34;314.3;-18.13;-97.19;5.0;983.06;50.233;35.95655;-83.92458;806.4;NaN;;5.18;12.226105;239.3;14 / 20;231522;2022-10-25 12:55:33:354
10.7279;1.9558;-1.3872;7.7922;-3.79;-4.5922;1.8991;4.9283;2.8467;-0.2672;-0.3382;1.0348;16086.0;-40.03;1.24;-11.33;253.93;16.1;-115.22;5.0;983.1;50.504;35.956547;-83.9246;804.84;NaN;;4.82;12.226105;243.0;14 / 20;232022;2022-10-25 12:55:33:854
5.1401;-3.2764;-3.2907;9.0336;3.4935;-1.5359;-1.1594;-6.8677;-1.2534;2.5049;-0.0892;-2.6085;25001.0;-38.38;9.26;-9.69;322.51;-20.87;-99.65;5.0;983.08;52.024;35.956547;-83.9246;804.84;NaN;;4.82;12.226105;243.0;14 / 20;232522;2022-10-25 12:55:34:354
9.5895;2.7102;-1.4016;8.0131;-4.1055;-3.8865;2.0483;5.0001;1.6935;-0.454;-0.3227;1.4053;14574.0;-40.09;-2.96;-9.06;237.71;24.75;-115.87;5.0;983.09;51.034;35.956547;-83.92461;804.81;NaN;;5.15;12.226105;253.5;14 / 20;233021;2022-10-25 12:55:34:853
5.5376;-3.8414;-3.268;9.3025;2.8007;-1.3379;0.2652;-6.1143;-0.0348;0.1153;-0.1598;-0.6407;14031.0;-40.29;11.89;-8.64;300.96;3.88;-99.81;5.0;983.08;51.175;35.956547;-83.92461;804.81;NaN;;5.15;12.226105;253.5;14 / 20;233521;2022-10-25 12:55:35:353
10.8619;2.2014;-0.5973;7.4265;-5.3263;-3.5564;5.8936;5.6763;2.0582;-0.2572;-0.306;1.9374;5799.0;-37.93;-9.11;-10.78;231.53;17.7;-109.56;5.0;983.12;49.393;35.956543;-83.92462;805.37;NaN;;4.79;12.226105;249.3;14 / 20;234022;2022-10-25 12:55:35:854
4.0962;-4.1812;-1.8996;8.4777;4.5095;-1.9907;-2.9631;-8.7546;-0.0012;1.5102;-0.2212;-1.8051;5354.0;-37.01;8.98;-10.99;321.85;-12.79;-93.44;5.0;983.05;57.483;35.956543;-83.92462;805.37;NaN;;4.79;12.226105;249.3;14 / 20;234522;2022-10-25 12:55:36:354
11.8448;-0.2393;-1.7333;8.1822;-4.683;-2.7002;3.6948;4.2488;0.3708;-1.5018;-0.4866;3.1191;3357.0;-35.64;-15.0;-9.21;215.15;28.52;-108.26;5.0;983.09;50.4;35.956535;-83.92464;805.11;NaN;;5.18;12.226105;235.7;14 / 20;235022;2022-10-25 12:55:36:854
5.2131;-4.282;-1.8769;8.3489;4.9273;-1.4794;-0.5423;-10.1462;-0.2279;2.6516;-0.2301;-2.8;4218.0;-38.91;8.87;-11.61;322.54;-8.43;-88.87;5.0;983.07;63.745;35.956535;-83.92464;805.11;NaN;;5.18;12.226105;235.7;14 / 20;235523;2022-10-25 12:55:37:355
10.619;1.6591;-0.1292;8.6316;-3.3662;-3.2148;5.2082;1.7887;-3.8758;-2.4009;1.3565;4.1105;4330.0;-31.11;-25.65;-4.14;203.25;20.08;-110.43;5.0;983.11;55.55;35.95653;-83.92466;807.48;NaN;;4.82;12.226105;241.8;14 / 20;236022;2022-10-25 12:55:37:854
12.3165;-1.4916;-0.4801;9.2548;2.7993;-1.638;0.7858;-5.8615;-0.4463;2.8365;-0.1755;-2.7908;1205.0;-39.82;9.6;-8.1;323.99;-16.59;-100.04;5.0;983.1;59.92;35.95653;-83.92466;807.48;NaN;;4.82;12.226105;241.8;14 / 20;236522;2022-10-25 12:55:38:354
0.9338;4.8039;7.1584;0.5871;2.7786;9.3864;0.1389;2.5119;-4.4167;-0.4641;0.3456;0.0754;2334.0;0.45;-28.33;-17.33;185.21;-17.83;-6.61;5.0;983.1;51.272;35.956528;-83.92467;807.73;NaN;;4.64;12.226105;247.5;14 / 20;237022;2022-10-25 12:55:38:854
1.7812;3.3697;4.9175;1.9251;5.0874;8.1598;-0.8271;-1.807;0.7972;1.2697;-0.0594;0.5374;15776.0;25.67;-17.89;-29.85;259.52;-24.8;-9.0;5.0;983.09;50.929;35.956528;-83.92467;807.73;NaN;;4.64;12.226105;247.5;14 / 20;237523;2022-10-25 12:55:39:355
12.6685;-2.0279;1.3753;8.034;-3.9741;-3.9789;4.3366;0.927;5.4213;-1.8361;-1.5512;1.9207;3148.0;-12.94;-20.34;-20.06;225.55;12.16;-99.91;5.0;983.14;60.588;35.95652;-83.92468;809.55;NaN;;4.72;12.226105;250.7;15 / 20;238022;2022-10-25 12:55:39:854
8.292;-2.7652;-2.5977;9.2928;-0.5884;3.0771;2.5764;-4.1059;-3.5346;2.867;0.9435;-1.2008;1604.0;-30.0;16.61;-15.79;338.95;3.44;-71.68;5.0;983.09;63.507;35.95652;-83.92468;809.55;NaN;;4.72;12.226105;250.7;15 / 20;238522;2022-10-25 12:55:40:354
11.1984;-1.3513;1.8302;8.3749;-3.7853;-3.4209;2.388;1.4235;4.261;-0.9696;-1.933;1.5012;3763.0;-21.88;6.53;-26.12;274.22;22.71;-112.22;5.0;983.12;56.989;35.956516;-83.9247;806.45;NaN;;4.32;12.226105;259.1;15 / 20;239022;2022-10-25 12:55:40:854
7.7426;-3.8856;-2.7437;9.3591;2.9245;0.1591;-0.783;-7.2397;-2.6995;2.0508;0.2327;-2.398;1819.0;-25.71;16.05;-12.6;319.63;2.29;-89.35;5.0;983.07;66.787;35.956516;-83.9247;806.45;NaN;;4.32;12.226105;259.1;15 / 20;239522;2022-10-25 12:55:41:354
11.6725;1.4246;0.0706;8.821;-3.057;-3.0026;3.1241;1.6092;0.3583;-1.3148;-0.5508;2.6194;1297.0;-27.58;-4.05;-17.14;259.46;0.25;-101.07;5.0;983.11;56.784;35.95651;-83.924706;807.79;NaN;;4.0;12.226105;232.6;15 / 20;240022;2022-10-25 12:55:41:854
8.8056;-3.9431;-1.8051;9.4471;2.219;-1.4137;-0.6467;-6.2853;-0.1241;2.6413;-0.1668;-2.554;1066.0;-29.21;16.8;-9.3;320.95;4.52;-95.96;5.0;983.1;61.35;35.95651;-83.924706;807.79;NaN;;4.0;12.226105;232.6;15 / 20;240522;2022-10-25 12:55:42:354
12.1466;-0.5112;-4.4889;9.3222;-2.405;-1.8664;5.4752;-0.0759;-2.8801;-3.7183;0.8843;2.4235;1206.0;-36.04;-8.46;-13.39;231.45;14.2;-101.32;5.0;983.12;47.696;35.956505;-83.92472;806.97;NaN;;3.85;12.226105;244.2;15 / 20;241022;2022-10-25 12:55:42:854
7.9579;-2.8956;-2.1906;9.6438;1.4805;-0.9878;-0.3392;-4.9623;-0.3983;3.0929;-0.0236;-2.3843;1169.0;-35.96;15.21;-11.19;305.17;7.3;-96.29;5.0;983.07;58.146;35.956505;-83.92472;806.97;NaN;;3.85;12.226105;244.2;15 / 20;241522;2022-10-25 12:55:43:354
9.0042;-0.5997;-0.9685;9.3782;-1.4815;-2.4547;3.4254;0.5063;-1.0729;-0.761;-0.5929;1.5642;1149.0;-38.16;-11.83;-13.18;232.69;8.69;-104.67;5.0;983.12;48.638;35.956505;-83.924736;806.89;NaN;;4.18;12.226105;268.9;15 / 20;242022;2022-10-25 12:55:43:854
7.6481;-3.3147;-3.4427;9.7107;0.9975;-0.9368;1.5442;-4.238;-0.8537;2.5055;0.4439;-2.8639;972.0;-39.28;13.18;-9.43;322.89;-5.84;-95.51;5.0;983.1;59.292;35.956505;-83.924736;806.89;NaN;;4.18;12.226105;268.9;15 / 20;242522;2022-10-25 12:55:44:354
10.6825;0.0335;-2.2349;8.6729;-3.3906;-3.0751;0.6496;2.9905;0.6086;-0.4599;-0.4986;2.1416;1155.0;-39.71;-10.11;-12.92;239.11;5.56;-104.18;5.0;983.1;50.719;35.956497;-83.92474;807.38;NaN;;4.64;12.226105;243.2;15 / 20;243022;2022-10-25 12:55:44:854
7.3199;-2.9782;-2.8502;9.7733;0.0387;-0.8076;2.87;-2.6201;-0.4079;1.0845;1.1537;-2.4761;994.0;-40.89;10.8;-8.7;269.3;16.85;-105.42;5.0;983.11;53.579;35.956497;-83.92474;807.38;NaN;;4.64;12.226105;243.2;15 / 20;243523;2022-10-25 12:55:45:355
9.1382;-1.1539;-0.2656;9.0084;-2.4773;-2.9802;1.0211;1.5898;1.6905;-2.0084;-0.0811;1.3999;1366.0;-39.49;-8.34;-14.23;240.94;7.47;-103.01;5.0;983.12;49.748;35.95649;-83.92476;808.05;NaN;;4.93;12.226105;235.3;14 / 20;244021;2022-10-25 12:55:45:853
11.7838;-2.7233;-2.6755;9.4828;-1.7647;-1.77;3.2605;1.3197;2.1739;2.48;0.4667;-2.1348;1354.0;-39.09;17.66;-5.48;312.27;10.37;-100.57;5.0;983.09;50.915;35.95649;-83.92476;808.05;NaN;;4.93;12.226105;235.3;14 / 20;244523;2022-10-25 12:55:46:355
8.7936;-0.3772;-2.6372;9.1973;-1.9008;-2.8227;1.4133;-0.3044;0.2851;-0.227;-0.7623;2.1154;1429.0;-40.97;-7.74;-12.02;237.86;11.18;-107.06;5.0;983.1;50.036;35.956486;-83.924774;808.92;NaN;;4.79;12.226105;239.3;14 / 20;245022;2022-10-25 12:55:46:854
15.0577;-4.4339;-1.7979;9.6495;1.6478;-0.5848;4.1233;-6.1118;-1.6057;2.5785;0.8534;-3.5596;1317.0;-38.89;15.53;-5.81;294.8;14.08;-102.36;5.0;983.06;50.568;35.956486;-83.924774;808.92;NaN;;4.79;12.226105;239.3;14 / 20;245522;2022-10-25 12:55:47:354
12.6673;-2.3031;-2.7497;9.403;-1.0714;-2.5701;0.8328;-1.2388;-0.9727;-1.9288;0.0822;3.7531;1366.0;-36.3;-13.07;-10.29;264.62;-19.18;-106.38;5.0;983.06;51.793;35.95648;-83.92479;808.61;NaN;;5.29;12.226105;243.8;15 / 20;246022;2022-10-25 12:55:47:854
14.6483;-6.3;-1.567;9.6961;-0.1842;-1.457;6.4375;-6.0845;0.8293;3.5671;0.347;-3.8088;1178.0;-37.67;18.92;-2.83;285.23;22.37;-111.13;5.0;983.08;62.979;35.95648;-83.92479;808.61;NaN;;5.29;12.226105;243.8;15 / 20;246522;2022-10-25 12:55:48:354
