ACCELEROMETER X (m/s²);ACCELEROMETER Y (m/s²);ACCELEROMETER Z (m/s²);GRAVITY X (m/s²);GRAVITY Y (m/s²);GRAVITY Z (m/s²);LINEAR ACCELERATION X (m/s²);LINEAR ACCELERATION Y (m/s²);LINEAR ACCELERATION Z (m/s²);GYROSCOPE X (rad/s);GYROSCOPE Y (rad/s);GYROSCOPE Z (rad/s);LIGHT (lux);MAGNETIC FIELD X (μT);MAGNETIC FIELD Y (μT);MAGNETIC FIELD Z (μT);ORIENTATION Z (azimuth °);ORIENTATION X (pitch °);ORIENTATION Y (roll °);PROXIMITY (i);ATMOSPHERIC PRESSURE (hPa);SOUND LEVEL (dB);LOCATION Latitude : ;LOCATION Longitude : ;LOCATION Altitude ( m);LOCATION Altitude-google ( m);LOCATION Altitude-atmospheric pressure ( m);LOCATION Speed ( Kmh);LOCATION Accuracy ( m);LOCATION ORIENTATION (°);Satellites in range;Time since start in ms ;YYYY-MO-DD HH-MI-SS_SSS
0.6308;2.9339;9.3694;-0.047;4.6454;8.6364;0.8425;-1.0668;1.3176;-0.4605;0.12;-0.1578;71875.0;-11.96;-6.43;-41.4;40.91;-28.27;0.31;5.0;982.57;51.704;35.95508;-83.929115;838.81;NaN;;5.33;19.223797;29.4;15 / 21;9;2022-10-25 13:07:08:196
-0.6787;1.5718;10.2981;-0.8067;2.7407;9.3813;-0.6457;-1.2842;3.3508;0.8023;0.196;0.7267;60759.0;-13.05;-4.59;-53.94;60.55;-16.23;4.92;5.0;982.59;53.276;35.955097;-83.92911;840.18;NaN;;5.69;17.135893;47.1;15 / 21;510;2022-10-25 13:07:08:697
-0.9733;0.4262;11.9225;-1.8734;2.3739;9.3287;-0.8861;-2.0168;2.3983;0.9542;-2.5466;-0.5546;71584.0;-4.12;-8.78;-54.3;74.44;-15.3;14.52;5.0;982.57;52.594;35.955097;-83.92911;840.18;NaN;;5.69;17.135893;47.1;15 / 21;1010;2022-10-25 13:07:09:197
-0.1496;1.1097;11.2511;-0.8943;2.8421;9.3431;0.414;-0.8137;1.7771;-0.2709;1.1209;0.6403;47964.0;-14.33;-16.82;-42.51;98.23;-19.03;0.88;5.0;982.57;55.404;35.95511;-83.929085;839.48;NaN;;5.44;15.191374;66.7;16 / 21;1510;2022-10-25 13:07:09:697
-1.8099;0.9781;9.1202;-3.2808;1.6358;9.0956;-1.071;-2.1304;3.5867;0.0234;0.4303;-0.9067;79267.0;-4.01;-7.44;-42.0;91.71;-9.6;19.83;5.0;982.56;56.03;35.95511;-83.929085;839.48;NaN;;5.44;15.191374;66.7;16 / 21;2009;2022-10-25 13:07:10:196
-2.5259;1.7046;5.6082;-4.3336;1.6386;8.6432;-0.765;-0.7339;4.307;0.7374;-0.0387;0.5457;90466.0;3.62;-0.49;-41.29;66.54;-9.62;26.63;5.0;982.52;56.991;35.955116;-83.92907;838.7;NaN;;5.4;14.214265;68.6;16 / 21;2509;2022-10-25 13:07:10:696
-1.3597;2.3629;6.3275;-2.7986;2.1091;9.1591;-0.0566;-2.2761;3.0316;0.1885;-0.3074;-0.0088;91850.0;3.6;-4.43;-42.64;67.26;-11.5;19.48;5.0;982.55;54.008;35.955116;-83.92907;838.7;NaN;;5.4;14.214265;68.6;16 / 21;3010;2022-10-25 13:07:11:197
-1.1503;1.6914;6.3012;-2.5129;2.6541;9.1001;1.3707;-1.8641;0.8031;1.2992;-0.1613;-0.4268;79827.0;-0.28;-4.99;-44.68;59.96;-15.7;15.44;5.0;982.55;50.301;35.955128;-83.92906;832.93;NaN;;5.69;12.535144;66.5;17 / 21;3510;2022-10-25 13:07:11:697
-0.856;5.17;6.9607;-1.5243;1.9087;9.4976;0.0115;-1.2984;3.9833;-0.2455;-0.2345;0.0651;67243.0;-7.61;-10.56;-43.93;93.09;-13.61;10.64;5.0;982.57;57.642;35.955128;-83.92906;832.93;NaN;;5.69;12.535144;66.5;17 / 21;4010;2022-10-25 13:07:12:197
-0.0694;2.9602;5.9291;-2.4078;3.6247;8.7883;1.5913;-1.6268;-1.3821;0.6868;0.4296;0.8554;63977.996;-9.15;-10.8;-45.24;75.94;-19.94;10.23;5.0;982.56;52.003;35.955135;-83.929054;824.53;NaN;;5.33;12.226105;65.7;17 / 21;4510;2022-10-25 13:07:12:697
-1.4964;4.3131;8.0477;-0.8313;3.5381;9.1083;0.8368;0.3366;0.4688;-0.211;-0.0805;-0.0356;66026.0;-8.06;-15.38;-43.52;86.07;-20.45;6.62;5.0;982.61;51.695;35.955135;-83.929054;824.53;NaN;;5.33;12.226105;65.7;17 / 21;5009;2022-10-25 13:07:13:196
-0.297;3.1053;2.3174;-0.2594;6.3309;7.4848;0.8515;-3.323;-3.0039;1.5296;-0.1991;1.1051;59377.0;-14.98;-12.32;-46.5;64.5;-28.37;7.92;5.0;982.53;51.014;35.955147;-83.92905;821.76;NaN;;5.33;12.226105;59.8;18 / 21;5509;2022-10-25 13:07:13:696
-1.3178;4.6122;8.8343;-0.0907;4.2793;8.8233;-0.8597;0.3873;-1.8732;0.1514;-0.0063;-0.1536;45711.0;-21.86;-15.75;-51.07;70.99;-25.87;0.59;5.0;982.6;52.135;35.955147;-83.92905;821.76;NaN;;5.33;12.226105;59.8;18 / 21;6011;2022-10-25 13:07:14:198
0.6667;4.9259;8.2023;-0.2186;6.3798;7.4445;0.4683;-1.9297;-2.4872;0.6413;0.3366;0.3605;55961.996;-18.34;-24.53;-53.61;51.12;-40.58;1.68;5.0;982.56;50.276;35.95516;-83.92904;820.5;NaN;;5.29;12.226105;55.8;18 / 21;6510;2022-10-25 13:07:14:697
-3.8701;5.1413;10.3017;-0.2372;5.5722;8.0663;-0.4874;0.1649;-2.4041;-0.5524;0.25;-0.7268;57044.0;-16.65;-31.14;-47.64;86.53;-33.61;-1.35;5.0;982.62;51.393;35.95516;-83.92904;820.5;NaN;;5.29;12.226105;55.8;18 / 21;7010;2022-10-25 13:07:15:197
-0.5662;5.5926;6.5839;-1.4006;6.39;7.3059;0.6361;-2.2608;-1.5849;0.8354;0.3031;0.508;64857.0;-12.6;-30.02;-42.22;97.39;-34.39;9.4;5.0;982.55;50.126;35.955173;-83.92903;820.59;NaN;;5.18;12.226105;58.3;18 / 21;7510;2022-10-25 13:07:15:697
1.9008;4.3322;10.2096;-0.273;4.3308;8.7943;-0.0485;0.7174;-1.7275;-0.1145;-1.8611;-1.3636;66776.0;-13.91;-27.71;-37.33;120.68;-26.21;1.78;5.0;982.59;51.338;35.955173;-83.92903;820.59;NaN;;5.18;12.226105;58.3;18 / 21;8010;2022-10-25 13:07:16:197
2.272;8.2609;4.0244;1.5797;8.5903;4.459;1.9833;-1.4209;-1.9392;0.3105;0.4178;-0.1744;17846.0;-23.79;-32.42;-21.34;60.24;-61.16;-19.51;5.0;982.55;53.783;35.955185;-83.929016;820.83;NaN;;5.33;12.226105;54.3;18 / 21;8510;2022-10-25 13:07:16:697
1.6196;8.0572;4.3143;1.1774;8.5318;4.6896;-0.7026;-1.5576;-0.7879;-0.014;-0.2133;-0.6747;14085.0;-25.41;-34.71;-13.37;89.01;-58.91;-22.18;5.0;982.58;52.455;35.955185;-83.929016;820.83;NaN;;5.33;12.226105;54.3;18 / 21;9010;2022-10-25 13:07:17:197
2.0124;6.8088;4.5081;0.8262;8.5488;4.7335;1.2894;-1.3924;-1.0806;0.0073;-0.4236;-0.6372;13839.0;-22.89;-35.89;-13.39;98.43;-60.66;-9.9;5.0;982.59;59.072;35.95519;-83.929;818.46;NaN;;4.9;12.226105;66.9;18 / 21;9509;2022-10-25 13:07:17:696
-0.7564;9.4567;8.1844;1.1356;7.5906;6.1044;-0.7719;-0.5533;-1.6525;-0.4213;-0.7141;-0.3887;13234.0;-23.03;-37.09;-12.79;112.47;-53.5;-10.43;5.0;982.61;50.237;35.95519;-83.929;818.46;NaN;;4.9;12.226105;66.9;18 / 21;10009;2022-10-25 13:07:18:196
1.0917;6.9129;3.5898;1.2253;8.1048;5.3833;0.2795;-1.7363;1.1157;0.8061;-0.0086;-0.1536;8764.0;-24.17;-38.7;-10.91;113.46;-55.51;-11.52;5.0;982.59;53.197;35.955193;-83.928986;819.08;NaN;;5.4;12.226105;77.9;18 / 21;10510;2022-10-25 13:07:18:697
-1.847;7.6014;5.4718;0.5611;7.6394;6.1233;-0.2161;-0.0134;-0.4904;0.3008;0.1894;0.4239;9265.0;-24.71;-40.03;-10.72;119.26;-51.98;-9.78;5.0;982.61;50.502;35.955193;-83.928986;819.08;NaN;;5.4;12.226105;77.9;18 / 21;11010;2022-10-25 13:07:19:197
0.9601;6.7573;5.4419;-0.4162;8.2566;5.275;0.2107;-1.6379;-0.6566;0.7158;0.2496;-0.1957;12648.0;-22.67;-39.56;-15.54;116.97;-52.43;-0.04;5.0;982.59;50.128;35.9552;-83.92898;818.62;NaN;;4.68;12.226105;61.8;18 / 21;11510;2022-10-25 13:07:19:697
0.1663;6.9236;6.8231;0.2647;7.7274;6.0322;0.8096;0.1922;-0.6385;0.4369;0.4584;0.2066;14996.0;-20.64;-37.95;-17.74;112.83;-52.0;-2.51;5.0;982.6;51.321;35.9552;-83.92898;818.62;NaN;;4.68;12.226105;61.8;18 / 21;12010;2022-10-25 13:07:20:197
3.3135;8.1266;5.2047;2.2793;8.726;3.8512;0.3055;-1.4138;-1.7039;0.3661;-0.1806;0.1427;11478.0;-28.95;-32.21;-18.28;52.03;-62.85;-30.62;5.0;982.6;53.598;35.955204;-83.92896;820.83;NaN;;5.04;12.226105;62.4;18 / 21;12509;2022-10-25 13:07:20:696
0.5925;8.8008;6.2354;2.0442;8.47;4.5;-0.6896;-1.2897;-1.2329;-0.3099;0.5195;-0.2313;10081.0;-33.32;-33.82;-15.71;57.3;-62.31;-33.27;5.0;982.64;60.2;35.955204;-83.92896;820.83;NaN;;5.04;12.226105;62.4;18 / 21;13009;2022-10-25 13:07:21:196
2.0136;7.5664;5.5986;1.7271;8.1811;5.1243;0.4744;-1.1298;-1.8103;-4.0E-4;0.0139;0.2944;13842.0;-31.99;-36.9;-21.0;81.76;-56.56;-15.56;5.0;982.59;59.561;35.955208;-83.92895;820.38;NaN;;4.0;12.226105;65.0;18 / 21;13509;2022-10-25 13:07:21:696
1.3597;7.9711;4.5176;1.979;7.9527;5.386;-0.1546;-0.8055;-1.1319;-0.0512;0.2986;-0.2378;11876.0;-33.41;-36.71;-16.78;88.81;-54.19;-20.17;5.0;982.63;59.787;35.955208;-83.92895;820.38;NaN;;4.0;12.226105;65.0;18 / 21;14009;2022-10-25 13:07:22:196
1.0056;7.2003;3.7636;1.5685;8.0461;5.3825;-0.2109;-0.7399;-0.9295;0.2569;-0.4108;0.0382;14559.0;-30.56;-33.09;-16.65;86.25;-55.13;-16.25;5.0;982.6;55.528;35.95521;-83.92893;819.57;NaN;;4.32;12.226105;66.5;18 / 21;14509;2022-10-25 13:07:22:696
1.2891;7.3714;4.4818;1.5112;7.8227;5.7177;0.179;-0.6303;-0.6642;-0.189;0.6505;-0.2129;11860.0;-32.1;-28.28;-14.36;79.6;-54.22;-23.41;5.0;982.64;62.848;35.95521;-83.92893;819.57;NaN;;4.32;12.226105;66.5;18 / 21;15009;2022-10-25 13:07:23:196
1.124;6.5264;3.1902;1.3685;8.0358;5.452;-0.7363;-1.1497;-1.356;0.5643;-0.569;0.2619;16556.0;-28.78;-27.43;-22.39;71.11;-55.03;-14.09;5.0;982.62;60.543;35.955215;-83.92892;816.98;NaN;;4.43;12.226105;76.9;18 / 21;15510;2022-10-25 13:07:23:697
0.923;6.8495;3.7684;1.9393;8.0079;5.3183;0.0118;-0.4195;0.4247;-0.2217;0.5094;-0.2433;11598.0;-32.98;-30.53;-20.03;66.67;-55.74;-25.36;5.0;982.64;60.495;35.955215;-83.92892;816.98;NaN;;4.43;12.226105;76.9;18 / 21;16010;2022-10-25 13:07:24:197
2.4215;6.8626;3.2177;2.4324;8.4125;4.4141;0.4324;-1.6167;-1.3802;-0.0571;-0.1406;0.162;11880.0;-32.19;-33.39;-19.31;63.12;-60.27;-25.52;5.0;982.62;60.584;35.955215;-83.9289;816.92;NaN;;4.36;12.226105;84.9;18 / 21;16510;2022-10-25 13:07:24:697
1.6938;6.7645;3.0858;2.359;8.6018;4.076;-0.3602;0.3859;0.0532;0.5217;-0.0863;0.1242;9648.0;-31.76;-35.46;-13.31;64.22;-60.73;-36.65;5.0;982.63;54.951;35.955215;-83.9289;816.92;NaN;;4.36;12.226105;84.9;18 / 21;17010;2022-10-25 13:07:25:197
3.8055;6.4534;1.0678;3.655;8.6025;2.1605;-0.4116;-0.9324;0.412;0.6936;0.2422;0.5504;6460.0;-30.75;-35.46;-6.13;56.1;-62.44;-53.66;5.0;982.64;59.073;35.955215;-83.928894;816.57;NaN;;4.75;12.226105;86.6;18 / 21;17510;2022-10-25 13:07:25:697
4.847;6.4304;1.0857;5.2465;8.1421;1.5331;-0.3255;-1.7333;-0.3473;0.266;0.5935;-0.4432;4188.0;-36.06;-28.11;1.09;40.71;-56.13;-73.71;5.0;982.67;55.349;35.955215;-83.928894;816.57;NaN;;4.75;12.226105;86.6;18 / 21;18009;2022-10-25 13:07:26:196
9.1585;8.6916;-0.8151;6.1288;7.6508;0.2711;-0.9677;-1.8167;-0.0023;0.3584;0.5028;-0.1425;2718.0;-39.13;-24.58;2.25;14.22;-51.28;-87.47;5.0;982.65;55.354;35.95522;-83.92888;816.45;NaN;;4.64;12.226105;80.3;18 / 21;18509;2022-10-25 13:07:26:696
13.171;11.0201;8.863;5.7704;6.1316;5.0277;-1.9009;0.5136;0.2948;0.4731;-0.2764;0.0102;3341.0;-39.68;-22.5;-7.13;77.74;-38.7;-48.93;5.0;982.7;63.081;35.95522;-83.92888;816.45;NaN;;4.64;12.226105;80.3;18 / 21;19010;2022-10-25 13:07:27:197
10.4192;-2.618;6.0476;5.909;6.1538;4.8358;-1.3429;-3.4257;-5.0364;-0.5375;-1.22;-0.0875;4848.0;-39.19;-24.22;-7.99;82.7;-40.48;-43.44;5.0;982.68;66.786;35.95522;-83.92886;815.92;NaN;;5.26;12.226105;86.0;18 / 21;19510;2022-10-25 13:07:27:697
16.7456;-4.3633;9.2088;8.959;-1.6218;3.6438;0.6294;3.1993;4.7571;0.0556;-0.5465;0.0023;9311.0;-43.12;-15.56;0.77;142.48;9.52;-67.87;5.0;982.62;61.7;35.95522;-83.92886;815.92;NaN;;5.26;12.226105;86.0;18 / 21;20010;2022-10-25 13:07:28:197
10.3905;-2.522;5.0468;7.8741;2.8874;5.0825;1.516;-5.4512;-0.0816;-1.4226;-0.7361;1.3048;8773.0;-43.09;-19.37;-0.28;107.87;-17.12;-57.16;5.0;982.7;60.272;35.95522;-83.92885;816.74;NaN;;5.0;12.226105;95.5;18 / 21;20510;2022-10-25 13:07:28:697
12.4624;-4.9881;6.1385;9.2056;-1.4373;3.0596;2.1524;2.7911;5.1709;0.1763;-0.4579;-0.4069;9470.0;-44.42;-11.76;4.43;141.52;13.73;-72.62;5.0;982.64;60.512;35.95522;-83.92885;816.74;NaN;;5.0;12.226105;95.5;18 / 21;21010;2022-10-25 13:07:29:197
11.4915;-0.2704;2.2277;8.3282;3.0985;4.1486;2.8977;-7.4386;-1.1163;-1.7301;-1.7085;2.1422;9300.0;-43.54;-17.34;4.73;100.33;-18.42;-63.52;5.0;982.71;64.713;35.955223;-83.92883;815.47;NaN;;5.11;12.226105;79.2;18 / 21;21510;2022-10-25 13:07:29:697
14.9513;-8.7601;8.1652;9.3454;-1.151;2.7403;6.9632;1.4275;7.3023;1.9931;0.3651;-1.4117;9472.0;-43.57;-8.04;14.61;139.45;18.8;-85.69;5.0;982.62;63.471;35.955223;-83.92883;815.47;NaN;;5.11;12.226105;79.2;18 / 21;22009;2022-10-25 13:07:30:196
8.7888;4.3513;12.8216;1.9764;7.8377;5.5529;1.9187;-2.124;-3.6082;-2.508;-0.9575;1.282;8651.0;-38.01;-21.51;-3.51;93.2;-42.22;-28.45;5.0;982.77;66.324;35.955227;-83.92882;815.1;NaN;;5.15;12.226105;72.3;18 / 21;22510;2022-10-25 13:07:30:697
4.0161;-0.25;8.6151;5.7323;2.3113;7.6138;-0.5335;1.8308;4.5812;-0.0649;1.0707;-0.0108;11098.0;-35.89;-24.77;-17.83;117.43;-20.43;-28.82;5.0;982.71;63.223;35.955227;-83.92882;815.1;NaN;;5.15;12.226105;72.3;18 / 21;23009;2022-10-25 13:07:31:196
10.9217;-3.821;4.4973;9.0021;-0.9109;3.7819;7.1755;-5.284;-1.3534;-4.4935;-1.9668;0.9982;11317.0;-39.24;-22.74;-12.56;124.54;-17.24;-49.38;5.0;982.78;52.565;35.95523;-83.9288;813.73;NaN;;5.11;12.226105;76.2;18 / 21;23509;2022-10-25 13:07:31:696
9.6709;-6.1684;2.3246;8.8678;-2.7377;3.1683;2.0525;-5.5889;-0.9123;3.704;1.0994;-0.269;13953.0;-45.84;-15.19;3.43;145.08;16.21;-70.34;5.0;982.72;67.818;35.95523;-83.9288;813.73;NaN;;5.11;12.226105;76.2;18 / 21;24010;2022-10-25 13:07:32:197
11.8436;-1.9872;-0.5016;9.3525;-2.7185;-1.1445;3.7989;-7.2739;-0.2334;-1.2596;-2.0039;3.056;11738.0;-42.0;-17.64;11.61;166.9;16.09;-96.98;5.0;982.79;50.943;35.95523;-83.92879;813.54;NaN;;5.04;12.226105;81.5;17 / 21;24510;2022-10-25 13:07:32:697
12.4708;-8.8534;-2.776;9.2932;-3.0974;-0.4607;6.4524;-10.1583;-2.948;5.72;0.7378;-3.1801;10119.0;-35.91;-5.87;31.01;121.0;18.41;-92.84;5.0;982.75;60.275;35.95523;-83.92879;813.54;NaN;;5.04;12.226105;81.5;17 / 21;25009;2022-10-25 13:07:33:196
14.9776;0.9864;-1.8458;9.6157;-0.0491;-1.9251;3.6212;-6.7214;-0.525;-1.5527;-1.2608;4.1491;10228.0;-36.09;-22.16;24.24;87.94;-31.51;-93.47;5.0;982.79;51.537;35.955235;-83.928764;816.22;NaN;;4.97;12.226105;80.9;16 / 21;25509;2022-10-25 13:07:33:696
9.2856;-4.4303;-4.8218;9.5415;-2.0588;-0.944;3.8967;-7.545;-2.987;4.6223;0.6294;-3.2854;10544.0;-35.68;-13.03;31.09;127.39;12.12;-95.65;5.0;982.76;61.488;35.955235;-83.928764;816.22;NaN;;4.97;12.226105;80.9;16 / 21;26010;2022-10-25 13:07:34:197
14.1299;2.9459;-2.4766;9.1761;-1.7547;-2.9818;8.4038;3.1297;0.5707;-1.3998;-0.6927;3.2942;10782.0;-34.82;-18.08;30.24;145.03;10.31;-108.0;5.0;982.77;47.816;35.95524;-83.92875;815.93;NaN;;4.68;12.226105;77.2;16 / 21;26510;2022-10-25 13:07:34:697
9.5429;-5.2502;-4.3537;9.2913;3.13;-0.2133;6.6517;-11.4443;-2.9678;2.8989;1.4592;-4.0129;9288.0;-30.9;-4.01;39.0;107.79;9.37;-101.89;5.0;982.74;55.717;35.95524;-83.92875;815.93;NaN;;4.68;12.226105;77.2;16 / 21;27009;2022-10-25 13:07:35:196
11.0548;2.8573;-0.4537;9.721;0.5552;-1.1677;2.2688;3.5033;1.3507;-2.1793;-0.6693;2.367;10071.0;-34.57;-21.21;29.21;127.37;-3.25;-96.85;5.0;982.78;51.689;35.95524;-83.928734;819.25;NaN;;4.82;12.226105;72.0;16 / 21;27509;2022-10-25 13:07:35:696
7.1333;-2.575;-3.979;9.6008;1.9365;-0.4944;2.4764;-4.1423;0.4021;2.4073;0.8275;-2.557;8380.0;-36.86;-11.16;30.96;122.35;6.23;-99.58;5.0;982.76;58.844;35.95524;-83.928734;819.25;NaN;;4.82;12.226105;72.0;16 / 21;28010;2022-10-25 13:07:36:197
9.2435;-0.0921;3.3494;9.7799;0.3718;0.6204;0.6278;2.2088;0.8107;-2.4885;-0.902;1.4578;12804.0;-37.69;-24.71;19.39;137.83;-2.17;-86.37;5.0;982.81;51.772;35.955242;-83.92873;818.78;NaN;;5.11;12.226105;69.3;17 / 21;28511;2022-10-25 13:07:36:698
6.8865;-1.3561;-6.3814;9.6585;1.6854;-0.2089;4.1742;-2.2759;-1.2014;0.2197;0.3633;-1.8785;12203.0;-37.46;-18.13;25.89;137.68;3.13;-101.06;5.0;982.79;63.298;35.955242;-83.92873;818.78;NaN;;5.11;12.226105;69.3;17 / 21;29009;2022-10-25 13:07:37:196
12.1681;2.1344;-1.051;8.4994;-2.7571;-4.0409;0.9294;0.9383;1.4652;-0.9387;-1.3129;2.2466;12287.0;-34.93;-21.41;27.53;139.3;1.69;-103.45;5.0;982.83;48.472;35.95525;-83.92871;820.74;NaN;;4.68;12.226105;69.2;17 / 21;29510;2022-10-25 13:07:37:697
7.8395;-3.8569;-4.3071;9.8002;0.2946;-0.1979;-0.3746;-6.4999;-4.3365;2.011;0.9635;-2.8817;10017.0;-35.25;-11.72;30.36;110.46;-1.72;-91.16;5.0;982.81;69.52;35.95525;-83.92871;820.74;NaN;;4.68;12.226105;69.2;17 / 21;30010;2022-10-25 13:07:38:197
9.8351;1.0439;1.0594;9.602;-1.2816;-1.5265;1.7727;0.2978;-0.2478;-1.3901;-1.1561;1.5777;13415.0;-37.39;-21.94;20.25;152.69;7.51;-99.03;5.0;982.86;50.233;35.955257;-83.928696;820.69;NaN;;4.93;12.226105;72.8;17 / 21;30510;2022-10-25 13:07:38:697
9.2088;-2.8226;-3.2752;9.7885;0.2937;0.5187;0.3106;-5.1281;-2.6721;2.9985;0.2707;-2.7087;9945.0;-37.48;-11.4;26.18;109.58;-1.72;-86.97;5.0;982.82;65.345;35.955257;-83.928696;820.69;NaN;;4.93;12.226105;72.8;17 / 21;31010;2022-10-25 13:07:39:197
10.9567;1.5144;-1.3896;9.1177;-2.0221;-2.9914;3.4048;-0.9333;0.0247;-0.6754;-0.5508;2.0921;12309.0;-35.27;-18.06;26.64;122.25;-6.63;-98.92;5.0;982.85;47.528;35.955257;-83.92869;821.11;NaN;;4.97;12.226105;74.0;17 / 21;31510;2022-10-25 13:07:39:697
9.6218;-4.4399;-2.7939;9.7726;-0.0084;-0.8159;1.8305;-5.6496;-0.8659;2.3708;1.0597;-3.1486;8043.0;-33.88;-7.13;30.86;104.07;0.05;-94.77;5.0;982.82;64.131;35.955257;-83.92869;821.11;NaN;;4.97;12.226105;74.0;17 / 21;32010;2022-10-25 13:07:40:197
12.131;3.4463;0.8477;9.4027;-1.1755;-2.5255;3.3088;4.1655;2.7465;-1.9449;-0.9827;2.4099;11678.0;-34.46;-17.85;26.29;144.23;6.88;-105.03;5.0;982.87;47.182;35.95526;-83.92867;821.23;NaN;;5.18;12.226105;72.1;17 / 21;32510;2022-10-25 13:07:40:697
8.3734;-4.2003;-3.8797;9.0549;3.5812;-1.1636;2.5291;-6.0;-1.4221;3.5575;0.7443;-3.7641;8976.0;-33.32;-7.74;31.41;111.7;3.46;-98.59;5.0;982.82;63.616;35.95526;-83.92867;821.23;NaN;;5.18;12.226105;72.1;17 / 21;33009;2022-10-25 13:07:41:196
12.1466;-0.1687;-1.1838;9.2995;-1.0114;-2.944;3.3609;2.2474;2.0362;-0.8586;-1.5103;3.0904;9535.0;-30.97;-14.83;31.39;133.15;5.92;-107.57;5.0;982.87;57.637;35.95527;-83.92866;820.34;NaN;;5.11;12.226105;64.7;17 / 21;33509;2022-10-25 13:07:41:696
5.6333;-3.9957;-6.7382;9.3789;2.8416;-0.3636;5.9923;-5.2438;-1.2099;2.3645;2.7526;-4.0185;7373.0;-28.69;-5.1;33.39;122.08;10.67;-112.37;5.0;982.81;65.489;35.95527;-83.92866;820.34;NaN;;5.11;12.226105;64.7;17 / 21;34009;2022-10-25 13:07:42:196
11.6127;-0.9924;4.9355;9.8013;-0.2598;-0.1944;3.6821;0.0146;2.3684;-3.1707;-1.6287;1.5706;12384.0;-33.21;-22.59;19.88;92.8;-34.52;-85.98;5.0;982.89;60.531;35.955276;-83.92864;820.29;NaN;;5.36;12.226105;64.2;18 / 21;34509;2022-10-25 13:07:42:696
9.9906;-3.4355;-4.2879;9.7825;0.3047;0.617;7.0681;-3.3168;1.3166;3.1445;0.9083;-2.9677;10105.0;-35.23;-12.34;23.57;148.73;13.9;-106.65;5.0;982.86;54.954;35.955276;-83.92864;820.29;NaN;;5.36;12.226105;64.2;18 / 21;35009;2022-10-25 13:07:43:196
11.7981;0.4681;-1.0343;8.7103;-2.6446;-3.6478;3.5677;0.1811;-0.2665;-1.1389;-1.204;2.6819;11226.0;-33.23;-16.78;22.03;135.08;-1.78;-100.18;5.0;982.91;58.382;35.95528;-83.928635;819.98;NaN;;4.82;12.226105;60.2;18 / 21;35509;2022-10-25 13:07:43:696
8.3435;-3.6233;-3.4953;9.5891;-1.0888;-1.742;2.3792;-5.5108;-2.2698;2.1636;1.4704;-3.0202;6049.0;-26.83;-4.8;32.48;107.79;6.37;-100.3;5.0;982.83;64.389;35.95528;-83.928635;819.98;NaN;;4.82;12.226105;60.2;18 / 21;36010;2022-10-25 13:07:44:197
9.5979;1.573;-1.4617;9.5984;0.5739;-1.9264;2.1994;-3.5995;-0.3418;-0.6036;-0.9614;2.3815;11044.0;-31.01;-17.51;24.36;132.4;-3.36;-101.35;5.0;982.88;49.554;35.955288;-83.92862;819.89;NaN;;4.82;12.226105;70.8;18 / 21;36510;2022-10-25 13:07:44:697
13.4608;-3.3099;-0.3855;9.1295;-1.5243;-3.2402;5.7392;-2.3063;1.1639;1.6743;1.9452;-2.4553;4832.0;-26.81;-7.46;31.56;120.68;8.94;-109.54;5.0;982.83;60.69;35.955288;-83.92862;819.89;NaN;;4.82;12.226105;70.8;18 / 21;37011;2022-10-25 13:07:45:198
10.442;2.9004;-1.986;9.6371;1.7171;-0.5902;0.6358;-5.0843;-2.1448;0.1237;-1.1543;1.7127;10513.0;-32.04;-17.57;24.11;96.14;-25.29;-90.18;5.0;982.88;49.706;35.955288;-83.9286;822.93;NaN;;5.04;12.226105;82.8;17 / 21;37511;2022-10-25 13:07:45:698
12.1298;-1.9729;-0.3652;9.2632;-1.548;-2.8228;5.2402;-0.3217;1.9733;0.5964;1.3423;-1.3612;6002.0;-31.63;-6.43;30.08;122.07;9.08;-106.95;5.0;982.83;51.984;35.955288;-83.9286;822.93;NaN;;5.04;12.226105;82.8;17 / 21;38010;2022-10-25 13:07:46:197
9.6637;0.9326;-1.6914;9.6921;1.2855;-0.762;3.1629;-0.1049;-0.6653;-0.3874;-0.9328;1.4326;10022.0;-34.84;-12.06;23.87;108.47;-7.53;-94.5;5.0;982.85;48.098;35.955288;-83.92858;823.93;NaN;;4.9;12.226105;69.9;17 / 21;38510;2022-10-25 13:07:46:697
13.1315;-2.1428;-0.9972;9.6334;-1.0426;-1.5104;6.9481;2.6497;0.892;-0.3909;1.3615;-1.1215;6039.0;-30.3;-4.95;29.83;125.79;13.95;-107.85;5.0;982.82;52.942;35.955288;-83.92858;823.93;NaN;;4.9;12.226105;69.9;17 / 21;39010;2022-10-25 13:07:47:197
12.9772;-1.1707;-0.8764;9.5923;1.8199;-0.9199;2.231;-2.297;-0.1794;0.1694;-0.6882;1.8076;9526.0;-34.39;-10.65;26.23;100.19;-10.69;-95.48;5.0;982.87;57.046;35.955296;-83.92857;823.57;NaN;;4.21;12.226105;61.9;17 / 21;39509;2022-10-25 13:07:47:696
10.9615;-3.5827;-2.0016;9.4984;-1.3317;-2.0438;7.802;1.5738;0.8953;-0.7836;0.8682;-1.0804;5748.0;-30.81;-0.81;32.18;122.76;16.66;-110.14;5.0;982.84;57.362;35.955296;-83.92857;823.57;NaN;;4.21;12.226105;61.9;17 / 21;40009;2022-10-25 13:07:48:196
14.0569;-1.8302;-1.203;9.505;2.4056;-0.1974;2.516;-5.3131;-2.8171;-1.4617;-1.2538;2.5907;9970.0;-35.42;-12.71;24.56;99.11;-14.2;-91.19;5.0;982.86;50.881;35.955296;-83.928566;822.89;NaN;;4.46;12.226105;63.7;17 / 21;40510;2022-10-25 13:07:48:697
15.6909;-6.1493;0.0132;8.8982;-2.2022;-3.4845;6.6303;1.8741;5.7736;3.1405;1.8299;-2.5865;6535.0;-28.95;-6.13;33.96;144.75;18.63;-121.79;5.0;982.82;52.847;35.955296;-83.928566;822.89;NaN;;4.46;12.226105;63.7;17 / 21;41009;2022-10-25 13:07:49:196
12.4935;1.0798;0.1412;9.7936;0.3825;0.3309;-0.0994;-6.0423;-4.1743;-3.5429;0.1973;2.7704;9327.0;-34.59;-11.77;27.51;83.6;-22.35;-93.74;5.0;982.91;56.084;35.955303;-83.92855;822.15;NaN;;4.75;12.226105;63.9;17 / 21;41510;2022-10-25 13:07:49:697
15.5785;-4.2855;0.5471;9.0984;-1.8114;-3.1793;6.7843;0.4526;2.1139;-0.2236;2.0766;-1.1179;7885.0;-31.26;-5.14;32.25;136.0;14.66;-116.33;5.0;982.87;53.751;35.955303;-83.92855;822.15;NaN;;4.75;12.226105;63.9;17 / 21;42009;2022-10-25 13:07:50:196
13.1399;-5.0755;-5.5316;9.2676;3.1939;-0.2855;-3.6067;-5.3641;-3.5835;-0.2774;-0.5676;0.7168;9771.0;-36.98;-9.71;26.36;83.46;-19.01;-91.76;5.0;982.9;60.808;35.955307;-83.92854;822.35;NaN;;4.79;12.226105;63.1;17 / 21;42510;2022-10-25 13:07:50:697
13.5362;0.5853;-2.0937;7.8986;-3.789;-4.4075;3.0913;5.1644;3.1717;-0.6385;0.5146;0.1125;6937.0;-30.11;-0.9;33.88;128.2;18.42;-115.28;5.0;982.9;60.665;35.955307;-83.92854;822.35;NaN;;4.79;12.226105;63.1;17 / 21;43009;2022-10-25 13:07:51:196
6.9691;-4.0448;-2.7078;8.9656;3.9561;0.3711;-2.3278;-6.9843;-4.5475;-0.9018;-0.8863;1.4954;9403.0;-32.85;-4.86;29.78;75.29;-23.79;-87.63;5.0;982.92;66.041;35.95531;-83.92853;821.82;NaN;;4.86;12.226105;65.1;17 / 21;43510;2022-10-25 13:07:51:697
19.2126;-2.3115;-1.4844;8.9968;-2.4871;-3.0069;2.8718;5.008;6.9463;1.2715;-0.308;0.1658;8884.0;-34.76;-8.46;29.06;138.41;14.69;-108.48;5.0;982.89;51.661;35.95531;-83.92853;821.82;NaN;;4.86;12.226105;65.1;17 / 21;44009;2022-10-25 13:07:52:196
8.6821;-2.8944;-2.26;9.6327;1.5663;-0.9638;-0.4738;-6.325;-1.5269;-0.4867;-0.7578;1.69;8971.0;-35.72;-5.1;28.5;81.33;-13.63;-93.73;5.0;982.93;59.867;35.95532;-83.92852;820.18;NaN;;4.43;12.226105;56.7;17 / 21;44510;2022-10-25 13:07:52:697
17.6121;-0.303;-2.1978;7.3563;-5.2333;-3.8299;3.9585;7.4705;2.0248;-0.4906;-0.2023;0.7548;5715.0;-30.69;4.43;32.31;119.74;22.06;-109.58;5.0;982.92;53.79;35.95532;-83.92852;820.18;NaN;;4.43;12.226105;56.7;17 / 21;45011;2022-10-25 13:07:53:198
6.5671;-5.9758;-2.9267;9.0299;3.4386;-1.6755;-3.0825;-8.5685;-1.1784;-0.9778;-0.2958;1.6384;7934.0;-31.88;1.61;32.14;64.42;-17.97;-97.96;5.0;982.89;65.67;35.95533;-83.92851;819.22;NaN;;4.64;12.226105;56.2;17 / 21;45510;2022-10-25 13:07:53:697
16.4857;-2.9806;-0.3999;8.0076;-4.5287;-3.397;3.7305;7.5263;1.4332;-0.4555;-0.2075;0.356;4947.0;-28.11;7.88;34.97;117.58;27.5;-112.99;5.0;982.92;57.407;35.95533;-83.92851;819.22;NaN;;4.64;12.226105;56.2;17 / 21;46010;2022-10-25 13:07:54:197
6.6556;-4.7031;-3.0535;9.2618;3.1637;-0.6173;-3.6165;-7.829;-2.7682;-0.5876;-0.4833;1.4073;7654.0;-35.96;0.15;32.36;67.43;-18.82;-93.81;5.0;982.93;67.096;35.95534;-83.9285;817.03;NaN;;4.64;12.226105;53.9;16 / 21;46510;2022-10-25 13:07:54:697
17.9103;-4.6469;-3.2154;6.7137;-6.382;-3.2197;6.578;9.1373;0.5497;1.019;-0.4531;-1.3223;3858.0;-29.34;9.36;35.27;136.49;40.6;-115.62;5.0;982.96;55.36;35.95534;-83.9285;817.03;NaN;;4.64;12.226105;53.9;16 / 21;47011;2022-10-25 13:07:55:198
7.5269;-4.0938;-7.5616;8.5255;4.5658;-1.6248;-5.5295;-9.5148;-0.2476;-0.299;-0.4568;-0.7092;7038.0;-30.96;10.22;27.06;39.23;-27.75;-100.79;5.0;982.96;65.631;35.955353;-83.92849;815.23;NaN;;4.82;12.226105;50.9;16 / 21;47510;2022-10-25 13:07:55:697
16.0597;-3.6078;2.9626;9.0459;-2.493;-2.8509;2.2442;1.5218;10.1508;1.6431;-1.1237;-0.1232;6796.0;-37.8;-5.23;31.14;120.72;11.14;-101.98;5.0;982.9;59.654;35.955353;-83.92849;815.23;NaN;;4.82;12.226105;50.9;16 / 21;48010;2022-10-25 13:07:56:197
6.8291;-3.3039;-3.2895;9.3156;2.9151;-0.9449;-3.2955;-5.3376;-4.908;0.1266;0.3935;-1.2845;7824.0;-37.67;-10.39;31.39;84.46;-17.29;-95.79;5.0;982.96;59.992;35.95536;-83.92848;813.86;NaN;;4.5;12.226105;57.2;16 / 21;48509;2022-10-25 13:07:56:696
12.3894;0.8644;1.0427;6.972;-3.1618;-6.129;4.912;4.5932;6.1199;-0.1075;-0.7888;0.636;7039.0;-33.73;-10.74;35.63;139.48;11.77;-116.19;5.0;982.92;52.438;35.95536;-83.92848;813.86;NaN;;4.5;12.226105;57.2;16 / 21;49009;2022-10-25 13:07:57:196
1.9789;-3.9861;-3.0655;8.9495;3.4745;-2.0013;-1.3478;-9.1798;-1.964;0.033;-0.7196;0.8261;6613.0;-32.51;-4.05;36.66;69.98;-20.75;-102.6;5.0;982.95;61.824;35.955368;-83.928474;814.04;NaN;;4.54;12.226105;49.5;16 / 21;49509;2022-10-25 13:07:57:696
12.9796;1.992;0.1041;6.6877;-5.5303;-4.5675;5.7135;5.8817;4.4579;-0.0532;-1.096;1.1654;5769.0;-30.62;3.08;36.54;151.15;34.33;-124.33;5.0;982.93;49.7;35.955368;-83.928474;814.04;NaN;;4.54;12.226105;49.5;16 / 21;50010;2022-10-25 13:07:58:197
3.7193;-4.3573;-3.0452;8.5397;4.0635;-2.5946;-4.6845;-8.5429;-0.568;0.1124;-0.5376;-0.603;6963.0;-32.94;4.46;32.83;70.73;-9.25;-97.62;5.0;982.97;63.236;35.955376;-83.92847;814.68;NaN;;4.14;12.226105;47.4;17 / 20;50510;2022-10-25 13:07:58:697
10.9938;1.3693;2.1176;9.1766;-1.7986;-2.9541;1.179;3.0808;1.949;-2.6326;-0.3036;2.2333;6690.0;-35.16;-3.77;33.0;89.49;-5.64;-105.49;5.0;982.96;49.54;35.955376;-83.92847;814.68;NaN;;4.14;12.226105;47.4;17 / 20;51010;2022-10-25 13:07:59:197
5.6752;-3.0799;-3.5264;9.0082;3.3925;-1.8746;-3.0639;-6.6348;-1.8178;0.4861;-0.3416;-1.389;7373.0;-34.73;-2.19;33.41;89.22;-3.62;-95.4;5.0;982.96;65.859;35.955383;-83.92845;814.27;NaN;;4.5;12.226105;59.6;17 / 21;51510;2022-10-25 13:07:59:697
12.3428;3.3637;-0.6799;8.7721;-3.1406;-3.0589;1.5887;2.8037;0.2001;-0.756;-0.5108;2.5811;7230.0;-32.85;0.98;34.74;119.84;18.68;-109.22;5.0;983.0;49.841;35.955383;-83.92845;814.27;NaN;;4.5;12.226105;59.6;17 / 21;52010;2022-10-25 13:08:00:197
4.8386;-3.6221;-3.0619;9.2244;3.1552;-1.0614;-1.7007;-7.065;-1.7532;0.9677;0.1665;-2.3767;6043.0;-28.31;11.74;36.88;72.08;2.4;-97.84;5.0;982.93;63.199;35.95539;-83.92844;812.87;NaN;;3.89;12.226105;49.1;16 / 21;52510;2022-10-25 13:08:00:697
10.9819;3.3374;-0.7325;9.3829;-1.6927;-2.295;1.8065;1.9433;0.1094;-0.5079;-0.4485;0.9135;7738.0;-38.55;-6.71;30.13;126.42;9.94;-103.74;5.0;983.0;53.597;35.95539;-83.92844;812.87;NaN;;3.89;12.226105;49.1;16 / 21;53010;2022-10-25 13:08:01:197
5.2011;-2.7556;-4.4578;9.5812;2.0726;0.2745;-1.8782;-5.1606;-2.4663;1.641;0.8464;-2.0876;7146.0;-35.4;1.01;32.53;76.48;-12.2;-88.36;5.0;982.96;64.127;35.9554;-83.92843;811.47;NaN;;3.92;12.226105;51.2;16 / 21;53509;2022-10-25 13:08:01:696
9.9715;1.0379;-0.0826;8.8145;-2.895;-3.1773;1.0292;3.3691;2.6483;-0.538;-0.6803;1.3966;8491.0;-38.57;-10.01;27.06;129.49;6.64;-102.13;5.0;982.98;52.347;35.9554;-83.92843;811.47;NaN;;3.92;12.226105;51.2;16 / 21;54009;2022-10-25 13:08:02:196
7.4659;-3.0957;-3.6715;9.7927;0.105;-0.5128;1.1257;-4.4496;-1.0038;2.4776;0.7742;-2.5124;6342.0;-34.97;-1.37;31.52;91.16;-0.61;-93.0;5.0;982.95;66.212;35.955406;-83.92842;811.73;NaN;;3.6;12.226105;53.6;16 / 21;54509;2022-10-25 13:08:02:696
10.2072;2.2899;-0.2106;9.596;-1.1299;-1.6762;0.149;2.4802;-0.301;-0.909;-0.4558;1.5144;8571.0;-38.66;-11.27;25.14;108.31;-4.94;-93.49;5.0;982.98;61.937;35.955406;-83.92842;811.73;NaN;;3.6;12.226105;53.6;16 / 21;55010;2022-10-25 13:08:03:197
9.6984;-2.4072;-1.1456;9.7629;-0.5467;-0.7466;3.7999;-2.262;0.2856;1.2396;1.2709;-1.9533;6557.0;-35.74;-1.93;29.98;98.63;3.2;-94.37;5.0;982.96;62.267;35.955418;-83.92841;811.52;NaN;;4.1;12.226105;45.1;16 / 21;55509;2022-10-25 13:08:03:696
10.1797;1.1432;-1.1755;9.514;-1.4772;-1.8634;1.0831;1.0623;-0.9851;-0.5879;-0.7054;1.6611;8547.0;-37.11;-9.51;24.3;134.31;8.66;-101.08;5.0;983.0;59.361;35.955418;-83.92841;811.52;NaN;;4.1;12.226105;45.1;16 / 21;56010;2022-10-25 13:08:04:197
8.1999;-2.6252;-3.3625;9.7772;0.7589;-0.0365;-0.7741;-3.1937;-1.9419;1.6603;0.9612;-2.1096;5892.0;-32.64;-1.24;29.94;108.86;10.59;-100.74;5.0;982.98;60.602;35.955425;-83.9284;811.94;NaN;;4.36;12.226105;47.2;16 / 21;56510;2022-10-25 13:08:04:697
10.6669;1.9008;-1.5837;9.6764;-0.8054;-1.3745;2.3916;0.0925;0.2441;0.4129;-1.7083;2.3291;8826.0;-35.49;-11.38;23.33;94.47;-14.65;-89.92;5.0;983.01;54.758;35.955425;-83.9284;811.94;NaN;;4.36;12.226105;47.2;16 / 21;57010;2022-10-25 13:08:05:197
7.7175;-3.5779;-2.3581;9.6989;1.4368;-0.193;-0.1691;-5.8592;-1.948;2.6194;0.3041;-2.6772;5681.0;-28.31;2.66;31.78;98.21;11.4;-101.37;5.0;982.96;62.063;35.955433;-83.92839;811.15;NaN;;4.61;12.226105;46.8;16 / 21;57510;2022-10-25 13:08:05:697
11.0333;-0.6224;-3.0416;9.5989;-0.6922;-1.8846;5.5449;-3.2219;-1.0526;-0.2544;-0.7614;3.0692;8466.0;-32.4;-3.36;27.02;105.34;4.05;-101.11;5.0;983.03;50.607;35.955433;-83.92839;811.15;NaN;;4.61;12.226105;46.8;16 / 21;58010;2022-10-25 13:08:06:197
8.8941;-5.3172;-3.4199;9.7349;-0.4313;-1.1024;3.9659;-6.3533;-0.8151;3.3828;0.7427;-3.6061;5028.0;-21.96;7.97;34.01;77.64;2.52;-96.46;5.0;982.97;54.871;35.95544;-83.92838;810.36;NaN;;4.1;12.226105;41.3;16 / 21;58510;2022-10-25 13:08:06:697
13.0645;-1.0355;-1.841;9.5407;0.5695;-2.1958;3.4882;-5.1227;-1.3242;-1.3888;-0.772;2.8474;8194.0;-31.03;-3.02;28.67;92.32;-3.33;-102.96;5.0;983.06;50.383;35.95544;-83.92838;810.36;NaN;;4.1;12.226105;41.3;16 / 21;59009;2022-10-25 13:08:07:196
12.7008;-6.2797;-5.1604;9.7499;-1.0449;0.1357;7.7452;-7.2826;-0.5978;3.6109;2.6127;-3.2763;5801.0;-20.89;6.13;34.82;83.89;6.12;-89.2;5.0;982.91;55.803;35.95545;-83.928375;809.69;NaN;;4.64;12.226105;59.7;16 / 21;59509;2022-10-25 13:08:07:696
8.3889;2.9088;8.3818;9.7198;-1.1088;-0.6835;5.9991;3.4199;8.0398;-0.4187;-1.4569;-0.3247;10748.0;-36.92;-11.96;16.48;107.18;-10.12;-87.51;5.0;983.02;53.542;35.95545;-83.928375;809.69;NaN;;4.64;12.226105;59.7;16 / 21;60009;2022-10-25 13:08:08:196
7.0866;-1.2772;-4.2497;9.6309;1.746;0.6065;0.9944;-2.2177;-0.9964;1.4534;1.715;-1.5406;9620.0;-32.4;-7.54;25.24;95.23;-10.26;-86.4;5.0;982.97;60.848;35.95546;-83.92836;811.45;NaN;;5.54;12.226105;46.8;16 / 21;60509;2022-10-25 13:08:08:696
9.58;4.3561;1.8876;9.4401;-0.5026;-2.6083;0.1875;4.4832;4.5907;-0.1354;-0.6889;0.4698;10589.0;-32.62;-9.11;23.29;110.98;-2.78;-96.76;5.0;983.04;63.381;35.95546;-83.92836;811.45;NaN;;5.54;12.226105;46.8;16 / 21;61009;2022-10-25 13:08:09:196
7.168;-4.6756;-3.4403;9.6385;1.7949;0.2177;-2.2513;-2.116;-1.1701;1.8021;1.1449;-0.4471;10029.0;-28.11;-3.45;28.28;85.89;-10.55;-88.71;5.0;982.96;65.691;35.955467;-83.92835;810.95;NaN;;4.61;12.226105;46.2;16 / 21;61509;2022-10-25 13:08:09:696
8.8427;-0.9087;0.0562;7.9133;-4.1794;-4.0103;0.5597;3.8383;3.3464;-0.6623;-0.2459;0.6732;8751.0;-20.89;10.03;30.0;105.28;25.23;-116.87;5.0;983.06;62.893;35.955467;-83.92835;810.95;NaN;;4.61;12.226105;46.2;16 / 21;62011;2022-10-25 13:08:10:198
6.7131;-5.6656;-3.8569;9.5611;2.1025;-0.5794;-3.4919;-5.8413;-3.1639;0.2831;-0.4526;-0.5243;8936.0;-23.25;11.66;31.91;68.55;-0.04;-93.4;5.0;983.01;69.862;35.955475;-83.92834;809.62;NaN;;5.08;12.226105;45.4;16 / 21;62509;2022-10-25 13:08:10:696
10.5138;-0.0144;-0.4442;8.1221;-4.2675;-3.4627;1.9064;3.4614;1.6604;-0.9481;-0.0365;1.2751;9113.0;-29.61;13.28;30.51;83.89;15.86;-105.52;5.0;983.03;54.287;35.955475;-83.92834;809.62;NaN;;5.08;12.226105;45.4;16 / 21;63009;2022-10-25 13:08:11:196
6.3443;-3.5803;-3.0188;9.5837;1.7127;-1.1788;-3.5822;-5.052;-1.0533;0.8957;-0.4051;-1.2169;8177.0;-26.78;16.63;33.32;63.52;4.0;-96.42;5.0;982.99;65.944;35.955486;-83.92833;808.16;NaN;;4.79;12.226105;49.8;16 / 21;63510;2022-10-25 13:08:11:697
10.3376;-1.2209;-1.7225;8.8908;-2.6795;-3.1535;-0.5324;3.0824;0.6825;-0.5879;-0.087;0.9461;8596.0;-35.12;12.38;30.11;90.72;15.86;-109.53;5.0;983.03;53.824;35.955486;-83.92833;808.16;NaN;;4.79;12.226105;49.8;16 / 21;64010;2022-10-25 13:08:12:197
7.4515;-2.9554;-1.7261;9.6691;0.5114;-1.555;-2.1497;-3.1622;0.1063;0.9354;0.1684;-1.6313;6780.0;-31.44;17.51;32.4;65.31;10.26;-103.34;5.0;982.99;61.931;35.955498;-83.92832;807.72;NaN;;4.64;12.226105;46.9;16 / 21;64509;2022-10-25 13:08:12:696
11.0178;-1.1384;-2.63;9.2825;-1.8035;-2.5987;-1.9521;1.005;0.6166;-0.3329;-0.0839;1.1217;9249.0;-38.55;4.09;27.47;105.57;10.6;-105.64;5.0;983.0;55.433;35.955498;-83.92832;807.72;NaN;;4.64;12.226105;46.9;16 / 21;65009;2022-10-25 13:08:13:196
9.9619;-4.2281;-3.4044;9.638;-0.6153;-1.7032;-0.7478;-2.3959;0.1297;0.6425;0.4965;-1.9421;6547.0;-30.73;11.94;28.99;67.18;3.6;-100.02;5.0;982.99;57.451;35.955505;-83.928314;806.68;NaN;;4.54;12.226105;42.1;16 / 21;65509;2022-10-25 13:08:13:696
10.753;-1.6364;-1.5538;8.9494;-2.3441;-3.2532;0.0893;0.2763;2.115;-0.5516;-1.1502;1.7994;11012.0;-34.18;-1.33;24.17;101.18;3.42;-101.78;5.0;983.0;58.774;35.955505;-83.928314;806.68;NaN;;4.54;12.226105;42.1;16 / 21;66010;2022-10-25 13:08:14:197
7.4803;-3.1627;-2.7413;9.5695;-1.0484;-1.8696;-0.1285;-1.8595;-0.3306;1.6329;0.5112;-2.5976;8325.0;-26.19;5.04;30.08;108.3;19.41;-108.63;5.0;982.94;67.129;35.955517;-83.9283;806.98;NaN;;4.79;12.226105;55.2;16 / 21;66510;2022-10-25 13:08:14:697
8.9515;-0.4968;-2.5331;9.1826;-1.7155;-2.9845;-1.0451;1.0892;0.7345;0.0732;-0.4194;1.098;9643.0;-28.84;7.56;26.49;68.77;2.43;-106.44;5.0;983.0;58.669;35.955517;-83.9283;806.98;NaN;;4.79;12.226105;55.2;16 / 21;67010;2022-10-25 13:08:15:197
8.7398;-3.6006;-3.5025;9.327;-1.6513;-2.5398;0.4589;-0.2219;0.8659;0.8288;-0.1613;-1.4047;6754.0;-23.59;16.99;31.69;65.03;9.69;-105.23;5.0;982.97;58.614;35.955524;-83.92829;806.43;NaN;;4.54;12.226105;46.7;16 / 21;67510;2022-10-25 13:08:15:697
7.8826;-1.7728;-1.963;9.3394;-1.0003;-2.8189;-2.5557;0.444;0.2839;-0.2409;-0.1654;0.7208;10027.0;-33.58;10.39;32.33;74.72;5.85;-106.8;5.0;982.99;65.264;35.955524;-83.92829;806.43;NaN;;4.54;12.226105;46.7;16 / 21;68010;2022-10-25 13:08:16:197
7.4791;-3.384;-3.5504;9.629;0.1543;-1.852;-2.5457;-2.3599;-0.4635;0.9823;-0.2149;-1.3691;7675.0;-30.62;15.68;33.0;71.48;11.09;-102.76;5.0;982.97;58.616;35.955536;-83.92828;806.58;NaN;;4.9;12.226105;48.2;16 / 21;68510;2022-10-25 13:08:16:697
7.7928;-1.1635;-2.5077;9.2873;-1.74;-2.6248;-2.1052;1.697;0.7073;0.1423;-0.2707;0.4262;10490.0;-36.43;10.16;30.13;75.53;6.42;-104.31;5.0;982.97;60.337;35.955536;-83.92828;806.58;NaN;;4.9;12.226105;48.2;16 / 21;69010;2022-10-25 13:08:17:197
9.574;-3.1149;-2.1272;9.5829;-0.9285;-1.8645;-1.5462;-1.1635;0.4658;0.5529;0.3322;-1.3739;7630.0;-31.44;16.07;32.25;76.87;15.32;-105.08;5.0;982.95;62.218;35.955544;-83.92827;806.6;NaN;;4.75;12.226105;44.5;16 / 21;69510;2022-10-25 13:08:17:697
8.1939;-1.2999;-2.8178;9.3398;-1.9661;-2.2525;-1.608;1.7245;0.6375;0.4474;-0.4106;0.5865;10532.0;-35.27;6.9;29.63;93.75;11.57;-103.56;5.0;982.95;56.507;35.955544;-83.92827;806.6;NaN;;4.75;12.226105;44.5;16 / 21;70009;2022-10-25 13:08:18:196
7.7091;-4.8206;-3.6894;9.6581;0.1101;-1.6967;-2.5785;-2.3608;0.0665;0.7284;0.2247;-1.6042;7968.0;-30.66;10.89;30.79;65.63;-0.64;-99.96;5.0;982.97;60.482;35.95555;-83.92825;807.42;NaN;;4.82;12.226105;51.4;16 / 21;70510;2022-10-25 13:08:18:697
8.6629;-0.3377;-2.575;9.2416;-1.9602;-2.6309;-0.7438;1.5812;0.9734;0.5667;-0.5582;0.7523;10765.0;-33.68;5.87;28.63;96.89;11.53;-105.89;5.0;982.95;60.958;35.95555;-83.92825;807.42;NaN;;4.82;12.226105;51.4;16 / 21;71011;2022-10-25 13:08:19:198
7.672;-4.2305;-3.4989;9.7151;0.0355;-1.3362;-2.2271;-2.7367;-0.7535;1.0947;0.2188;-1.7353;9809.0;-28.05;14.21;28.01;59.46;-0.21;-97.83;5.0;982.94;61.967;35.955563;-83.928246;808.5;NaN;;4.82;12.226105;53.2;16 / 21;71510;2022-10-25 13:08:19:697
9.0209;-1.1157;-1.4605;8.96;-2.6593;-2.9693;-1.1303;1.3451;1.623;-0.3405;-0.2355;1.063;11657.0;-35.23;13.07;23.01;68.44;11.01;-105.13;5.0;982.95;59.019;35.955563;-83.928246;808.5;NaN;;4.82;12.226105;53.2;16 / 21;72011;2022-10-25 13:08:20:198
5.6285;-3.1986;-1.9092;9.655;-0.6752;-1.5795;-2.7378;-1.8954;0.2496;1.8063;0.0175;-1.5893;9813.0;-30.32;19.91;28.33;65.44;16.38;-104.16;5.0;982.94;58.403;35.95557;-83.92823;809.33;NaN;;4.43;12.226105;52.3;17 / 21;72510;2022-10-25 13:08:20:697
7.2278;-1.3238;-1.3286;8.9766;-2.2544;-3.2418;-2.4309;1.5175;1.6322;0.0428;-0.3544;0.638;10070.0;-38.51;17.51;25.18;51.67;10.64;-107.74;5.0;982.95;59.731;35.95557;-83.92823;809.33;NaN;;4.43;12.226105;52.3;17 / 21;73011;2022-10-25 13:08:21:198
6.0811;-3.0823;-1.8027;9.394;-1.7005;-2.2429;3.6978;-1.1533;0.0201;1.2273;0.3589;-1.7579;7611.0;-34.43;23.7;33.17;55.6;9.99;-103.43;5.0;982.91;58.098;35.955578;-83.92822;809.68;NaN;;4.79;12.226105;57.0;17 / 21;73510;2022-10-25 13:08:21:697
8.3183;-1.3119;-1.9128;9.3706;-1.4707;-2.4899;-1.5066;-0.6605;-0.0582;-0.8833;-0.2934;1.9441;11979.0;-51.22;7.8;27.11;92.3;8.63;-104.88;5.0;982.95;51.458;35.955578;-83.92822;809.68;NaN;;4.79;12.226105;57.0;17 / 21;74010;2022-10-25 13:08:22:197
7.4396;-4.04;-1.136;9.6855;-0.198;-1.5242;2.0446;-3.953;-0.1732;0.7835;1.137;-3.1088;6287.0;-39.58;25.2;32.64;73.9;22.09;-111.58;5.0;982.92;56.101;35.955585;-83.92821;809.28;NaN;;4.79;12.226105;54.6;17 / 21;74510;2022-10-25 13:08:22:697
13.1435;-1.5802;-4.1632;9.4641;-0.0774;-2.5681;0.105;-3.7272;-1.5078;-0.0964;-0.8592;3.5694;13404.0;-56.27;-4.61;24.02;43.57;-20.92;-98.39;5.0;982.95;55.594;35.955585;-83.92821;809.28;NaN;;4.79;12.226105;54.6;17 / 21;75010;2022-10-25 13:08:23:197
14.3647;-5.1796;-1.0738;9.0014;-3.136;-2.3044;7.0438;-1.4042;1.5569;2.095;1.3999;-2.9221;7888.0;-45.0;21.96;37.61;132.82;29.69;-120.04;5.0;982.87;58.034;35.955593;-83.9282;807.38;NaN;;4.75;12.226105;43.7;17 / 21;75509;2022-10-25 13:08:23:696
10.1713;-2.3761;-3.5013;9.4521;2.3276;-1.1875;-2.2236;-7.2169;-2.2389;0.1913;-0.9241;2.0889;12990.0;-55.5;-12.21;20.83;81.17;-13.73;-97.16;5.0;982.93;62.742;35.955593;-83.9282;807.38;NaN;;4.75;12.226105;43.7;17 / 21;76010;2022-10-25 13:08:24:197
14.1347;-4.7812;-1.3801;8.8542;-3.085;-2.8735;5.0105;1.439;2.8704;0.9881;1.3727;-2.2372;6952.0;-48.43;4.16;29.78;171.61;29.44;-118.38;5.0;982.92;59.872;35.955605;-83.92819;810.0;NaN;;4.9;12.226105;47.9;17 / 21;76509;2022-10-25 13:08:24:696
11.2187;-1.392;-4.6385;9.4612;2.5537;-0.3663;-2.1022;-7.1316;-2.8164;0.217;-1.2064;1.8086;12967.0;-45.73;-9.45;23.55;80.99;-15.09;-92.22;5.0;982.91;62.515;35.955605;-83.92819;810.0;NaN;;4.9;12.226105;47.9;17 / 21;77010;2022-10-25 13:08:25:197
11.8938;-3.4786;-1.7213;8.4376;-3.7649;-3.2866;7.1864;2.8377;1.739;-0.7378;1.3391;-0.8241;6938.0;-37.01;5.29;32.68;127.35;22.58;-111.28;5.0;982.93;62.52;35.955612;-83.928185;810.24;NaN;;4.57;12.226105;43.9;17 / 21;77510;2022-10-25 13:08:25:697
11.6725;-1.4294;-3.1292;9.6664;0.577;-1.5488;-0.8151;-3.7546;-2.6905;-0.6826;-0.3163;1.7259;11883.0;-42.96;-2.29;28.63;73.66;-11.73;-95.33;5.0;982.93;64.99;35.955612;-83.928185;810.24;NaN;;4.57;12.226105;43.9;17 / 21;78010;2022-10-25 13:08:26:197
15.813;-2.849;-0.4741;7.6224;-4.3878;-4.3379;7.7911;4.309;3.8724;-0.7204;1.2002;0.084;7962.0;-38.72;3.32;34.86;135.14;21.36;-114.84;5.0;982.93;52.05;35.95562;-83.92817;810.3;NaN;;4.43;12.226105;48.0;16 / 21;78511;2022-10-25 13:08:26:698
6.044;-3.2333;-2.5786;9.3869;2.4666;-1.4042;-2.5325;-7.3197;-0.5324;-0.2722;-0.6483;1.9144;11290.0;-39.9;-3.36;32.49;67.4;-17.69;-98.75;5.0;982.92;61.358;35.95562;-83.92817;810.3;NaN;;4.43;12.226105;48.0;16 / 21;79009;2022-10-25 13:08:27:196
15.5629;-3.2417;-1.6519;8.1161;-4.3035;-3.4319;4.2843;6.1689;1.5917;0.4528;1.05;-2.2103;6591.0;-32.1;5.03;34.93;126.11;26.03;-112.92;5.0;982.94;57.064;35.955627;-83.92816;811.3;NaN;;4.97;12.226105;50.3;15 / 21;79509;2022-10-25 13:08:27:696
9.0987;-2.8155;-4.0878;9.4862;2.3361;-0.8513;-1.9877;-5.7021;-1.5453;-0.0864;-0.8275;1.6724;11746.0;-43.14;1.37;28.71;64.78;-13.78;-95.13;5.0;982.94;66.347;35.955627;-83.92816;811.3;NaN;;4.97;12.226105;50.3;15 / 21;80009;2022-10-25 13:08:28:196
13.8811;-0.1866;-2.7867;8.5934;-3.4415;-3.2373;6.016;2.6628;0.6522;-0.1409;0.7052;-1.156;7342.0;-39.99;16.52;37.59;103.68;23.2;-112.94;5.0;982.94;53.484;35.95563;-83.92815;811.24;NaN;;4.86;12.226105;58.0;16 / 21;80510;2022-10-25 13:08:28:697
8.7314;-4.6732;-3.0021;9.145;2.906;-2.0233;-3.0218;-6.43;-0.7493;-0.3899;-0.4098;0.7998;11390.0;-43.39;0.51;32.33;65.9;-12.33;-99.03;5.0;982.94;64.472;35.95563;-83.92815;811.24;NaN;;4.86;12.226105;58.0;16 / 21;81010;2022-10-25 13:08:29:197
12.5354;0.6667;-2.0638;8.5042;-3.2432;-3.651;5.7256;3.175;0.7998;-0.5897;0.9569;-0.3046;8083.0;-34.95;-1.24;32.63;133.21;17.96;-114.0;5.0;982.92;50.024;35.95564;-83.92813;810.82;NaN;;4.61;12.226105;45.9;16 / 21;81510;2022-10-25 13:08:29:697
9.2916;-4.0723;-2.7305;9.4968;1.9693;-1.4505;-3.1635;-4.7729;-1.1468;-0.0581;-0.1012;-0.1654;11525.0;-29.23;2.34;28.24;69.82;-11.58;-98.68;5.0;982.91;55.804;35.95564;-83.92813;810.82;NaN;;4.61;12.226105;45.9;16 / 21;82010;2022-10-25 13:08:30:197
12.1621;-0.0766;-1.5012;8.738;-3.0442;-3.2482;2.6475;3.9689;1.1999;-0.0266;0.2472;0.0212;7899.0;-21.43;16.37;30.38;74.28;18.08;-110.39;5.0;982.95;54.133;35.955647;-83.92812;812.22;NaN;;5.04;12.226105;53.8;17 / 21;82510;2022-10-25 13:08:30:697
9.3419;-3.5551;-2.3605;9.5052;1.8256;-1.5779;-2.847;-3.9182;-1.1836;-0.3064;-0.3535;1.1768;11223.0;-32.19;18.17;26.14;39.96;-10.73;-99.43;5.0;982.94;58.944;35.955647;-83.92812;812.22;NaN;;5.04;12.226105;53.8;17 / 21;83010;2022-10-25 13:08:31:197
12.4983;1.118;-2.7963;8.7895;-2.9562;-3.1899;1.1042;4.2881;1.2675;0.0056;-0.0593;0.5495;8097.0;-40.8;21.58;23.68;51.21;17.54;-109.95;5.0;982.95;49.688;35.95565;-83.9281;814.01;NaN;;4.82;12.226105;51.9;17 / 21;83509;2022-10-25 13:08:31:696
9.3838;-4.0244;-4.2185;9.4793;2.0837;-1.4043;-3.2646;-4.8693;-1.585;-0.1597;-0.3774;0.6467;10526.0;-50.29;14.29;17.53;28.98;-8.26;-96.97;5.0;982.94;57.798;35.95565;-83.9281;814.01;NaN;;4.82;12.226105;51.9;17 / 21;84009;2022-10-25 13:08:32:196
12.7188;0.1795;-2.3031;8.7569;-2.6766;-3.5105;0.5077;3.2477;1.823;-0.0259;-0.2944;0.548;8459.0;-54.36;6.38;14.93;206.9;10.33;-107.67;5.0;982.93;51.995;35.95566;-83.92809;814.74;NaN;;4.68;12.226105;56.7;17 / 21;84509;2022-10-25 13:08:32:696
6.3239;-2.4179;-3.2836;9.4246;2.2771;-1.4706;-2.9633;-4.4859;-1.4663;0.2834;-0.0753;-0.6776;10054.0;-47.91;8.03;16.73;39.0;-3.02;-99.77;5.0;982.93;63.186;35.95566;-83.92809;814.74;NaN;;4.68;12.226105;56.7;17 / 21;85009;2022-10-25 13:08:33:196
10.442;1.4258;-1.1432;9.087;-1.956;-3.1257;-0.7058;2.0523;1.1275;-0.3683;-0.3297;1.1531;9697.0;-42.52;-0.88;19.88;154.63;11.51;-108.98;5.0;982.95;51.002;35.955666;-83.92808;814.74;NaN;;4.75;12.226105;52.5;17 / 21;85509;2022-10-25 13:08:33:696
7.1273;-2.4168;-2.9064;9.6164;1.5699;-1.1097;-1.738;-3.4427;-1.5881;0.3395;0.2463;-1.3865;9560.0;-39.49;2.79;23.79;63.63;-9.21;-96.58;5.0;982.94;60.704;35.955666;-83.92808;814.74;NaN;;4.75;12.226105;52.5;17 / 21;86009;2022-10-25 13:08:34:196
11.0381;1.9367;-1.2556;8.8568;-2.8037;-3.1411;1.4356;4.3096;0.8923;-0.2496;-0.1501;0.5206;10332.0;-34.5;-1.12;27.96;112.85;9.61;-105.03;5.0;982.94;50.54;35.955673;-83.92806;814.61;NaN;;4.86;12.226105;45.2;18 / 21;86510;2022-10-25 13:08:34:697
6.3706;-2.0495;-1.9164;9.7125;1.0539;-0.8526;-1.3879;-2.8565;-1.4668;0.5243;0.5532;-1.3669;9275.0;-29.79;5.42;33.13;86.76;5.6;-99.36;5.0;982.93;63.155;35.955673;-83.92806;814.61;NaN;;4.86;12.226105;45.2;18 / 21;87011;2022-10-25 13:08:35:198
9.6218;-0.8453;-0.6906;8.9965;-2.7161;-2.8028;-0.3757;2.3942;1.6233;-0.7498;-0.4746;1.235;10773.0;-32.7;6.23;34.84;89.81;8.64;-100.62;5.0;982.94;54.985;35.95568;-83.92806;815.31;NaN;;4.79;12.226105;34.2;18 / 21;87509;2022-10-25 13:08:35:696
7.7115;-2.3234;-1.8159;9.7082;-0.6853;-1.205;0.9439;-2.2538;-1.4528;0.517;0.8776;-1.8424;8260.0;-27.06;12.45;41.46;75.38;4.01;-97.08;5.0;982.93;61.851;35.95568;-83.92806;815.31;NaN;;4.79;12.226105;34.2;18 / 21;88010;2022-10-25 13:08:36:197
9.6589;0.0323;-0.9757;9.3148;-1.9209;-2.3908;-0.2757;1.8338;0.8502;-0.7609;-0.5718;1.2241;11615.0;-39.86;8.51;34.89;91.12;11.3;-104.4;5.0;982.93;58.822;35.95569;-83.92805;814.9;NaN;;4.54;12.226105;42.4;18 / 21;88510;2022-10-25 13:08:36:697
7.7222;-2.071;-1.841;9.4923;-1.806;-1.6747;2.4927;-0.6214;0.61;0.5264;0.511;-1.3446;8229.0;-31.59;15.94;43.41;76.92;10.61;-100.01;5.0;982.92;64.219;35.95569;-83.92805;814.9;NaN;;4.54;12.226105;42.4;18 / 21;89010;2022-10-25 13:08:37:197
7.4013;0.0562;-1.7788;9.58;-1.2197;-1.7047;1.6037;0.2554;-1.1333;-0.1699;-0.2453;0.8711;11682.0;-50.66;7.33;32.96;90.04;7.14;-100.09;5.0;982.93;55.96;35.955696;-83.92804;815.2;NaN;;4.46;12.226105;44.0;19 / 21;89511;2022-10-25 13:08:37:698
9.3598;-2.2816;-1.4462;9.6311;-0.9404;-1.5899;0.685;-1.4378;-0.0217;0.4974;0.7814;-1.7272;7287.0;-44.21;17.4;37.13;87.11;16.77;-105.33;5.0;982.9;57.91;35.955696;-83.92804;815.2;NaN;;4.46;12.226105;44.0;19 / 21;90009;2022-10-25 13:08:38:196
9.6912;-0.9015;-2.764;9.6968;-0.542;-1.3597;-0.7756;-0.514;-0.5236;0.2946;-0.7725;1.549;11309.0;-50.85;2.23;28.39;67.95;-8.52;-94.16;5.0;982.9;52.873;35.955704;-83.92803;816.79;NaN;;4.5;12.226105;48.2;19 / 21;90511;2022-10-25 13:08:38:698
13.0478;-3.4391;-1.9211;9.319;-2.249;-2.0659;3.8132;-0.4914;1.1723;1.3819;0.4054;-1.8799;6554.0;-40.14;13.78;34.88;105.88;21.81;-110.13;5.0;982.89;54.586;35.955704;-83.92803;816.79;NaN;;4.5;12.226105;48.2;19 / 21;91009;2022-10-25 13:08:39:196
5.6584;5.0683;3.329;6.1238;5.205;5.6194;2.7969;-3.8319;-1.239;0.3872;1.5145;-0.2007;10833.0;-48.79;-2.89;3.64;67.17;-32.06;-47.46;5.0;982.92;58.294;35.95571;-83.928024;817.56;NaN;;4.61;12.226105;41.2;19 / 21;91510;2022-10-25 13:08:39:697
4.0878;4.7653;10.2969;3.1096;6.0188;7.0905;-1.3318;0.2611;0.3995;0.1313;-0.8135;1.0825;21732.0;-27.0;-23.32;-42.37;32.99;-37.86;-23.68;5.0;982.94;50.69;35.95571;-83.928024;817.56;NaN;;4.61;12.226105;41.2;19 / 21;92010;2022-10-25 13:08:40:197
5.0635;5.473;6.6437;4.1203;6.0574;6.5193;0.8456;0.2132;-1.2614;-0.4694;-1.0087;-0.2322;32524.998;-28.41;-23.4;-43.84;0.65;-38.15;-32.29;5.0;982.91;50.531;35.95572;-83.92802;818.52;NaN;;4.14;12.226105;31.4;19 / 21;92510;2022-10-25 13:08:40:697
3.7863;4.1106;10.5006;3.7017;5.1831;7.4568;0.0719;0.1667;0.4954;0.319;-0.1765;0.0456;14343.0;-33.37;-21.47;-41.53;49.76;-29.36;-28.58;5.0;982.92;55.464;35.95572;-83.92802;818.52;NaN;;4.14;12.226105;31.4;19 / 21;93010;2022-10-25 13:08:41:197
6.0966;5.1209;7.5942;4.5978;5.6977;6.5243;0.8647;-0.9415;0.6467;-1.1185;-0.8805;-0.4281;12027.0;-32.59;-25.03;-35.94;36.2;-37.64;-34.15;5.0;982.93;60.974;35.955727;-83.928;817.79;NaN;;4.5;12.226105;42.9;19 / 21;93510;2022-10-25 13:08:41:697
4.1979;4.8206;11.3109;3.4846;4.588;7.9359;-1.4898;-0.8055;0.364;-0.1083;0.4012;0.0686;13898.0;-34.24;-23.29;-34.54;86.44;-27.89;-23.71;5.0;982.93;58.992;35.955727;-83.928;817.79;NaN;;4.5;12.226105;42.9;19 / 21;94010;2022-10-25 13:08:42:197
5.085;3.3386;10.5664;2.9169;4.9645;7.9382;0.9624;-0.7531;-2.2722;-0.17;-0.3373;-0.2575;19115.0;-28.67;-19.07;-41.74;55.86;-30.41;-20.18;5.0;982.91;52.251;35.955734;-83.92799;817.73;NaN;;3.74;12.226105;56.2;19 / 21;94509;2022-10-25 13:08:42:696
1.9307;5.4646;9.2447;3.0173;5.4182;7.5967;-2.0054;-0.3976;-1.7103;1.4399;0.1093;0.3756;17901.0;-29.17;-21.32;-40.8;51.31;-33.54;-21.66;5.0;982.92;50.825;35.955734;-83.92799;817.73;NaN;;3.74;12.226105;56.2;19 / 21;95010;2022-10-25 13:08:43:197
5.0659;6.4965;3.8474;3.9409;6.9784;5.6516;-0.1758;-0.991;-1.706;0.5183;-0.0925;0.7178;15596.0;-30.62;-32.74;-31.2;45.64;-45.37;-34.89;5.0;982.89;52.468;35.955746;-83.927986;816.29;NaN;;4.28;12.226105;49.6;19 / 21;95510;2022-10-25 13:08:43:697
3.0057;3.8653;9.1992;4.1475;4.5837;7.613;-1.0537;0.0124;-1.4657;-0.3513;0.1372;-0.0988;16944.0;-35.04;-23.68;-29.16;84.28;-29.86;-36.11;5.0;982.92;52.946;35.955746;-83.927986;816.29;NaN;;4.28;12.226105;49.6;19 / 21;96010;2022-10-25 13:08:44:197
4.2377;5.6919;3.7696;4.8398;6.1507;5.9089;-0.1986;-1.2091;-1.2416;0.595;-0.0405;-0.1986;15619.0;-32.85;-19.82;-25.82;71.74;-31.26;-35.65;5.0;982.9;56.355;35.955753;-83.92798;816.03;NaN;;4.25;12.226105;51.2;19 / 21;96511;2022-10-25 13:08:44:698
4.8374;6.5755;5.1879;5.6582;6.4578;4.7383;-1.0188;-0.392;-0.5235;0.18;0.1487;-0.3155;10976.0;-31.14;-19.52;-12.97;60.79;-40.04;-50.54;5.0;982.92;50.596;35.955753;-83.92798;816.03;NaN;;4.25;12.226105;51.2;19 / 21;97009;2022-10-25 13:08:45:196
4.7545;4.1189;5.7326;5.8733;4.828;6.194;-0.6831;-0.0529;0.498;0.343;-0.0283;-0.0227;9742.0;-28.37;-10.26;-13.18;64.5;-29.49;-43.48;5.0;982.9;53.384;35.95576;-83.92796;813.85;NaN;;4.1;12.226105;47.8;19 / 21;97509;2022-10-25 13:08:45:696
3.1388;3.0224;5.4239;4.556;3.718;7.8479;-0.6819;-0.8544;-1.1987;0.1874;0.1074;0.2805;11991.0;-21.92;1.18;-21.96;32.92;-22.28;-30.14;5.0;982.91;53.009;35.95576;-83.92796;813.85;NaN;;4.1;12.226105;47.8;19 / 21;98009;2022-10-25 13:08:46:196
3.6942;4.6289;5.339;4.5764;5.399;6.788;-0.4128;-0.9106;-0.4614;0.4655;0.0606;-0.0806;22766.0;-14.33;2.83;-31.69;348.67;-29.25;-30.08;5.0;982.91;50.544;35.95577;-83.927956;813.21;NaN;;4.25;12.226105;47.4;19 / 21;98510;2022-10-25 13:08:46:697
4.4841;5.3342;2.5161;5.383;6.288;5.2588;0.6212;-0.7644;-0.1439;-0.1545;-0.5955;-0.3175;21978.0;-17.98;-4.65;-35.1;335.43;-38.14;-40.47;5.0;982.9;53.659;35.95577;-83.927956;813.21;NaN;;4.25;12.226105;47.4;19 / 21;99011;2022-10-25 13:08:47:198
7.0412;4.7557;8.0943;6.2076;4.7148;5.9503;0.3759;0.7951;1.1916;-0.0089;0.249;0.0288;11015.0;-31.74;-7.73;-33.49;357.78;-30.08;-44.9;5.0;982.91;56.495;35.955772;-83.92794;813.15;NaN;;4.32;12.226105;49.2;19 / 21;99510;2022-10-25 13:08:47:697
6.9117;6.658;5.1233;4.718;5.7733;6.3702;1.2833;0.9926;0.3532;-0.5484;-1.4247;-0.8517;12946.0;-35.38;-13.18;-35.57;19.63;-36.07;-36.52;5.0;982.91;53.148;35.955772;-83.92794;813.15;NaN;;4.32;12.226105;49.2;19 / 21;100010;2022-10-25 13:08:48:197
2.636;5.4144;5.2083;2.3176;6.3771;7.0804;-0.8207;-0.8394;2.9607;0.8974;0.4102;1.3194;15736.0;-29.59;-23.47;-38.93;52.21;-40.56;-18.12;5.0;982.91;50.061;35.955776;-83.92793;812.54;NaN;;4.14;12.226105;56.3;19 / 21;100510;2022-10-25 13:08:48:697
6.1887;6.3311;5.1975;3.8222;6.3263;6.4451;1.4379;0.6988;0.795;-0.113;-0.6156;-0.2965;22446.0;-25.99;-23.81;-41.16;6.38;-40.17;-30.67;5.0;982.9;50.588;35.955776;-83.92793;812.54;NaN;;4.14;12.226105;56.3;19 / 21;101011;2022-10-25 13:08:49:198
3.5049;6.7202;5.7398;4.0089;6.8821;5.7215;0.0945;1.6556;0.184;0.0717;-0.3841;0.0335;11099.0;-35.08;-26.96;-34.03;32.44;-44.57;-35.02;5.0;982.92;53.141;35.955784;-83.927925;812.46;NaN;;4.32;12.226105;49.8;18 / 21;101509;2022-10-25 13:08:49:696
5.9602;5.5029;8.3758;4.3988;6.6374;5.7241;1.9463;0.9715;-0.1828;-1.1614;-0.4888;-0.4206;11506.0;-37.2;-31.84;-30.81;36.47;-47.47;-38.37;5.0;982.91;54.016;35.955784;-83.927925;812.46;NaN;;4.32;12.226105;49.8;18 / 21;102010;2022-10-25 13:08:50:197
4.5212;7.1166;7.1859;3.5665;7.0887;5.7621;-0.1804;0.1798;0.4262;0.1046;-0.06;0.1681;10416.0;-38.64;-34.86;-26.89;63.34;-45.55;-36.74;5.0;982.9;51.691;35.955788;-83.92792;812.37;NaN;;4.32;12.226105;63.6;18 / 21;102509;2022-10-25 13:08:50:696
6.0619;8.3004;8.6163;4.0136;6.9255;5.6656;-0.1853;-0.9045;0.8027;-0.0292;0.1155;0.7133;12815.0;-33.28;-36.92;-27.62;90.38;-43.15;-24.9;5.0;982.93;53.374;35.955788;-83.92792;812.37;NaN;;4.32;12.226105;63.6;18 / 21;103009;2022-10-25 13:08:51:196
0.7887;6.7597;4.7354;2.317;7.745;5.5513;0.5545;-0.8693;-2.3924;0.2659;-0.2123;0.6045;13733.0;-30.07;-35.53;-25.74;71.27;-52.16;-22.65;5.0;982.91;50.363;35.955795;-83.92791;811.4;NaN;;4.18;12.226105;49.7;18 / 21;103510;2022-10-25 13:08:51:697
4.4985;7.4647;6.9021;2.7682;6.9873;6.2996;-0.4121;-0.5225;-0.6659;0.09;-0.5131;-0.212;19812.0;-27.34;-32.1;-26.32;81.05;-45.44;-23.72;5.0;982.92;50.809;35.955795;-83.92791;811.4;NaN;;4.18;12.226105;49.7;18 / 21;104011;2022-10-25 13:08:52:198
1.9092;7.3977;6.1636;2.2329;6.8973;6.6039;0.1582;0.0633;-0.7865;-0.2048;0.2036;-0.7513;13165.0;-29.25;-29.68;-20.85;84.07;-45.73;-26.29;5.0;982.89;53.073;35.9558;-83.927895;810.79;NaN;;4.36;12.226105;62.8;18 / 21;104510;2022-10-25 13:08:52:697
3.0009;6.8937;3.9849;2.5451;7.2848;6.0518;-0.5394;-1.5919;-0.1016;0.8534;0.1394;0.596;16424.0;-27.28;-28.52;-20.49;97.12;-43.63;-16.21;5.0;982.89;55.557;35.9558;-83.927895;810.79;NaN;;4.36;12.226105;62.8;18 / 21;105010;2022-10-25 13:08:53:197
1.3789;6.9033;4.3956;2.9393;7.5426;5.5353;-1.5979;-0.986;-1.2534;-0.294;-0.2252;-0.3814;11505.0;-31.57;-27.67;-13.2;83.32;-49.34;-30.16;5.0;982.87;50.663;35.955807;-83.92789;811.22;NaN;;4.25;12.226105;54.9;18 / 21;105510;2022-10-25 13:08:53:697
3.1974;6.5611;3.5169;3.4237;7.5501;5.2388;-0.5541;-1.4296;1.3061;1.2262;0.2802;0.7564;12123.0;-30.41;-27.97;-10.09;86.47;-50.34;-33.17;5.0;982.91;51.317;35.955807;-83.92789;811.22;NaN;;4.25;12.226105;54.9;18 / 21;106010;2022-10-25 13:08:54:197
4.1142;7.7306;0.1699;5.8381;7.8587;0.5731;-0.1887;-1.1373;-0.704;-0.1294;0.4691;-0.3037;4913.0;-34.73;-18.75;3.43;21.44;-53.26;-84.39;5.0;982.87;50.237;35.955814;-83.92787;811.13;NaN;;4.14;12.226105;41.4;18 / 21;106510;2022-10-25 13:08:54:697
5.8546;6.3299;0.0909;6.2007;7.597;-0.0832;-0.4057;-0.2607;1.0727;0.2119;0.3603;-0.0176;3158.0;-34.61;-12.38;5.21;13.03;-50.78;-90.77;5.0;982.9;58.15;35.955814;-83.92787;811.13;NaN;;4.14;12.226105;41.4;18 / 21;107009;2022-10-25 13:08:55:196
5.7781;5.9782;-0.8967;6.8906;6.9573;-0.5358;-0.0509;-0.6794;0.0725;0.1679;-0.3144;-0.1225;1573.0;-33.34;-6.49;-1.65;346.53;-45.19;-94.45;5.0;982.91;51.043;35.95582;-83.927864;810.85;NaN;;4.07;12.226105;56.8;18 / 21;107510;2022-10-25 13:08:55:697
5.9076;4.1429;-4.6744;7.2237;5.4566;-3.7701;-0.9385;-0.3818;1.4565;1.5848;-0.1404;0.3888;1710.0;-34.93;-6.11;-2.7;309.67;-38.83;-114.84;5.0;982.88;49.5;35.95582;-83.927864;810.85;NaN;;4.07;12.226105;56.8;18 / 21;108010;2022-10-25 13:08:56:197
7.0723;3.7337;-5.6512;7.0334;3.4805;-5.8811;2.7633;0.4876;0.3347;-0.2973;-0.4058;0.3715;1679.0;-38.18;-3.64;-1.76;288.2;-24.57;-128.27;5.0;982.91;52.209;35.955826;-83.92785;812.94;NaN;;4.1;12.226105;64.7;18 / 21;108509;2022-10-25 13:08:56:696
9.2713;6.5767;-6.1469;6.7901;4.4202;-5.5251;2.7767;2.4439;-1.3549;-0.9842;0.946;-1.2348;2550.0;-43.63;-0.26;5.1;296.98;-22.42;-133.33;5.0;982.89;51.648;35.955826;-83.92785;812.94;NaN;;4.1;12.226105;64.7;18 / 21;109009;2022-10-25 13:08:57:196
5.1114;8.3291;1.3968;4.2001;8.5683;2.2614;-0.2507;-0.0767;-0.5682;-0.7158;-0.2741;-0.3042;5568.0;-44.91;-17.27;-11.25;20.65;-60.89;-61.7;5.0;982.9;52.074;35.95583;-83.92784;813.43;NaN;;4.18;12.226105;57.6;18 / 21;109509;2022-10-25 13:08:57:696
1.6699;7.6493;5.5603;3.1373;8.3229;4.1301;1.8191;2.2487;3.1617;0.0066;0.6428;-0.048;8250.0;-42.97;-26.89;-23.06;41.06;-58.07;-37.22;5.0;982.9;53.198;35.95583;-83.92784;813.43;NaN;;4.18;12.226105;57.6;18 / 21;110009;2022-10-25 13:08:58:196
4.9128;8.2167;2.2217;4.3314;8.3064;2.9005;2.2132;0.3639;4.6523;0.4615;-0.3082;-0.0139;7857.0;-42.09;-32.68;-20.61;6.65;-61.57;-59.81;5.0;982.88;51.392;35.955837;-83.927826;814.08;NaN;;4.1;12.226105;46.2;17 / 21;110510;2022-10-25 13:08:58:697
5.412;8.0824;4.7474;3.9882;8.4367;3.0143;-1.4991;1.1637;0.0181;0.4274;-0.5524;1.0338;7177.0;-42.32;-33.73;-16.18;35.55;-58.97;-51.41;5.0;982.91;58.804;35.955837;-83.927826;814.08;NaN;;4.1;12.226105;46.2;17 / 21;111010;2022-10-25 13:08:59:197
7.5556;8.1544;4.4985;5.0477;7.9955;2.6005;1.3281;1.7175;0.4635;-0.8707;-0.411;-0.0177;6557.0;-39.04;-33.84;-13.97;12.23;-58.8;-64.95;5.0;982.89;61.557;35.955845;-83.92782;812.98;NaN;;4.28;12.226105;44.1;17 / 21;111510;2022-10-25 13:08:59:697
5.5974;10.121;6.0141;4.4524;8.1019;3.272;-0.3148;0.5464;0.2962;0.473;0.3373;0.0893;7667.0;-38.31;-33.41;-15.39;36.56;-55.71;-53.69;5.0;982.93;68.243;35.955845;-83.92782;812.98;NaN;;4.28;12.226105;44.1;17 / 21;112011;2022-10-25 13:09:00:198
7.8299;8.1461;3.1591;5.7452;7.7561;1.7338;0.582;-0.8012;0.2395;-0.721;0.0066;0.8702;7486.0;-38.1;-33.6;-10.09;7.8;-52.27;-73.21;5.0;982.91;59.372;35.955853;-83.92781;812.98;NaN;;4.32;12.226105;38.0;17 / 21;112510;2022-10-25 13:09:00:697
5.4957;8.2789;4.0448;5.6645;6.7683;4.2748;-1.8073;-0.0999;0.0554;-0.1224;-0.5941;0.1701;7326.0;-39.6;-28.67;-8.27;76.12;-43.64;-52.96;5.0;982.93;59.563;35.955853;-83.92781;812.98;NaN;;4.32;12.226105;38.0;17 / 21;113011;2022-10-25 13:09:01:198
7.022;6.7418;0.7971;6.0175;7.3384;2.4716;-1.3776;-1.4293;-0.5816;0.2252;-0.4748;0.1715;7160.0;-36.47;-24.75;-2.66;49.88;-48.44;-67.67;5.0;982.91;50.445;35.955864;-83.9278;813.34;NaN;;4.21;12.226105;39.5;17 / 21;113511;2022-10-25 13:09:01:698
6.2175;7.3235;3.2836;6.0065;7.1987;2.876;-1.4984;-1.3324;1.1485;0.3547;-0.0829;0.1962;6689.0;-34.56;-17.51;6.49;60.4;-46.44;-70.12;5.0;982.9;56.256;35.955864;-83.9278;813.34;NaN;;4.21;12.226105;39.5;17 / 21;114009;2022-10-25 13:09:02:196
5.1616;6.2163;3.8605;5.8926;6.9319;3.66;-0.8004;-0.9801;-2.0363;-0.6013;0.4518;-0.2501;7519.0;-33.41;-13.58;7.84;65.06;-45.12;-66.98;5.0;982.91;59.772;35.95587;-83.927795;813.73;NaN;;4.5;12.226105;39.9;17 / 21;114510;2022-10-25 13:09:02:697
4.1309;7.0974;0.9147;5.9924;7.6192;1.4862;-2.2778;-0.9428;-1.3347;-0.0962;-0.554;-0.2999;8354.0;-34.48;-9.3;6.79;52.1;-46.37;-68.4;5.0;982.92;55.205;35.95587;-83.927795;813.73;NaN;;4.5;12.226105;39.9;17 / 21;115010;2022-10-25 13:09:03:197
5.3279;7.7139;0.3485;5.8033;7.8147;1.1925;0.0172;-1.0161;0.6328;1.1234;0.2268;-0.093;6725.0;-38.19;-10.41;10.76;40.13;-52.83;-78.39;5.0;982.9;59.335;35.95588;-83.92779;813.35;NaN;;4.32;12.226105;36.7;17 / 21;115510;2022-10-25 13:09:03:697
3.8366;6.1995;1.7501;5.6485;7.158;3.6094;-0.9471;-0.5007;0.3584;-0.5366;1.1312;0.0217;5407.0;-43.99;-10.93;0.11;50.48;-46.88;-57.42;5.0;982.91;63.588;35.95588;-83.92779;813.35;NaN;;4.32;12.226105;36.7;17 / 21;116010;2022-10-25 13:09:04:197
1.1336;3.7971;7.9878;3.3372;4.886;7.8205;0.3917;0.325;-1.433;-2.2659;2.4549;-0.176;9382.0;-42.34;-10.89;-17.72;35.59;-42.24;-47.71;5.0;982.9;63.376;35.95589;-83.92777;813.05;NaN;;4.1;12.226105;35.3;17 / 21;116510;2022-10-25 13:09:04:697
0.0407;3.4714;6.6257;0.8643;4.0491;8.8898;0.1546;-1.2661;-0.9133;-0.1791;-0.0909;-0.1678;30471.002;-31.03;-6.26;-33.62;71.21;-24.31;-4.79;5.0;982.9;53.477;35.95589;-83.92777;813.05;NaN;;4.1;12.226105;35.3;17 / 21;117010;2022-10-25 13:09:05:197
1.8781;2.6611;7.4192;2.934;4.301;8.3104;1.4296;-0.7813;3.8032;0.5269;0.5345;-0.1735;17141.0;-31.57;-7.16;-30.79;68.77;-23.09;-15.81;5.0;982.93;56.204;35.9559;-83.92777;812.01;NaN;;4.43;12.226105;38.9;16 / 21;117509;2022-10-25 13:09:05:696
6.7561;3.6918;8.1278;3.6377;3.7819;8.2846;1.0773;-0.1124;1.8949;-1.3191;-0.5915;-0.2263;23913.0;-35.87;-8.78;-24.06;76.14;-22.68;-23.71;5.0;982.89;54.27;35.9559;-83.92777;812.01;NaN;;4.43;12.226105;38.9;16 / 21;118010;2022-10-25 13:09:06:197
3.5635;0.7026;12.9891;3.1418;2.7548;8.8719;1.4207;0.0951;3.66;0.3801;0.6257;0.1162;18451.0;-38.4;-3.41;-20.74;77.77;-16.31;-19.5;5.0;982.92;54.97;35.955914;-83.927765;811.09;NaN;;4.32;12.226105;36.2;17 / 21;118510;2022-10-25 13:09:06:697
4.4088;0.6165;13.9158;2.5119;3.1494;8.941;-0.3315;-0.745;-0.3134;-0.1449;0.7264;-0.1303;20559.0;-37.43;-0.69;-25.16;70.89;-18.73;-15.69;5.0;982.91;51.461;35.955914;-83.927765;811.09;NaN;;4.32;12.226105;36.2;17 / 21;119010;2022-10-25 13:09:07:197
-3.0392;-1.7536;13.6415;-2.1608;0.6566;9.5431;-0.6052;-0.3219;1.0205;-0.4536;0.0421;0.6771;42566.0;-30.6;9.17;-36.21;74.11;-3.84;12.76;5.0;982.94;54.429;35.95592;-83.92776;811.85;NaN;;4.21;12.226105;38.6;17 / 21;119510;2022-10-25 13:09:07:697
-2.3725;1.8326;11.6498;-2.7377;1.629;9.2748;0.3048;-0.5696;1.2492;-0.3057;-0.1663;-1.7599;49105.0;-15.28;13.2;-49.54;50.87;-10.68;13.2;5.0;982.94;52.641;35.95592;-83.92776;811.85;NaN;;4.21;12.226105;38.6;17 / 21;120010;2022-10-25 13:09:08:197
-2.8346;2.6468;12.5426;-2.7774;1.5072;9.2836;-0.9282;-0.8883;0.4477;0.3509;0.1543;0.5472;47403.0;-17.62;-0.84;-53.98;80.03;-8.01;15.52;5.0;982.93;55.676;35.95593;-83.92775;812.86;NaN;;4.1;12.226105;48.8;17 / 21;120510;2022-10-25 13:09:08:697
-2.5244;1.0175;11.5481;-2.7062;2.5681;9.0693;-0.19;-1.2123;0.2897;-1.132;-0.0127;0.3771;51538.0;-12.67;-11.49;-55.22;83.61;-17.04;19.41;5.0;982.93;52.918;35.95593;-83.92775;812.86;NaN;;4.1;12.226105;48.8;17 / 21;121010;2022-10-25 13:09:09:197
-3.1878;4.2401;10.9349;-3.238;2.8189;8.817;-0.2477;0.2818;-1.3;0.3704;-0.201;0.3333;58507.0;-10.97;-15.04;-54.38;91.75;-16.71;20.17;5.0;982.92;54.077;35.955936;-83.92774;813.88;NaN;;4.25;12.226105;45.6;17 / 21;121509;2022-10-25 13:09:09:696
-3.8342;1.8793;9.0509;-3.3323;2.7073;8.8169;0.4618;-0.8904;-0.1268;0.2807;-0.2766;-1.1761;61664.0;-10.8;-21.06;-53.06;104.62;-16.03;20.7;5.0;982.9;53.688;35.955936;-83.92774;813.88;NaN;;4.25;12.226105;45.6;17 / 21;122010;2022-10-25 13:09:10:197
-6.1349;1.4222;9.0748;-4.0025;2.0616;8.712;-1.9699;-0.2185;0.2298;0.255;0.1608;1.283;64016.0;-5.77;-32.85;-49.71;128.33;-13.39;27.52;5.0;982.91;58.252;35.955944;-83.92773;813.16;NaN;;4.21;12.226105;44.4;18 / 21;122510;2022-10-25 13:09:10:697
-0.6045;2.624;9.7869;-2.2336;3.6081;8.841;0.3336;-1.7416;-1.4573;0.5851;-0.9428;0.4626;61037.0;-12.58;-30.75;-51.39;114.67;-20.28;22.44;5.0;982.92;58.643;35.955944;-83.92773;813.16;NaN;;4.21;12.226105;44.4;18 / 21;123009;2022-10-25 13:09:11:196
-3.2776;3.2991;8.6342;-2.7562;3.4858;8.742;0.253;-0.126;-0.4891;0.5676;-0.001;0.1305;52583.0;-17.33;-24.34;-51.47;113.09;-12.53;20.22;5.0;982.91;57.606;35.95595;-83.92772;813.23;NaN;;4.39;12.226105;39.0;18 / 21;123509;2022-10-25 13:09:11:696
-2.3354;5.2777;6.9727;-1.9556;4.6409;8.4147;-0.2286;-2.1052;0.8265;0.6991;0.4506;0.8951;6226.0;-13.54;-27.09;-46.41;99.63;-28.25;13.08;5.0;982.89;54.897;35.95595;-83.92772;813.23;NaN;;4.39;12.226105;39.0;18 / 21;124009;2022-10-25 13:09:12:196
-0.1974;-1.1695;10.5963;-0.6008;0.804;9.7552;-0.3468;0.329;-1.5019;-2.5317;-0.0431;0.7542;52361.0;-16.12;-15.56;-45.64;123.12;-4.7;3.52;5.0;982.89;51.818;35.95596;-83.92771;814.25;NaN;;4.32;12.226105;31.2;18 / 21;124510;2022-10-25 13:09:12:697
-0.425;1.7441;9.2833;-0.9255;1.4767;9.6505;0.5362;-1.2359;-0.077;0.0445;-0.067;0.7453;29176.998;-17.19;-3.99;-45.58;82.79;-8.66;5.48;5.0;982.9;50.324;35.95596;-83.92771;814.25;NaN;;4.32;12.226105;31.2;18 / 21;125009;2022-10-25 13:09:13:196
-0.134;1.8661;9.0209;-0.0789;2.1324;9.5717;-0.2036;-0.4695;-0.5222;0.335;-0.2414;-0.0649;35124.0;-17.19;-5.83;-43.27;78.72;-12.56;0.47;5.0;982.89;51.104;35.955967;-83.927704;816.3;NaN;;4.39;12.226105;34.3;18 / 21;125509;2022-10-25 13:09:13:696
-0.2934;2.9471;7.3271;0.2633;3.352;9.2122;-0.4502;-0.9835;-0.463;-0.0065;0.2454;0.5632;47728.0;-18.41;-6.82;-41.76;63.6;-21.12;-0.69;5.0;982.88;53.035;35.955967;-83.927704;816.3;NaN;;4.39;12.226105;34.3;18 / 21;126010;2022-10-25 13:09:14:197
0.1651;2.3749;8.1951;0.8965;3.2488;9.2094;0.5445;-1.2871;0.0727;-0.3101;-0.0722;-0.1486;46876.0;-19.86;-4.54;-39.56;60.38;-19.35;-5.56;5.0;982.89;52.313;35.955975;-83.9277;815.79;NaN;;4.14;12.226105;39.9;18 / 21;126510;2022-10-25 13:09:14:697
1.118;3.8342;8.5923;0.5692;3.5218;9.1347;-0.6449;-0.4642;-1.0793;-0.3392;0.0554;0.1952;44893.0;-20.4;-4.12;-38.16;63.2;-18.31;-4.44;5.0;982.88;50.597;35.955975;-83.9277;815.79;NaN;;4.14;12.226105;39.9;18 / 21;127010;2022-10-25 13:09:15:197
0.5112;3.845;7.0663;0.6082;4.1271;8.8751;1.3158;-0.422;1.7708;-0.4095;0.1626;-0.118;47327.0;-18.34;-5.53;-38.98;53.18;-24.89;-3.92;5.0;982.89;50.11;35.955975;-83.92769;814.85;NaN;;4.1;12.226105;43.4;19 / 21;127510;2022-10-25 13:09:15:697
0.376;3.4522;9.2291;0.064;3.7759;9.0503;-0.2078;-1.8027;1.5876;0.139;-0.0166;0.3468;46245.0;-16.58;-4.16;-40.59;54.0;-22.65;-0.41;5.0;982.91;52.54;35.955975;-83.92769;814.85;NaN;;4.1;12.226105;43.4;19 / 21;128010;2022-10-25 13:09:16:197
1.5526;4.6277;8.5349;0.3409;4.3448;8.7851;0.0556;-2.0274;0.574;-0.0852;0.0163;0.075;46350.0;-15.11;-6.56;-43.14;49.77;-24.81;-1.34;5.0;982.91;53.733;35.955982;-83.92768;815.9;NaN;;4.21;12.226105;45.8;18 / 21;128510;2022-10-25 13:09:16:697
0.0634;2.9973;10.5808;0.252;4.0465;8.9293;0.3789;0.4697;2.149;-0.211;0.1533;-0.0371;43373.0;-15.64;-9.94;-43.39;61.73;-24.11;-0.33;5.0;982.89;52.934;35.955982;-83.92768;815.9;NaN;;4.21;12.226105;45.8;18 / 21;129010;2022-10-25 13:09:17:197
1.707;3.9156;8.8128;0.4132;3.766;9.0453;1.1675;-0.0955;2.6389;-0.0058;0.059;-0.3325;42947.0;-16.29;-10.67;-40.54;57.49;-26.24;-3.37;5.0;982.9;52.943;35.955994;-83.927666;816.28;NaN;;4.39;12.226105;47.2;18 / 21;129510;2022-10-25 13:09:17:697
-0.437;2.7305;9.8758;0.2086;4.0676;8.9209;-0.5943;-0.0558;1.0403;0.3089;0.077;0.3458;41344.0;-16.2;-8.89;-36.73;64.22;-24.51;-1.34;5.0;982.9;52.074;35.955994;-83.927666;816.28;NaN;;4.39;12.226105;47.2;18 / 21;130010;2022-10-25 13:09:18:197
-2.0088;-0.8067;11.2666;-0.0104;2.6447;9.4433;0.6679;-0.9324;2.3976;-1.6941;0.7585;-0.8457;42363.0;-14.08;-2.85;-35.68;64.1;-15.65;0.06;5.0;982.93;52.804;35.956;-83.92766;816.76;NaN;;4.43;12.226105;41.3;18 / 21;130509;2022-10-25 13:09:18:696
-3.5539;-0.8501;13.171;-2.0047;1.5173;9.4789;0.0106;0.1652;0.5752;-0.8594;-0.0721;0.2772;47864.0;-9.67;4.54;-37.24;59.63;-8.9;11.94;5.0;982.91;54.352;35.956;-83.92766;816.76;NaN;;4.43;12.226105;41.3;18 / 21;131009;2022-10-25 13:09:19:196
-0.1603;-0.285;11.1972;-1.2421;1.0694;9.6687;0.0587;-1.8918;-0.2607;-0.5253;-0.3952;-0.161;45132.0;-4.07;10.67;-40.2;30.8;-6.26;7.32;5.0;982.93;52.689;35.95601;-83.92765;816.44;NaN;;4.07;12.226105;38.8;18 / 21;131510;2022-10-25 13:09:19:697
-1.7776;-1.9199;16.7013;-0.6318;0.7402;9.7582;-0.6254;0.0404;1.2468;-0.1145;-0.3636;-0.4135;40251.0;-6.54;12.47;-41.68;43.51;-1.33;7.31;5.0;982.91;53.267;35.95601;-83.92765;816.44;NaN;;4.07;12.226105;38.8;18 / 21;132010;2022-10-25 13:09:20:197
0.8234;1.1539;9.2351;-1.2855;2.1995;9.47;0.8093;-0.9126;-2.027;-0.4137;-0.2504;-0.315;45546.0;-7.24;6.24;-44.31;42.43;-11.37;8.0;5.0;982.93;58.806;35.956017;-83.92764;816.23;NaN;;4.39;12.226105;45.2;18 / 21;132510;2022-10-25 13:09:20:697
-2.5642;-2.3605;16.3732;-1.6728;-0.2692;9.6592;-2.0818;-0.3339;1.1599;-0.1332;-0.2866;0.3056;42492.0;-8.49;5.93;-43.16;68.45;0.73;7.91;5.0;982.93;56.752;35.956017;-83.92764;816.23;NaN;;4.39;12.226105;45.2;18 / 21;133010;2022-10-25 13:09:21:197
-1.051;0.1819;8.7135;-2.908;1.6467;9.2197;2.1574;-0.8617;-2.4365;-0.9938;-0.5136;-1.3975;49771.0;-4.31;4.91;-41.94;55.15;-9.67;17.51;5.0;982.91;55.922;35.956028;-83.927635;815.94;NaN;;4.43;12.226105;45.3;18 / 21;133510;2022-10-25 13:09:21:697
-5.8032;-2.2923;9.6601;-3.1492;-1.7519;9.1205;-2.0333;0.1358;0.3771;-0.2292;0.3031;0.3035;51875.0;-2.93;7.58;-40.56;86.04;10.29;19.05;5.0;982.97;57.525;35.956028;-83.927635;815.94;NaN;;4.43;12.226105;45.3;18 / 21;134010;2022-10-25 13:09:22:197
-1.8087;1.957;9.1968;-3.0818;2.5025;8.9672;-0.6325;-1.676;-2.6921;-0.0095;-0.582;1.2901;55469.0;3.04;4.93;-41.46;62.58;-6.01;28.8;5.0;982.91;56.982;35.956036;-83.92763;816.71;NaN;;4.07;12.226105;55.2;18 / 21;134510;2022-10-25 13:09:22:697
-4.0101;0.3808;8.7852;-4.1092;1.1858;8.8249;-0.7957;0.3166;-2.7657;0.7308;-2.2877;-0.7807;60267.0;5.72;0.49;-41.55;67.79;-7.38;25.59;5.0;982.89;53.751;35.956036;-83.92763;816.71;NaN;;4.07;12.226105;55.2;18 / 21;135010;2022-10-25 13:09:23:197
4.4518;0.778;-2.126;6.8442;6.7871;-1.8062;-3.4878;-5.3112;-0.5331;0.5471;-1.6699;2.5598;15397.0;-21.3;-18.56;-14.83;301.24;-54.59;-82.98;5.0;982.88;54.696;35.956043;-83.92761;816.7;NaN;;4.5;12.226105;40.3;19 / 21;135510;2022-10-25 13:09:23:697
9.2976;1.8541;-0.5076;9.4964;-0.7541;-2.328;0.1335;2.0643;3.6999;-0.2011;-0.5349;-0.1163;8090.0;-34.35;-10.12;22.71;132.23;4.41;-103.77;5.0;982.89;57.643;35.956043;-83.92761;816.7;NaN;;4.5;12.226105;40.3;19 / 21;136011;2022-10-25 13:09:24:198
5.0252;-3.693;-2.9566;9.4233;1.9622;-1.8764;-3.3417;-4.3944;-0.2761;2.5625;0.112;-0.7407;8396.0;-31.86;-6.75;22.73;88.88;-11.54;-101.26;5.0;982.88;63.384;35.956047;-83.9276;815.37;NaN;;4.25;12.226105;54.6;19 / 21;136510;2022-10-25 13:09:24:697
10.2132;-0.2838;-1.8362;9.2621;-1.8066;-2.6685;1.6494;1.5542;1.058;-0.2013;-0.1087;0.9801;8213.0;-24.06;-3.07;28.28;113.06;10.62;-106.07;5.0;982.9;58.894;35.956047;-83.9276;815.37;NaN;;4.25;12.226105;54.6;19 / 21;137010;2022-10-25 13:09:25:197
5.8415;-2.8394;-1.1946;9.7027;1.0177;-0.9958;-1.2857;-3.2773;-1.0625;1.3774;0.8478;-2.3528;7300.0;-23.27;5.03;31.46;74.92;-5.96;-95.86;5.0;982.89;65.295;35.956055;-83.92759;816.42;NaN;;4.39;12.226105;42.4;19 / 21;137510;2022-10-25 13:09:25:697
8.9611;0.3185;-0.8282;9.4729;-1.2205;-2.2237;-1.0107;1.3027;1.0905;-1.0765;0.0924;1.098;7845.0;-31.65;5.91;28.76;74.11;0.59;-105.07;5.0;982.91;53.115;35.956055;-83.92759;816.42;NaN;;4.39;12.226105;42.4;19 / 21;138009;2022-10-25 13:09:26:196
8.1556;-1.9283;-1.4462;9.7114;-0.2984;-1.3308;0.976;-0.746;0.735;1.1527;0.6764;-2.0077;6012.0;-29.12;11.66;28.84;66.07;1.74;-97.8;5.0;982.9;59.196;35.956062;-83.92758;815.76;NaN;;4.39;12.226105;29.5;19 / 21;138510;2022-10-25 13:09:26:697
8.1927;-0.4454;-1.6077;9.5817;-0.5777;-2.0069;-1.6445;0.6559;-0.519;-0.7035;-0.3996;1.4386;9471.0;-37.95;1.89;18.84;64.47;-6.32;-98.12;5.0;982.91;51.319;35.956062;-83.92758;815.76;NaN;;4.39;12.226105;29.5;19 / 21;139009;2022-10-25 13:09:27:196
9.2028;-2.636;-2.2241;9.4506;-1.7806;-1.9198;3.8724;0.2435;2.664;1.7941;-0.0132;-2.3687;6044.0;-31.95;9.77;21.84;77.58;10.46;-101.48;5.0;982.87;53.485;35.956074;-83.92758;815.41;NaN;;4.32;12.226105;28.8;19 / 21;139509;2022-10-25 13:09:27:696
10.4264;0.2381;-2.9243;9.4783;-0.0699;-2.5154;0.5862;-1.0349;-1.0704;-0.2307;-0.3749;1.9106;9035.0;-29.14;-3.43;16.88;109.76;0.41;-104.86;5.0;982.92;58.29;35.956074;-83.92758;815.41;NaN;;4.32;12.226105;28.8;19 / 21;140010;2022-10-25 13:09:28:197
8.9599;-2.2851;-2.3222;9.6646;0.4039;-1.6132;0.1299;-3.0734;-0.2668;1.6329;0.6744;-2.3382;5083.0;-22.69;6.6;26.21;89.03;12.64;-107.79;5.0;982.89;58.874;35.956085;-83.92757;814.24;NaN;;4.64;12.226105;34.6;19 / 21;140510;2022-10-25 13:09:28:697
8.6079;0.5028;-2.7042;9.5426;0.6956;-2.1507;1.0093;-2.2507;-1.6581;-0.2498;-0.6593;2.16;9624.0;-32.89;4.58;29.08;52.95;-20.04;-99.49;5.0;982.9;58.572;35.956085;-83.92757;814.24;NaN;;4.64;12.226105;34.6;19 / 21;141010;2022-10-25 13:09:29:197
11.1589;-2.983;-1.9295;9.6082;-0.2646;-1.9448;2.033;-2.6374;0.108;1.8487;0.5498;-2.8908;5343.0;-22.91;19.29;37.31;72.87;16.82;-110.32;5.0;982.85;67.93;35.956097;-83.92756;811.74;NaN;;4.36;12.226105;35.3;19 / 21;141510;2022-10-25 13:09:29:697
10.2515;-0.7385;-1.3406;9.4209;0.3572;-2.7001;1.1154;-2.0759;-2.5945;-0.4971;-0.6835;2.4206;8697.0;-41.23;4.28;30.24;71.9;-2.09;-105.99;5.0;982.87;59.662;35.956097;-83.92756;811.74;NaN;;4.36;12.226105;35.3;19 / 21;142009;2022-10-25 13:09:30:196
11.5792;-2.9279;-1.8087;9.3781;-2.0262;-2.0288;4.9601;-1.0306;0.6749;1.2566;0.7076;-2.5256;5524.0;-31.82;17.21;34.16;71.83;11.92;-102.21;5.0;982.9;63.933;35.956104;-83.92755;810.12;NaN;;4.32;12.226105;31.9;19 / 21;142510;2022-10-25 13:09:30:697
11.1876;-0.3305;-2.2397;9.472;0.5905;-2.4704;-2.8667;-6.5864;-1.3077;-1.7627;0.2687;1.8535;8572.0;-40.59;7.43;25.07;54.83;-3.45;-104.62;5.0;982.91;61.36;35.956104;-83.92755;810.12;NaN;;4.32;12.226105;31.9;19 / 21;143010;2022-10-25 13:09:31:197
15.7077;-3.8163;0.3078;9.5045;-1.5265;-1.872;6.1293;0.3805;3.8587;1.961;1.6189;-2.5414;5391.0;-30.07;20.59;31.13;58.26;8.95;-101.14;5.0;982.85;65.401;35.956112;-83.92755;809.42;NaN;;4.5;12.226105;36.7;19 / 21;143510;2022-10-25 13:09:31:697
2.2696;4.2748;7.8156;1.3059;4.7958;8.4537;1.9912;-1.0312;-1.4413;0.8785;0.5022;-0.216;34368.0;-29.36;-4.54;-24.04;71.12;-25.64;-11.24;5.0;982.9;64.775;35.956112;-83.92755;809.42;NaN;;4.5;12.226105;36.7;19 / 21;144010;2022-10-25 13:09:32:197
-4.0711;3.4558;5.0025;-1.2437;5.2135;8.2124;5.8611;4.4642;10.5305;-0.129;3.3167;-1.2124;55392.0;-14.53;-18.21;-36.79;56.22;-40.44;0.45;5.0;982.9;50.1;35.95612;-83.927536;811.48;NaN;;4.72;12.226105;37.0;19 / 21;144509;2022-10-25 13:09:32:696
11.8244;3.8055;1.7991;8.785;4.3242;0.5435;6.1463;0.1173;3.1692;-1.0927;-2.1491;2.5096;11208.0;-19.91;-22.03;-20.03;290.48;-50.73;-74.31;5.0;982.91;64.891;35.95612;-83.927536;811.48;NaN;;4.72;12.226105;37.0;19 / 21;145009;2022-10-25 13:09:33:196
10.005;-1.0128;-1.4593;9.3424;-2.1194;-2.0973;6.7772;3.1988;3.3744;1.4169;0.3115;-1.7751;9792.0;-33.81;1.99;18.15;120.96;12.48;-102.65;5.0;982.86;59.452;35.956127;-83.92753;810.28;NaN;;4.32;12.226105;40.8;19 / 21;145509;2022-10-25 13:09:33:696
13.4477;-0.9948;-4.5643;9.5013;0.4894;-2.3784;-0.2374;-1.2989;-0.554;-0.5386;-0.0204;1.3566;9863.0;-29.61;6.23;16.07;47.16;-2.86;-104.05;5.0;982.9;61.931;35.956127;-83.92753;810.28;NaN;;4.32;12.226105;40.8;19 / 21;146010;2022-10-25 13:09:34:197
9.4807;-2.0255;-1.3753;9.219;-1.979;-2.6953;3.934;0.0305;1.7515;1.4694;0.1855;-1.882;7136.0;-21.24;12.39;18.81;72.96;18.42;-112.09;5.0;982.91;59.87;35.956135;-83.92752;809.79;NaN;;4.0;12.226105;41.8;19 / 21;146509;2022-10-25 13:09:34:696
9.2172;-0.3185;-4.4758;9.4248;1.1709;-2.444;-0.7026;-5.0871;-0.6454;-0.371;-0.1641;1.4864;10584.0;-24.19;10.26;18.23;38.22;-9.23;-104.78;5.0;982.87;65.108;35.956135;-83.92752;809.79;NaN;;4.0;12.226105;41.8;19 / 21;147009;2022-10-25 13:09:35:196
12.9509;-2.9363;-1.5802;9.1419;-2.2812;-2.7187;2.5205;1.3645;1.0764;0.6185;0.318;-1.3752;6153.0;-20.27;17.83;23.1;61.91;20.44;-111.99;5.0;982.92;54.895;35.956142;-83.92751;808.3;NaN;;3.28;12.226105;52.1;19 / 21;147510;2022-10-25 13:09:35:697
13.6475;-1.8218;-3.7229;9.3708;0.7549;-2.7909;-0.8636;-3.7653;-1.1135;-0.4863;-0.3825;1.3889;9911.0;-34.01;10.86;25.52;47.28;-4.42;-106.59;5.0;982.89;55.65;35.956142;-83.92751;808.3;NaN;;3.28;12.226105;52.1;19 / 21;148010;2022-10-25 13:09:36:197
10.5174;-2.9495;-4.1046;8.3907;-3.7275;-3.4456;6.3721;2.8779;1.9679;0.872;0.4019;-0.9654;6097.0;-29.74;15.99;30.11;90.28;22.34;-112.33;5.0;982.91;58.913;35.956146;-83.927505;807.19;NaN;;3.56;12.226105;38.1;19 / 21;148510;2022-10-25 13:09:36:697
9.3969;-2.1081;-0.5985;9.4286;0.4175;-2.6642;-1.7215;-3.9069;-0.0721;-0.4929;0.2747;1.6025;9370.0;-30.71;11.63;27.99;53.74;-2.44;-105.78;5.0;982.9;65.19;35.956146;-83.927505;807.19;NaN;;3.56;12.226105;38.1;19 / 21;149010;2022-10-25 13:09:37:197
14.3958;-2.8023;-2.5427;8.4967;-4.1364;-2.6205;3.3348;2.7467;-0.488;-0.5671;0.0976;0.2866;4517.0;-23.55;17.18;29.12;84.09;24.95;-107.14;5.0;982.89;57.996;35.956154;-83.9275;806.74;NaN;;3.82;12.226105;46.6;19 / 21;149510;2022-10-25 13:09:37:697
7.6576;-3.9945;-3.0969;9.4731;0.5153;-2.4831;-0.0942;-5.6117;-0.9872;-0.5346;-0.1542;1.3427;9310.0;-31.42;14.81;25.95;45.78;-5.15;-102.52;5.0;982.89;65.333;35.956154;-83.9275;806.74;NaN;;3.82;12.226105;46.6;19 / 21;150010;2022-10-25 13:09:38:197
15.3401;-2.9877;-3.5396;8.4123;-3.9639;-3.1131;0.9601;3.4357;1.7025;-0.1936;-0.0475;1.1328;6193.0;-32.46;14.01;25.37;77.14;15.57;-107.13;5.0;982.89;59.307;35.956165;-83.92749;803.36;NaN;;4.18;12.226105;36.3;19 / 21;150510;2022-10-25 13:09:38:697
8.9671;-4.8039;-2.6503;9.3567;1.3163;-2.6248;-2.4297;-5.3372;-0.1017;-0.887;-0.0671;0.5379;9163.0;-29.85;13.01;25.11;49.9;-2.5;-103.61;5.0;982.9;62.771;35.956165;-83.92749;803.36;NaN;;4.18;12.226105;36.3;19 / 21;151011;2022-10-25 13:09:39:198
16.7779;-3.0583;-2.6767;8.2665;-4.2305;-3.1525;1.2993;3.6556;0.1104;-0.5107;0.682;-0.3724;6535.0;-26.89;9.23;22.5;117.95;25.56;-110.87;5.0;982.91;55.293;35.956173;-83.927475;802.17;NaN;;4.43;12.226105;43.0;19 / 21;151510;2022-10-25 13:09:39:697
6.1947;-4.3095;-2.394;9.2439;2.2939;-2.3365;-3.6619;-5.7672;-0.1929;0.2679;-0.2118;-0.4131;9239.0;-22.31;10.8;18.62;37.84;-13.53;-104.18;5.0;982.9;64.563;35.956173;-83.927475;802.17;NaN;;4.43;12.226105;43.0;19 / 21;152010;2022-10-25 13:09:40:197
15.5964;-2.8358;-3.1065;7.7394;-5.1403;-3.1384;2.6737;5.539;0.8413;-0.3723;-0.0244;0.6565;6146.0;-20.49;12.84;17.46;57.2;13.98;-106.62;5.0;982.9;54.605;35.95618;-83.92747;804.86;NaN;;4.5;12.226105;42.8;19 / 21;152510;2022-10-25 13:09:40:697
7.2924;-4.5799;-2.4909;9.555;1.2555;-1.8155;-2.6428;-4.9579;-0.5211;0.8422;-0.2503;-1.7195;8929.0;-15.73;19.31;21.66;50.87;8.56;-97.72;5.0;982.9;67.17;35.95618;-83.92747;804.86;NaN;;4.5;12.226105;42.8;19 / 21;153011;2022-10-25 13:09:41:198
10.0959;0.2309;-2.1224;7.8636;-5.0117;-3.036;2.3766;4.6087;0.5546;-0.7368;0.1061;1.2231;7352.0;-27.11;20.19;20.64;57.61;19.87;-106.24;5.0;982.89;55.106;35.956192;-83.92746;803.42;NaN;;4.64;12.226105;44.4;18 / 21;153510;2022-10-25 13:09:41:697
6.9619;-4.9235;-2.4766;9.6535;0.2078;-1.7139;-1.4352;-3.85;-0.2372;1.2696;-0.2186;-2.5789;6282.0;-26.78;26.23;22.2;32.45;-1.21;-100.07;5.0;982.88;62.871;35.956192;-83.92746;803.42;NaN;;4.64;12.226105;44.4;18 / 21;154010;2022-10-25 13:09:42:197
14.4724;-0.9386;-2.1775;7.9338;-4.798;-3.1944;2.8374;3.7816;-0.215;-0.9568;-0.0473;2.2122;6646.0;-39.45;22.58;19.74;108.01;29.29;-111.93;5.0;982.89;57.437;35.9562;-83.92744;802.76;NaN;;4.61;12.226105;42.7;18 / 21;154510;2022-10-25 13:09:42:697
5.7159;-4.3286;-2.5149;9.6664;0.1419;-1.6465;-0.3336;-5.0359;-0.3899;0.407;-0.4894;-0.8155;6013.0;-33.11;27.81;24.09;32.42;-0.83;-99.67;5.0;982.9;66.791;35.9562;-83.92744;802.76;NaN;;4.61;12.226105;42.7;18 / 21;155010;2022-10-25 13:09:43:197
10.631;-0.0945;-2.6779;8.1491;-4.438;-3.1727;2.2606;3.5225;0.1045;-0.7996;-0.1397;2.1534;6164.0;-41.57;8.85;26.16;147.21;26.91;-111.27;5.0;982.91;60.551;35.956207;-83.92743;803.11;NaN;;4.36;12.226105;36.4;18 / 21;155511;2022-10-25 13:09:43:698
6.0966;-3.845;-3.122;8.8709;3.2678;-2.6076;-2.2814;-7.1624;-0.2506;0.8466;-0.4035;-2.026;5964.0;-34.59;13.52;31.93;60.5;1.72;-104.09;5.0;982.89;66.273;35.956207;-83.92743;803.11;NaN;;4.36;12.226105;36.4;18 / 21;156010;2022-10-25 13:09:44:197
11.5935;1.628;-3.3314;9.0441;-1.8186;-3.3268;0.0729;0.8692;-1.2101;-1.1099;-0.1027;2.5075;7482.0;-35.29;-0.43;27.69;119.05;10.69;-110.2;5.0;982.91;51.064;35.956215;-83.927414;802.55;NaN;;4.64;12.226105;53.4;19 / 21;156510;2022-10-25 13:09:44:697
7.1584;-3.3805;-2.7772;9.366;1.6032;-2.4245;-0.5128;-4.6264;-0.2351;1.3143;0.118;-2.7249;6519.0;-29.03;10.29;29.89;79.42;9.69;-108.01;5.0;982.88;57.329;35.956215;-83.927414;802.55;NaN;;4.64;12.226105;53.4;19 / 21;157009;2022-10-25 13:09:45:196
10.7267;-0.4143;-3.2883;9.2157;-1.0346;-3.1892;0.2337;-1.0783;-1.6139;-1.6772;0.3303;2.2987;7596.0;-32.04;3.73;28.01;90.64;6.06;-109.09;5.0;982.89;49.616;35.956223;-83.92741;801.16;NaN;;4.5;12.226105;35.8;19 / 21;157509;2022-10-25 13:09:45:696
7.5894;-3.717;-2.4455;9.5682;0.21;-2.1392;0.5072;-3.6942;-0.3036;1.1152;0.4958;-2.9778;6180.0;-23.01;15.62;31.16;56.63;-1.23;-102.6;5.0;982.87;57.527;35.956223;-83.92741;801.16;NaN;;4.5;12.226105;35.8;19 / 21;158009;2022-10-25 13:09:46:196
11.0668;-0.571;-1.6436;8.433;-3.61;-3.4674;1.8425;3.1793;0.4529;-1.5177;0.0207;2.2464;8265.0;-35.1;9.21;25.73;39.36;-14.94;-105.46;5.0;982.92;50.221;35.95623;-83.9274;803.18;NaN;;4.54;12.226105;41.2;19 / 21;158509;2022-10-25 13:09:46:696
7.6397;-3.4463;-2.2241;9.4137;-1.7085;-2.1525;3.2806;-2.796;-0.1044;2.0746;0.1032;-2.9389;5981.0;-23.87;22.52;34.33;76.01;25.6;-112.76;5.0;982.9;58.888;35.95623;-83.9274;803.18;NaN;;4.54;12.226105;41.2;19 / 21;159010;2022-10-25 13:09:47:197
7.7258;-0.2429;-3.0535;9.291;-0.9597;-2.9878;-1.4207;0.0924;-0.4981;-0.8271;-0.1452;2.3838;8031.0;-41.32;5.1;28.24;54.06;-8.29;-105.34;5.0;982.9;52.314;35.95624;-83.92739;801.92;NaN;;4.39;12.226105;38.7;19 / 21;159511;2022-10-25 13:09:47:698
8.5708;-3.5049;-3.0344;8.9177;-2.9028;-2.867;4.152;1.1899;2.0352;2.2429;0.1119;-2.6499;5712.0;-28.24;16.63;35.06;78.19;17.22;-107.82;5.0;982.88;57.257;35.95624;-83.92739;801.92;NaN;;4.39;12.226105;38.7;19 / 21;160010;2022-10-25 13:09:48:197
9.3431;-0.5052;-4.1166;9.3865;-0.6962;-2.753;0.8948;-1.5615;-1.8016;0.5056;-0.4943;2.1319;8407.0;-36.39;10.28;21.64;57.17;4.07;-106.35;5.0;982.89;53.341;35.956253;-83.927376;803.64;NaN;;4.68;12.226105;49.8;19 / 21;160510;2022-10-25 13:09:48:697
9.95;-3.7349;-1.6567;8.7572;-3.3812;-2.8372;4.3837;2.901;0.296;1.2592;0.454;-2.7657;4865.0;-22.71;26.31;23.72;47.73;20.17;-107.95;5.0;982.9;57.584;35.956253;-83.927376;803.64;NaN;;4.68;12.226105;49.8;19 / 21;161010;2022-10-25 13:09:49:197
10.6394;-1.6699;-3.1771;9.3842;-0.8739;-2.7099;2.1233;-2.0551;-0.7523;-0.4892;-0.4817;2.3407;8411.0;-50.21;17.44;19.78;23.73;5.11;-106.11;5.0;982.88;60.023;35.95626;-83.927376;804.64;NaN;;4.68;12.226105;32.8;19 / 21;161509;2022-10-25 13:09:49:696
9.4208;-3.0368;-1.1862;9.1991;-2.5331;-2.265;3.1527;-0.3977;-0.0613;0.2094;0.9073;-2.2441;4801.0;-36.66;45.11;27.38;33.0;26.81;-109.32;5.0;982.9;56.908;35.95626;-83.927376;804.64;NaN;;4.68;12.226105;32.8;19 / 21;162011;2022-10-25 13:09:50:198
12.6577;-2.1763;-4.6205;9.5546;-0.226;-2.1976;-0.8844;-3.5718;-0.6682;-0.4048;-0.1925;2.1426;8099.0;-81.94;15.45;9.56;326.61;1.32;-102.95;5.0;982.93;57.255;35.956272;-83.92736;803.47;NaN;;4.39;12.226105;39.5;19 / 21;162510;2022-10-25 13:09:50:697
11.5935;-4.6923;-1.7405;8.7818;-3.6408;-2.4072;4.7927;2.4692;0.0792;-0.1249;1.0454;-2.1107;4299.0;-80.27;37.16;9.08;248.99;30.0;-109.76;5.0;982.92;58.422;35.956272;-83.92736;803.47;NaN;;4.39;12.226105;39.5;19 / 21;163011;2022-10-25 13:09:51:198
12.1801;-3.0643;-5.3605;9.3343;1.9827;-2.2605;-2.125;-6.0692;-0.729;-0.6984;-0.1059;2.2162;9382.0;-69.49;-5.85;-4.24;290.42;-11.66;-103.61;5.0;982.92;56.327;35.95628;-83.92735;804.95;NaN;;4.64;12.226105;51.9;19 / 21;163510;2022-10-25 13:09:51:697
16.7133;-5.4849;0.3353;7.7618;-4.5424;-3.9105;9.34;3.3661;4.0512;0.3169;2.0685;-2.0249;6959.0;-59.94;23.36;4.07;257.32;27.59;-116.74;5.0;982.88;54.791;35.95628;-83.92735;804.95;NaN;;4.64;12.226105;51.9;19 / 21;164011;2022-10-25 13:09:52:198
13.0394;-1.0905;-3.5384;9.3729;0.579;-2.8257;0.4526;-2.7955;0.0835;-0.495;-0.0909;2.6871;9422.0;-53.23;-2.46;6.49;326.96;-20.39;-107.95;5.0;982.9;56.86;35.956287;-83.927345;802.61;NaN;;4.25;12.226105;33.8;19 / 21;164510;2022-10-25 13:09:52:697
12.9987;-4.5607;-1.7788;7.6324;-4.8383;-3.8089;10.5773;2.115;3.7133;-0.408;1.3482;-0.7589;6271.0;-49.37;0.75;10.22;205.71;27.21;-113.47;5.0;982.88;54.892;35.956287;-83.927345;802.61;NaN;;4.25;12.226105;33.8;19 / 21;165010;2022-10-25 13:09:53:197
11.1637;-2.1224;-1.8601;9.2413;1.4303;-2.9536;-1.4283;-4.6939;0.9021;0.0963;0.3819;2.3626;9068.0;-39.24;-6.52;14.31;4.5;-18.36;-109.05;5.0;982.9;64.167;35.9563;-83.92734;802.09;NaN;;4.79;12.226105;37.9;19 / 21;165509;2022-10-25 13:09:53:696
14.5526;-3.6473;-1.2138;8.3628;-3.68;-3.5626;7.9522;3.424;0.8291;-1.1516;0.9332;-1.0299;5453.0;-35.4;1.76;17.74;167.55;22.04;-113.07;5.0;982.91;53.737;35.9563;-83.92734;802.09;NaN;;4.79;12.226105;37.9;19 / 21;166009;2022-10-25 13:09:54:196
10.8009;-3.8916;-3.0069;8.8275;2.0713;-3.7357;-1.8248;-5.4359;0.3332;-1.7634;0.8455;3.2353;9187.0;-24.56;-3.73;11.01;11.77;-12.19;-112.94;5.0;982.93;59.036;35.956306;-83.92733;801.89;NaN;;4.43;12.226105;39.1;19 / 21;166511;2022-10-25 13:09:54:698
14.6997;-6.615;-2.8908;7.254;-4.971;-4.3404;10.9165;3.0597;4.0948;2.9191;0.3217;-3.7234;7027.0;-16.31;11.36;11.87;106.1;30.46;-120.89;5.0;982.89;60.305;35.956306;-83.92733;801.89;NaN;;4.43;12.226105;39.1;19 / 21;167009;2022-10-25 13:09:55:196
10.9134;-3.4786;-4.9786;9.3297;0.3934;-2.9953;0.4633;-4.8066;-0.8643;-0.7854;0.6686;2.0238;8616.0;-25.52;11.7;-2.23;322.76;-2.3;-107.8;5.0;982.9;48.764;35.95632;-83.92732;800.93;NaN;;4.46;12.226105;40.0;19 / 21;167510;2022-10-25 13:09:55:697
9.5836;-4.2975;-1.5036;9.3546;-2.2521;-1.8948;3.5641;-2.0456;0.6608;1.6371;0.6943;-2.7762;5347.0;-15.97;27.77;-3.21;332.26;29.14;-114.97;5.0;982.92;51.584;35.95632;-83.92732;800.93;NaN;;4.46;12.226105;40.0;19 / 21;168010;2022-10-25 13:09:56:197
8.0489;0.6392;-4.113;9.5461;0.327;-2.2217;1.5844;-2.2084;-0.6068;0.0904;0.2154;1.3425;8464.0;-30.62;18.84;-2.77;333.52;-1.91;-103.1;5.0;982.94;54.672;35.95633;-83.927315;802.0;NaN;;4.46;12.226105;43.7;18 / 21;168510;2022-10-25 13:09:56:697
6.8004;-3.3362;-4.1584;9.6831;-0.4352;-1.4892;0.1991;-1.7234;0.5619;2.3324;0.0624;-2.6961;5834.0;-24.75;26.27;3.68;347.04;17.61;-108.09;5.0;982.92;53.639;35.95633;-83.927315;802.0;NaN;;4.46;12.226105;43.7;18 / 21;169010;2022-10-25 13:09:57:197
8.1712;-0.3245;-1.7309;9.1228;-2.0634;-2.9475;3.742;-1.9065;-1.5519;-0.0456;-0.4319;1.5523;7291.0;-26.23;12.84;6.62;349.3;12.15;-107.91;5.0;982.93;54.397;35.956337;-83.92731;799.94;NaN;;4.43;12.226105;41.6;18 / 21;169509;2022-10-25 13:09:57:696
10.0517;-4.9056;-0.984;9.6882;-0.797;-1.2937;5.3198;-4.8879;-0.7179;1.3942;0.9786;-3.0895;5225.0;-13.82;24.24;14.03;27.97;4.66;-97.61;5.0;982.93;55.814;35.956337;-83.92731;799.94;NaN;;4.43;12.226105;41.6;18 / 21;170011;2022-10-25 13:09:58:198
10.1306;1.6735;-1.3071;8.8467;-0.5697;-4.193;2.7668;1.9266;1.5159;-0.8052;-1.1361;2.5183;7779.0;-33.77;10.58;19.97;19.16;-16.8;-109.44;5.0;982.93;54.958;35.956345;-83.927284;799.45;NaN;;5.29;12.226105;40.6;18 / 21;170511;2022-10-25 13:09:58:698
9.5225;-4.4853;-4.5775;9.5097;-0.7468;-2.2755;7.7149;-1.929;0.9537;2.9602;1.3742;-3.422;5261.0;-23.19;14.81;38.72;83.42;17.22;-122.93;5.0;982.91;59.521;35.956345;-83.927284;799.45;NaN;;5.29;12.226105;40.6;18 / 21;171009;2022-10-25 13:09:59:196
9.8973;4.2269;1.4557;9.6577;1.6896;-0.2093;1.8025;2.1717;1.0707;-1.8709;-1.1179;1.2154;8534.0;-38.7;-3.79;27.32;55.44;-26.47;-97.07;5.0;982.93;50.697;35.956352;-83.92728;800.6;NaN;;4.72;12.226105;41.6;18 / 21;171510;2022-10-25 13:09:59:697
9.7391;0.9015;-1.3107;9.6858;0.0582;-1.5338;5.4841;0.9262;2.2566;0.8715;1.1423;-0.6744;6296.0;-34.74;0.92;39.81;87.91;-0.34;-99.0;5.0;982.89;51.405;35.956352;-83.92728;800.6;NaN;;4.72;12.226105;41.6;18 / 21;172011;2022-10-25 13:10:00:198
10.2885;1.8745;2.4897;9.7034;-0.0786;-1.4172;3.6955;-0.3445;-2.3414;-3.4322;0.0607;2.1323;7597.0;-52.84;1.44;33.11;88.76;0.46;-98.31;5.0;982.96;55.703;35.95636;-83.92726;800.84;NaN;;4.64;12.226105;40.9;18 / 21;172510;2022-10-25 13:10:00:697
10.0636;-2.1081;-2.2911;9.0503;-2.109;-3.133;5.9504;2.2212;1.6703;2.7507;0.6425;-2.7356;4092.0;-47.02;14.21;37.88;85.97;12.42;-109.09;5.0;982.9;57.979;35.95636;-83.92726;800.84;NaN;;4.64;12.226105;40.9;18 / 21;173010;2022-10-25 13:10:01:197
9.757;-1.6041;-4.0938;9.447;0.3149;-2.6125;1.6354;-1.2306;-0.4885;0.2269;-0.0988;1.5766;6720.0;-48.21;-3.66;26.46;100.58;-1.84;-105.46;5.0;982.92;56.89;35.956367;-83.92725;802.34;NaN;;4.75;12.226105;44.2;18 / 21;173510;2022-10-25 13:10:01:697
8.9623;-3.2943;-1.7632;9.4612;-1.0715;-2.347;5.3644;-2.5231;-0.4378;0.2153;1.5531;-2.7264;2348.0;-39.45;16.09;41.31;100.38;21.53;-112.84;5.0;982.93;62.149;35.956367;-83.92725;802.34;NaN;;4.75;12.226105;44.2;18 / 21;174010;2022-10-25 13:10:02:197
11.8902;-2.1021;-4.0137;9.2678;1.5903;-2.7837;-0.2754;-5.9392;-1.5898;-0.6145;-0.2335;2.7225;5893.0;-46.12;-10.59;37.99;94.78;-9.33;-106.72;5.0;982.95;60.72;35.956375;-83.927246;801.47;NaN;;4.68;12.226105;41.0;18 / 21;174510;2022-10-25 13:10:02:697
8.991;-3.0332;-2.3976;9.2679;-1.8633;-2.6086;5.9721;-1.5418;-0.5992;0.4912;0.7175;-2.958;1838.0;-39.28;3.94;45.38;132.35;27.44;-115.61;5.0;982.95;60.461;35.956375;-83.927246;801.47;NaN;;4.68;12.226105;41.0;18 / 21;175010;2022-10-25 13:10:03:197
10.5329;-2.0459;-2.9016;9.2042;2.4378;-2.3474;-1.248;-7.4353;-0.2094;0.0651;-0.4555;2.8275;5229.0;-32.12;-10.24;42.6;88.87;-14.39;-104.31;5.0;982.96;64.06;35.956383;-83.92724;802.39;NaN;;4.75;12.226105;39.5;17 / 21;175509;2022-10-25 13:10:03:696
13.3005;-5.0145;-0.8943;9.0553;-2.6433;-2.6804;6.6719;-0.4881;-0.6068;-1.3541;1.4339;-2.7435;1541.0;-20.92;6.34;43.99;94.76;15.64;-106.49;5.0;982.99;54.004;35.956383;-83.92724;802.39;NaN;;4.75;12.226105;39.5;17 / 21;176010;2022-10-25 13:10:04:197
7.4073;2.983;-5.5448;8.0365;1.763;-5.3364;0.18;-0.1601;-2.6616;-0.7148;-0.2223;3.117;5153.0;-24.96;-6.23;38.1;46.24;-28.28;-126.58;5.0;982.93;64.973;35.956394;-83.92723;801.29;NaN;;4.75;12.226105;35.3;16 / 21;176510;2022-10-25 13:10:04:697
8.9755;-1.5837;-4.1417;9.0532;-0.0204;-3.7696;5.0324;0.7648;1.3454;0.4411;1.6526;-2.0069;1903.0;-15.6;-4.61;40.56;114.17;9.82;-124.38;5.0;982.92;60.242;35.956394;-83.92723;801.29;NaN;;4.75;12.226105;35.3;16 / 21;177009;2022-10-25 13:10:05:196
9.4412;1.1958;-3.2225;9.0996;0.2277;-3.6491;1.5514;0.1062;-0.1736;0.1612;-0.6914;2.5029;4266.0;-14.57;-3.68;33.53;79.03;-19.92;-110.79;5.0;982.97;62.354;35.956406;-83.927216;801.46;NaN;;4.5;12.226105;44.7;17 / 21;177510;2022-10-25 13:10:05:697
7.9041;-2.8466;-3.3087;9.3609;-0.5737;-2.8663;5.064;-1.572;0.5461;0.7442;1.5284;-2.8418;2278.0;-5.12;4.03;36.06;84.63;3.35;-107.02;5.0;982.92;63.067;35.956406;-83.927216;801.46;NaN;;4.5;12.226105;44.7;17 / 21;178011;2022-10-25 13:10:06:198
10.6478;1.6795;-5.0372;8.969;-1.7505;-3.5586;0.1492;1.5814;-1.5076;0.0666;-0.3544;2.4803;4147.0;-22.14;6.15;40.88;90.85;10.28;-111.64;5.0;982.95;61.502;35.956417;-83.92721;801.87;NaN;;4.61;12.226105;40.5;17 / 21;178509;2022-10-25 13:10:06:696
6.2593;-3.6571;-2.9961;9.4517;-1.1531;-2.3465;6.1805;-3.2797;0.9881;1.9882;0.0552;-3.0326;2742.0;-15.17;10.26;49.67;81.39;6.75;-103.94;5.0;982.95;64.394;35.956417;-83.92721;801.87;NaN;;4.61;12.226105;40.5;17 / 21;179009;2022-10-25 13:10:07:196
12.6924;1.6531;-3.5037;9.0194;-1.8176;-3.3938;1.1541;-0.1187;-1.4234;-1.0487;0.0066;3.5482;3654.0;-22.8;3.86;35.36;95.43;10.68;-110.62;5.0;982.97;59.211;35.956425;-83.9272;801.8;NaN;;4.75;12.226105;39.5;17 / 21;179511;2022-10-25 13:10:07:698
7.2565;-4.7605;-2.7126;9.7552;0.8598;-0.5166;-1.0955;-6.1594;-1.4818;2.4961;0.1674;-2.8316;2778.0;-11.19;4.89;34.91;92.0;17.74;-104.14;5.0;982.97;61.042;35.956425;-83.9272;801.8;NaN;;4.75;12.226105;39.5;17 / 21;180010;2022-10-25 13:10:08:197
11.3815;-1.2413;-1.646;9.2268;-2.3434;-2.3547;3.1088;-0.6074;-0.522;-0.6141;-0.5992;2.737;4191.0;-22.41;12.38;40.2;82.82;13.83;-104.32;5.0;982.99;61.825;35.956436;-83.927185;801.35;NaN;;4.75;12.226105;36.5;17 / 21;180510;2022-10-25 13:10:08:697
8.9181;-4.3442;-2.1679;9.7161;0.4762;-1.2417;0.2714;-5.1471;-0.6267;1.6965;0.1388;-3.1597;2316.0;-12.06;20.96;41.64;71.8;19.8;-103.28;5.0;982.97;57.342;35.956436;-83.927185;801.35;NaN;;4.75;12.226105;36.5;17 / 21;181010;2022-10-25 13:10:09:197
10.442;-0.687;-1.4964;9.3545;-0.9151;-2.7977;5.258;-0.5978;-2.7105;-2.6162;0.1909;2.7465;3503.0;-25.31;19.24;12.94;17.95;5.35;-106.65;5.0;982.99;56.705;35.956444;-83.927185;802.71;NaN;;4.72;12.226105;33.3;17 / 21;181509;2022-10-25 13:10:09:696
8.2322;-4.9965;-4.4471;9.7296;-0.6102;-1.0643;0.6463;-5.919;-1.1176;3.7945;-0.3224;-3.3924;2875.0;-8.27;28.84;19.97;33.88;3.57;-96.24;5.0;982.95;57.791;35.956444;-83.927185;802.71;NaN;;4.72;12.226105;33.3;17 / 21;182011;2022-10-25 13:10:10:198
11.572;-0.5602;-0.376;8.6552;-3.8553;-2.5288;1.4541;2.3829;1.7641;-1.3163;-0.3179;2.3285;3043.0;-41.7;18.71;17.04;29.6;7.56;-102.69;5.0;982.99;59.859;35.95645;-83.92718;803.28;NaN;;4.75;12.226105;41.3;17 / 21;182510;2022-10-25 13:10:10:697
8.2537;-4.4339;-2.2289;9.6813;-1.0112;-1.1915;4.0845;-5.2546;-0.2993;2.3936;0.8992;-3.0837;2380.0;-35.96;22.52;40.54;89.1;24.82;-112.19;5.0;982.97;59.328;35.95645;-83.92718;803.28;NaN;;4.75;12.226105;41.3;17 / 21;183010;2022-10-25 13:10:11:197
10.2897;-0.4801;-2.461;9.0651;-2.6327;-2.6577;1.1065;1.9677;0.1682;-0.5759;-0.3131;2.0164;3018.0;-51.04;4.2;43.73;79.75;-1.19;-105.17;5.0;983.0;55.682;35.956463;-83.92717;804.36;NaN;;4.75;12.226105;37.7;16 / 21;183509;2022-10-25 13:10:11:696
9.8542;-3.7828;-1.3071;9.202;-2.6866;-2.0679;5.2756;-0.7278;0.3248;-0.5438;1.7801;-2.4155;1212.0;-43.61;21.73;46.18;79.34;15.9;-102.67;5.0;982.93;58.626;35.956463;-83.92717;804.36;NaN;;4.75;12.226105;37.7;16 / 21;184009;2022-10-25 13:10:12:196
7.491;0.4346;-2.7939;9.1458;0.0169;-3.539;4.1982;0.3398;1.5015;-0.2637;-0.0193;1.221;1514.0;-40.97;-7.14;32.4;114.68;-0.1;-111.15;5.0;982.98;58.651;35.956467;-83.927155;801.73;NaN;;5.0;12.226105;58.5;16 / 21;184509;2022-10-25 13:10:12:696
11.3695;-1.5897;-2.4514;8.7471;-3.5687;-2.6313;5.2926;2.3195;-0.9302;0.3977;0.3255;-1.86;1733.0;-36.26;2.96;35.1;120.11;21.34;-106.74;5.0;982.98;60.979;35.956467;-83.927155;801.73;NaN;;5.0;12.226105;58.5;16 / 21;185009;2022-10-25 13:10:13:196
12.8516;-1.8948;-4.6576;9.5743;0.6093;-2.0325;-1.616;-5.0051;0.231;-0.0546;0.4521;1.6784;1452.0;-35.76;-1.44;32.19;86.15;-3.56;-101.99;5.0;982.98;59.352;35.956474;-83.92714;802.41;NaN;;4.72;12.226105;54.5;16 / 21;185510;2022-10-25 13:10:13:697
15.9781;-4.2987;-3.2417;9.0878;-2.9403;-2.222;8.1798;0.8585;-1.7655;-1.8294;2.5956;-2.5891;2468.0;-35.19;4.95;33.34;128.99;28.04;-108.79;5.0;983.0;61.148;35.956474;-83.92714;802.41;NaN;;4.72;12.226105;54.5;16 / 21;186010;2022-10-25 13:10:14:197
14.5083;-3.699;-5.339;8.228;3.4517;-4.0689;-1.8391;-7.6309;-0.1019;-1.2192;-2.2155;3.2628;1719.0;-32.19;-21.28;30.6;109.15;-20.61;-116.31;5.0;982.97;61.974;35.95648;-83.92712;800.97;NaN;;5.0;12.226105;77.4;17 / 21;186509;2022-10-25 13:10:14:696
20.3127;0.6081;-6.9308;8.0218;-3.7246;-4.2365;9.8666;3.4781;1.643;0.3223;2.45;-2.618;2218.0;-37.22;-10.93;29.98;187.07;28.5;-133.86;5.0;982.98;61.595;35.95648;-83.92712;800.97;NaN;;5.0;12.226105;77.4;17 / 21;187010;2022-10-25 13:10:15:197
13.1746;-5.0539;-5.2286;7.3294;5.0704;-4.0917;-4.1272;-7.8866;-0.1871;-2.4552;0.2544;4.6688;4134.0;-29.83;-29.19;19.93;155.53;-31.13;-119.17;5.0;982.98;56.45;35.95648;-83.92711;793.57;NaN;;4.72;12.226105;95.3;16 / 21;187509;2022-10-25 13:10:15:696
18.9482;-0.929;-5.79;6.5475;-4.6658;-5.6153;11.3184;5.77;6.7889;1.589;1.6142;-2.4016;2482.0;-40.12;-12.43;19.58;199.19;28.41;-130.62;5.0;983.01;56.226;35.95648;-83.92711;793.57;NaN;;4.72;12.226105;95.3;16 / 21;188010;2022-10-25 13:10:16:197
17.3261;-3.6173;-6.7442;8.3198;2.7944;-4.3751;0.1629;-8.0337;-0.411;-1.1936;0.0244;4.9495;4531.0;-31.69;-23.47;17.44;310.71;-35.9;-122.66;5.0;982.99;59.119;35.956467;-83.92709;794.06;NaN;;5.76;12.226105;140.1;16 / 21;188509;2022-10-25 13:10:16:696
25.0831;-0.7552;-7.2218;7.3472;-4.5637;-4.6218;4.2278;6.8516;4.8179;1.9573;-1.7813;-0.0049;3065.0;-37.22;-17.78;14.68;186.63;20.93;-117.25;5.0;982.99;53.867;35.956467;-83.92709;794.06;NaN;;5.76;12.226105;140.1;16 / 21;189009;2022-10-25 13:10:17:196
8.6438;-5.0731;-3.8868;7.0218;4.1766;-5.4241;-0.2683;-8.5384;2.4245;-0.2391;0.7959;4.3234;4997.0;-18.77;-27.0;26.78;137.2;-35.43;-140.16;5.0;982.99;57.362;35.956455;-83.92709;795.27;NaN;;4.54;12.226105;148.2;16 / 21;189509;2022-10-25 13:10:17:696
15.0805;-1.3071;-0.7744;7.7916;-3.4889;-4.8259;1.5924;6.771;3.1411;-0.368;0.1703;0.1548;2504.0;-35.51;-16.63;20.64;182.06;20.84;-121.77;5.0;983.02;53.674;35.956455;-83.92709;795.27;NaN;;4.54;12.226105;148.2;16 / 21;190010;2022-10-25 13:10:18:197
8.3638;-2.6743;-2.8777;7.9213;4.7322;-3.321;-3.2435;-8.3722;-0.5095;-0.0978;-0.1036;0.5622;7369.0;-29.34;-27.49;17.33;149.47;-28.85;-112.75;5.0;983.01;56.476;35.956444;-83.927086;793.73;NaN;;4.64;12.226105;154.9;16 / 21;190509;2022-10-25 13:10:18:696
17.3357;-0.6224;-1.1432;7.3314;-5.1063;-4.0431;4.2181;6.9746;1.5108;0.127;0.6112;-1.3229;4556.0;-31.57;-17.85;23.14;172.53;31.38;-118.88;5.0;983.03;54.5;35.956444;-83.927086;793.73;NaN;;4.64;12.226105;154.9;16 / 21;191009;2022-10-25 13:10:19:196
6.2533;-5.4168;-2.6982;7.9296;5.0476;-2.7953;-4.314;-9.6958;-0.0738;0.3466;-0.3767;-0.4744;8022.0;-32.91;-18.66;21.81;70.33;-30.98;-109.42;5.0;983.02;57.744;35.956436;-83.92708;792.82;NaN;;4.5;12.226105;146.5;17 / 21;191509;2022-10-25 13:10:19:696
18.6583;-1.2855;-2.1835;7.9257;-4.5488;-3.5584;7.7471;4.4399;2.3764;0.0383;0.1465;-0.4756;5709.0;-33.23;-15.94;26.33;158.94;23.79;-111.79;5.0;983.05;54.344;35.956436;-83.92708;792.82;NaN;;4.5;12.226105;146.5;17 / 21;192010;2022-10-25 13:10:20:197
12.9652;-0.4274;-1.9753;8.804;3.8273;-2.0027;-3.1249;-8.0719;-0.6832;-0.1595;-0.3896;-0.3037;7586.0;-33.86;-21.3;24.71;104.11;-22.97;-102.82;5.0;983.02;56.853;35.95643;-83.92707;792.14;NaN;;4.64;12.226105;128.7;17 / 21;192511;2022-10-25 13:10:20:698
13.4082;-3.0909;-1.4713;8.8657;-3.2955;-2.5904;7.1092;2.8608;0.3582;0.2097;-0.163;-0.6832;4742.0;-35.83;-17.31;27.13;151.65;17.6;-106.55;5.0;983.06;56.411;35.95643;-83.92707;792.14;NaN;;4.64;12.226105;128.7;17 / 21;193010;2022-10-25 13:10:21:197
17.4111;-2.1811;-3.8139;9.4813;1.6896;-1.8492;-3.51;-5.1186;-0.3823;0.2973;-0.1461;1.8871;5563.0;-36.56;-18.96;25.26;123.68;-9.92;-101.04;5.0;983.05;54.099;35.95642;-83.927055;791.31;NaN;;4.54;12.226105;123.1;17 / 21;193510;2022-10-25 13:10:21:697
20.2744;-3.8031;-1.7644;7.9368;-4.3246;-3.8046;8.4704;1.8075;3.6986;0.6263;-0.1474;-1.6168;3291.0;-39.04;-6.11;26.74;163.96;26.17;-115.61;5.0;983.07;55.97;35.95642;-83.927055;791.31;NaN;;4.54;12.226105;123.1;17 / 21;194010;2022-10-25 13:10:22:197
12.8611;5.182;-2.7592;8.7067;1.4954;-4.2577;6.5721;-1.9953;-1.1388;1.3125;-0.9331;2.6515;5674.0;-24.24;-22.99;32.44;133.54;-8.77;-116.06;5.0;983.04;56.995;35.956413;-83.92705;790.41;NaN;;4.82;12.226105;116.2;17 / 21;194510;2022-10-25 13:10:22:697
8.9121;-0.7158;-2.8167;8.6937;-0.2811;-4.529;6.5149;0.8982;-0.9515;-0.8831;0.5368;-0.886;3589.0;-25.07;-12.97;38.4;131.51;7.16;-120.14;5.0;983.07;56.478;35.956413;-83.92705;790.41;NaN;;4.82;12.226105;116.2;17 / 21;195009;2022-10-25 13:10:23:196
14.7535;-1.8505;-3.8557;9.2897;-0.3472;-3.1227;4.0427;-0.6411;-0.8578;-1.988;0.5647;2.7108;5060.0;-24.84;-22.11;33.79;120.87;-15.4;-117.41;5.0;983.07;56.896;35.95641;-83.92704;790.31;NaN;;4.25;12.226105;122.7;18 / 21;195509;2022-10-25 13:10:23:696
11.9261;-3.9526;-2.1763;8.3508;-3.5188;-3.7488;7.5675;2.6376;0.9807;-0.3659;0.8862;-0.9825;3860.0;-38.94;-12.08;24.0;167.84;21.03;-114.18;5.0;983.08;56.616;35.95641;-83.92704;790.31;NaN;;4.25;12.226105;122.7;18 / 21;196009;2022-10-25 13:10:24:196
12.8169;0.0993;-5.4993;9.1552;0.4058;-3.4912;0.7723;-5.7488;-0.3677;-1.1519;0.6307;3.8957;5608.0;-31.42;-24.19;26.76;147.64;-2.37;-110.87;5.0;983.08;57.267;35.956394;-83.927025;789.23;NaN;;5.04;12.226105;135.4;18 / 21;196509;2022-10-25 13:10:24:696
15.1654;-5.5747;-1.884;7.7891;-3.8557;-4.5424;5.1778;4.226;3.476;1.1266;2.0768;-2.9407;3780.0;-37.22;-13.03;28.14;169.55;23.15;-120.25;5.0;983.05;55.199;35.956394;-83.927025;789.23;NaN;;5.04;12.226105;135.4;18 / 21;197010;2022-10-25 13:10:25:197
15.9999;-3.6209;-0.9984;9.3127;0.8314;-2.9585;2.1348;-6.0732;-0.1706;-2.7637;-0.0292;3.4469;5392.0;-33.84;-26.16;23.57;150.84;-4.86;-107.62;5.0;983.05;55.281;35.956387;-83.92702;789.78;NaN;;4.82;12.226105;139.2;18 / 21;197511;2022-10-25 13:10:25:698
13.3555;-4.8613;2.4957;9.3502;-2.1909;-1.9859;4.6786;-1.4512;2.4795;1.0489;1.3181;-1.9647;3532.0;-41.83;-13.03;19.97;179.77;28.1;-115.3;5.0;983.06;54.391;35.956387;-83.92702;789.78;NaN;;4.82;12.226105;139.2;18 / 21;198009;2022-10-25 13:10:26:196
8.0967;-0.868;-3.2249;9.333;2.5572;-1.5896;-0.2715;-7.5139;-0.0701;-0.4539;-0.17;1.2612;7199.0;-34.01;-30.41;17.03;150.43;-15.11;-99.67;5.0;983.08;58.041;35.956375;-83.92701;789.78;NaN;;4.93;12.226105;143.4;18 / 21;198509;2022-10-25 13:10:26:696
12.5533;-3.8569;-1.2604;8.6325;-3.1858;-3.3914;7.5819;2.9602;2.1184;-0.2875;2.0256;-1.9971;3414.0;-37.57;-17.79;23.72;171.5;25.59;-115.49;5.0;983.07;55.205;35.956375;-83.92701;789.78;NaN;;4.93;12.226105;143.4;18 / 21;199009;2022-10-25 13:10:27:196
11.0106;0.3126;-4.4614;8.7142;3.5446;-2.7692;-1.2289;-7.6833;-0.191;-1.1915;0.2456;2.8043;6265.0;-31.57;-25.39;24.64;124.05;-21.19;-107.63;5.0;983.07;55.725;35.956367;-83.927;790.65;NaN;;4.82;12.226105;139.5;19 / 21;199510;2022-10-25 13:10:27:697
16.3708;-3.4965;-1.3908;9.0444;-2.1116;-3.148;6.8514;2.6241;3.7366;1.2518;1.2917;-2.0155;4156.0;-37.14;-16.39;24.69;155.32;12.43;-109.19;5.0;983.1;53.761;35.956367;-83.927;790.65;NaN;;4.82;12.226105;139.5;19 / 21;200010;2022-10-25 13:10:28:197
10.0361;2.2528;-2.065;9.467;1.1258;-2.2976;3.9983;-1.1945;-1.1185;-1.3485;-0.2637;2.3066;5890.0;-32.03;-25.14;22.89;127.02;-20.76;-105.49;5.0;983.1;56.691;35.95636;-83.92699;791.63;NaN;;4.86;12.226105;132.9;19 / 21;200510;2022-10-25 13:10:28:697
9.5405;-1.6962;-2.4311;8.9165;-1.9101;-3.6082;7.6124;3.1841;1.0403;-0.9278;1.166;-1.0391;4032.0;-35.49;-20.66;22.89;166.85;13.44;-113.67;5.0;983.11;58.151;35.95636;-83.92699;791.63;NaN;;4.86;12.226105;132.9;19 / 21;201009;2022-10-25 13:10:29:196
9.7415;-0.4011;-3.3362;9.4355;0.5065;-2.624;3.3297;-1.8733;-1.1916;-0.3166;-0.5963;2.0801;5987.0;-30.3;-28.88;21.15;143.6;-19.33;-106.35;5.0;983.09;58.076;35.956352;-83.92698;791.9;NaN;;5.0;12.226105;132.2;18 / 21;201509;2022-10-25 13:10:29:696
13.5386;-4.3956;-2.3055;8.4161;-3.1712;-3.9094;9.0612;3.5978;2.5911;-0.4374;1.8851;-1.7127;3602.0;-38.76;-14.85;21.3;174.76;18.87;-114.92;5.0;983.11;58.028;35.956352;-83.92698;791.9;NaN;;5.0;12.226105;132.2;18 / 21;202009;2022-10-25 13:10:30:196
10.2754;1.0606;-3.0981;9.5042;0.5276;-2.3584;2.6125;-3.3184;0.1141;0.0285;-0.3903;2.958;6320.0;-29.53;-29.1;20.7;154.12;-3.08;-103.94;5.0;983.07;57.415;35.956345;-83.92696;790.59;NaN;;4.75;12.226105;129.8;18 / 21;202509;2022-10-25 13:10:30:696
10.5102;-3.6511;-0.8282;8.4765;-3.4783;-3.4957;7.946;3.3118;0.4847;1.0796;1.1003;-3.0602;3158.0;-35.78;-13.27;25.54;159.43;20.77;-112.41;5.0;983.11;58.121;35.956345;-83.92696;790.59;NaN;;4.75;12.226105;129.8;18 / 21;203009;2022-10-25 13:10:31:196
12.0218;-0.65;-4.2389;9.3933;1.5228;-2.3702;1.9458;-3.4999;-1.3569;-0.2585;0.0098;2.7981;6396.0;-28.44;-26.42;24.53;139.72;-8.93;-104.16;5.0;983.1;57.198;35.956337;-83.92695;790.56;NaN;;4.97;12.226105;119.4;18 / 21;203510;2022-10-25 13:10:31:697
13.0274;-3.6305;-1.6065;9.7553;-0.4358;-0.9028;3.7942;-3.1756;-0.0364;2.4932;1.5676;-3.4002;3627.0;-35.72;-12.13;25.16;163.66;20.3;-114.67;5.0;983.09;63.361;35.956337;-83.92695;790.56;NaN;;4.97;12.226105;119.4;18 / 21;204009;2022-10-25 13:10:32:196
12.0589;0.4155;-2.5089;9.5242;1.1651;-2.0257;2.3018;-3.9335;-1.0882;-0.7152;-0.7097;3.5958;7312.0;-27.81;-29.38;19.41;153.03;-6.82;-102.01;5.0;983.13;63.048;35.956333;-83.92694;789.78;NaN;;4.72;12.226105;117.7;18 / 21;204510;2022-10-25 13:10:32:697
10.3292;-5.3809;-3.5671;9.7734;-0.051;-0.8052;4.6673;-7.0701;-0.481;4.294;0.3084;-4.0832;3703.0;-35.72;-11.12;23.36;168.66;24.07;-115.2;5.0;983.11;59.749;35.956333;-83.92694;789.78;NaN;;4.72;12.226105;117.7;18 / 21;205010;2022-10-25 13:10:33:197
9.6601;2.4407;-4.2843;8.4313;2.9378;-4.0563;2.8357;-3.8236;-2.5052;-1.4689;-0.8854;3.2567;6931.0;-21.62;-28.11;27.53;137.52;-17.43;-115.69;5.0;983.13;59.51;35.95633;-83.926926;790.84;NaN;;4.82;12.226105;106.3;18 / 21;205510;2022-10-25 13:10:33:697
8.2825;-3.8234;-3.7469;9.5845;1.2678;-1.6431;4.6426;-4.5357;-1.2583;3.1226;1.38;-3.7255;4463.0;-28.09;-20.27;23.25;131.31;-7.43;-99.73;5.0;983.13;59.461;35.95633;-83.926926;790.84;NaN;;4.82;12.226105;106.3;18 / 21;206010;2022-10-25 13:10:34:197
11.5229;2.5953;-2.3055;8.8719;-1.7001;-3.817;2.56;2.6517;0.4408;-0.8336;-0.9908;2.8928;6467.0;-16.56;-18.21;21.98;148.42;9.98;-113.28;5.0;983.13;59.484;35.95632;-83.92691;792.07;NaN;;4.86;12.226105;116.8;19 / 21;206510;2022-10-25 13:10:34:697
7.0974;-4.0998;-3.4893;9.5371;-0.2562;-2.2691;5.6465;-4.3282;-0.1832;2.8155;1.0889;-3.6734;2943.0;-22.03;-7.57;20.19;158.85;17.44;-120.0;5.0;983.13;64.852;35.95632;-83.92691;792.07;NaN;;4.86;12.226105;116.8;19 / 21;207009;2022-10-25 13:10:35:196
11.1183;0.7744;-3.1507;9.0718;-1.6409;-3.3437;1.4961;2.0816;-0.836;-0.9776;-0.2556;3.0782;6397.0;-25.89;-10.56;22.93;103.53;-13.28;-107.15;5.0;983.12;61.567;35.956318;-83.926895;791.51;NaN;;4.82;12.226105;114.2;19 / 21;207509;2022-10-25 13:10:35:696
8.1712;-2.8394;-3.5169;9.3969;-1.1078;-2.5771;5.9818;-2.9331;-0.3122;1.3511;1.1518;-2.9292;3078.0;-32.51;4.76;30.02;88.65;6.49;-105.34;5.0;983.12;59.587;35.956318;-83.926895;791.51;NaN;;4.82;12.226105;114.2;19 / 21;208009;2022-10-25 13:10:36:196
9.2195;2.5005;-2.0889;9.2813;-0.5118;-3.1251;0.2789;1.9007;-0.4519;-0.3515;-0.4552;1.7387;6721.0;-41.1;-18.84;33.06;139.83;2.99;-108.61;5.0;983.14;59.542;35.95631;-83.92688;789.84;NaN;;4.82;12.226105;104.8;19 / 21;208509;2022-10-25 13:10:36:696
5.8463;-2.4646;-3.256;9.4524;-0.6404;-2.5324;4.3818;-2.229;0.7246;1.4332;0.1397;-1.8571;4358.0;-44.85;-12.56;38.98;122.33;3.74;-105.0;5.0;983.12;59.716;35.95631;-83.92688;789.84;NaN;;4.82;12.226105;104.8;19 / 21;209009;2022-10-25 13:10:37:196
8.6198;0.6165;-2.0674;8.8663;-2.5078;-3.3569;0.0957;1.9482;0.0858;-0.8414;0.1038;1.5101;6249.0;-34.84;-24.79;36.54;148.25;14.82;-110.74;5.0;983.14;60.056;35.95631;-83.926865;788.75;NaN;;5.04;12.226105;105.1;19 / 21;209509;2022-10-25 13:10:37:696
5.9746;-3.5886;-3.6823;9.4581;1.6626;-1.9878;-1.8927;-5.0326;-0.2715;2.201;-0.3086;-2.9352;3569.0;-35.31;-11.81;30.92;133.7;11.2;-105.08;5.0;983.16;61.053;35.95631;-83.926865;788.75;NaN;;5.04;12.226105;105.1;19 / 21;210009;2022-10-25 13:10:38:196
10.9663;0.437;-2.0841;9.175;-1.4461;-3.1461;1.3524;0.6808;-0.9074;-1.2735;-0.2337;2.7865;7200.0;-31.67;-24.71;25.33;156.41;8.48;-108.93;5.0;983.16;62.227;35.95631;-83.92685;788.19;NaN;;5.11;12.226105;98.6;19 / 21;210510;2022-10-25 13:10:38:697
7.7713;-4.1512;-3.7552;9.477;1.7679;-1.7978;-0.8095;-6.0947;-1.0735;2.5845;-0.1894;-3.5168;4116.0;-37.71;-17.96;22.86;155.09;13.06;-104.69;5.0;983.12;62.377;35.95631;-83.92685;788.19;NaN;;5.11;12.226105;98.6;19 / 21;211010;2022-10-25 13:10:39:197
12.1753;3.1699;-1.1743;9.4274;-0.3149;-2.6823;1.7494;0.3583;-1.9856;-1.8369;-0.662;1.9107;8551.0;-13.97;-24.82;45.79;122.58;1.84;-105.88;5.0;983.16;61.921;35.956306;-83.926834;788.42;NaN;;4.93;12.226105;104.3;19 / 21;211511;2022-10-25 13:10:39:698
6.3072;-4.2796;-3.8067;9.5411;1.9403;-1.1715;-0.1593;-5.4229;-1.5732;2.8365;0.2269;-3.5251;5686.0;-23.7;-21.45;47.76;108.21;-11.41;-97.0;5.0;983.13;61.762;35.956306;-83.926834;788.42;NaN;;4.93;12.226105;104.3;19 / 21;212010;2022-10-25 13:10:40:197
9.076;1.6974;-1.0271;9.0045;-2.1961;-3.204;-0.1514;2.1;2.5389;-0.1142;-0.8675;1.6768;8518.0;-23.19;-6.79;39.54;116.09;12.94;-109.59;5.0;983.17;62.382;35.956306;-83.92683;785.77;NaN;;4.54;12.226105;91.9;19 / 21;212511;2022-10-25 13:10:40:698
6.676;-3.1771;-3.0535;9.6064;-0.282;-1.9513;0.0817;-2.2656;-0.5034;1.7279;0.241;-2.9073;3892.0;-20.61;-1.72;38.16;114.27;18.95;-110.82;5.0;983.15;62.646;35.956306;-83.92683;785.77;NaN;;4.54;12.226105;91.9;19 / 21;213011;2022-10-25 13:10:41:198
10.2359;1.7776;-1.9777;8.9915;-2.6615;-2.8704;0.4396;3.3166;-0.3545;-0.7756;-0.2694;2.6159;7138.0;-19.89;-7.13;22.61;108.33;-2.45;-102.95;5.0;983.16;62.459;35.956303;-83.9268;784.29;NaN;;5.04;12.226105;102.4;19 / 21;213510;2022-10-25 13:10:41:697
6.5061;-3.1388;-2.2899;9.6897;-0.731;-1.3214;2.0236;-4.0537;-0.5561;2.1119;0.1012;-2.8876;3537.0;-16.46;-9.51;26.34;115.81;4.27;-97.77;5.0;983.13;62.117;35.956303;-83.9268;784.29;NaN;;5.04;12.226105;102.4;19 / 21;214010;2022-10-25 13:10:42:197
12.0963;1.0068;-1.197;9.1074;-2.646;-2.4948;1.0658;-0.521;-0.9257;-1.8364;0.0586;3.7947;7367.0;-24.6;-14.91;31.33;134.83;15.65;-105.32;5.0;983.17;60.133;35.956303;-83.92678;783.43;NaN;;4.61;12.226105;105.6;19 / 21;214510;2022-10-25 13:10:42:697
7.4504;-6.1959;-4.6421;9.256;-2.5997;-1.9334;9.6836;-5.0057;3.6569;3.0549;-0.645;-3.7092;5629.0;-32.79;-9.3;27.08;133.54;15.37;-101.8;5.0;983.15;62.41;35.956303;-83.92678;783.43;NaN;;4.61;12.226105;105.6;19 / 21;215009;2022-10-25 13:10:43:196
10.7327;3.384;-0.5877;9.205;-2.1285;-2.6282;1.6639;1.1331;-0.8969;-1.641;0.1505;3.6904;7276.0;-28.48;-21.54;32.72;140.61;12.54;-105.93;5.0;983.19;60.722;35.956303;-83.92677;782.56;NaN;;4.39;12.226105;107.2;19 / 21;215510;2022-10-25 13:10:43:697
4.9295;-5.5627;-5.6847;8.6215;4.5045;-1.2447;1.0073;-11.2354;-4.2423;2.6527;-0.5154;-3.6868;5430.0;-35.34;-15.41;26.91;125.6;2.47;-96.0;5.0;983.16;63.425;35.956303;-83.92677;782.56;NaN;;4.39;12.226105;107.2;19 / 21;216010;2022-10-25 13:10:44:197
9.5345;3.0595;1.6795;9.234;1.0128;-3.143;2.3007;2.0166;1.7951;-1.7657;-1.0736;2.101;7586.0;-25.88;-32.42;26.48;150.26;-5.93;-108.8;5.0;983.2;59.02;35.9563;-83.92675;783.21;NaN;;4.61;12.226105;114.4;19 / 21;216510;2022-10-25 13:10:44:697
9.2076;-4.2257;-4.1943;9.5832;0.1604;-2.0755;2.0135;-3.0301;1.0456;3.2514;-0.3583;-3.749;5254.0;-40.59;-21.13;17.91;178.47;16.89;-112.57;5.0;983.17;61.652;35.9563;-83.92675;783.21;NaN;;4.61;12.226105;114.4;19 / 21;217010;2022-10-25 13:10:45:197
10.4384;1.9992;-7.3176;9.3784;0.6574;-2.7899;-2.3022;-1.1336;0.151;-0.8689;0.2236;1.7967;7632.0;-31.26;-28.84;26.44;148.7;-3.84;-106.57;5.0;983.18;59.741;35.956295;-83.92674;782.92;NaN;;4.68;12.226105;116.9;19 / 21;217510;2022-10-25 13:10:45:697
7.0074;-1.9391;-2.8334;9.4713;1.0699;-2.3066;-2.1416;-2.4003;-0.583;0.6664;0.1723;-1.4277;4769.0;-34.28;-14.81;33.96;112.65;-6.26;-103.69;5.0;983.18;60.74;35.956295;-83.92674;782.92;NaN;;4.68;12.226105;116.9;19 / 21;218009;2022-10-25 13:10:46:196
9.6422;0.5614;-1.8781;8.7372;-2.8355;-3.434;-0.3004;2.1229;1.0143;-1.1007;-0.0763;1.7426;5482.0;-33.07;-19.14;34.26;137.41;7.8;-107.49;5.0;983.18;58.895;35.956287;-83.92673;783.69;NaN;;5.0;12.226105;100.3;18 / 21;218510;2022-10-25 13:10:46:697
6.3443;-3.5886;-3.8462;9.6591;-0.2298;-1.6789;-0.0315;-2.2833;-0.3126;1.855;0.6176;-2.6486;4204.0;-37.5;-12.06;31.89;144.94;17.46;-109.71;5.0;983.2;59.121;35.956287;-83.92673;783.69;NaN;;5.0;12.226105;100.3;18 / 21;219010;2022-10-25 13:10:47:197
9.9667;-0.5554;-1.9741;8.7663;-2.9021;-3.3015;-0.1964;2.5597;1.0627;-0.8523;-0.3687;1.6574;5342.0;-35.44;-22.12;31.56;141.3;6.64;-105.58;5.0;983.2;60.528;35.956287;-83.92672;783.89;NaN;;4.68;12.226105;112.8;18 / 21;219510;2022-10-25 13:10:47:697
7.4611;-4.0496;-2.5391;9.5954;-0.8468;-1.8387;1.371;-2.538;-0.1169;1.8198;0.5998;-2.9501;3651.0;-38.19;-13.78;29.63;128.36;4.95;-100.85;5.0;983.18;64.763;35.956287;-83.92672;783.89;NaN;;4.68;12.226105;112.8;18 / 21;220010;2022-10-25 13:10:48:197
11.2786;1.4163;-1.9594;8.596;-3.5424;-3.1192;2.0367;2.3479;0.3547;-0.3356;-0.5743;2.3268;5409.0;-33.21;-22.71;29.57;137.41;1.68;-102.46;5.0;983.19;55.377;35.956284;-83.926704;785.73;NaN;;4.43;12.226105;107.1;18 / 21;220510;2022-10-25 13:10:48:697
7.0424;-4.1489;-3.2548;9.525;-1.2557;-1.9668;1.8474;-2.7717;-0.5918;0.6418;-0.047;-1.5578;3131.0;-34.76;-6.47;34.07;113.17;7.36;-101.67;5.0;983.17;59.047;35.956284;-83.926704;785.73;NaN;;4.43;12.226105;107.1;18 / 21;221010;2022-10-25 13:10:49:197
10.5473;0.2189;-1.8386;9.2596;-1.5794;-2.8171;-1.4208;1.6725;-0.6983;-1.3849;-0.2732;2.3014;4989.0;-31.99;-18.45;33.28;137.44;9.27;-106.92;5.0;983.19;56.687;35.95628;-83.92669;787.95;NaN;;5.18;12.226105;96.0;16 / 21;221510;2022-10-25 13:10:49:697
6.9523;-3.3709;-3.8127;9.3575;2.0505;-2.0985;-2.0955;-5.3267;-1.4436;0.9164;-0.4059;-1.4719;4172.0;-35.03;-13.99;30.47;124.91;3.44;-100.05;5.0;983.2;61.141;35.95628;-83.92669;787.95;NaN;;5.18;12.226105;96.0;16 / 21;222009;2022-10-25 13:10:50:196
11.1254;0.2512;-2.9782;8.9766;-2.5713;-2.9965;-0.5579;2.1815;0.2774;-0.3681;-0.407;1.8995;4580.0;-31.57;-15.58;33.41;141.0;15.2;-108.46;5.0;983.19;58.047;35.956276;-83.92668;787.92;NaN;;4.46;12.226105;110.4;16 / 21;222510;2022-10-25 13:10:50:697
6.9129;-2.8466;-2.8059;9.5934;0.9858;-1.7791;-2.8134;-3.9696;-0.6149;0.6394;0.1779;-1.2203;3572.0;-34.57;-9.77;32.06;122.77;7.77;-102.05;5.0;983.17;59.721;35.956276;-83.92668;787.92;NaN;;4.46;12.226105;110.4;16 / 21;223010;2022-10-25 13:10:51:197
10.9217;-0.3796;-1.7943;9.1551;-2.032;-2.868;-1.4926;0.6409;-0.2505;-0.9307;0.0371;1.4137;4603.0;-32.36;-16.8;32.42;139.94;11.96;-107.39;5.0;983.2;56.688;35.956272;-83.92667;788.67;NaN;;4.43;12.226105;105.9;18 / 21;223510;2022-10-25 13:10:51:697
8.1063;-2.6001;-2.3952;9.6342;-0.4553;-1.7736;-1.0155;-1.7394;0.3462;1.8877;0.0373;-2.2614;3196.0;-34.8;-10.99;30.73;118.01;2.66;-100.43;5.0;983.17;58.42;35.956272;-83.92667;788.67;NaN;;4.43;12.226105;105.9;18 / 21;224009;2022-10-25 13:10:52:196
10.0241;1.1719;0.3532;9.3426;-1.4429;-2.6084;-0.0919;0.6969;1.1057;-1.8764;0.13;1.3277;5065.0;-31.67;-18.99;31.8;130.47;0.84;-104.55;5.0;983.17;57.002;35.95627;-83.92665;788.98;NaN;;4.61;12.226105;105.2;19 / 21;224509;2022-10-25 13:10:52:696
7.8108;-2.3426;-2.3785;9.6653;-0.1158;-1.655;-0.2277;-1.3241;0.443;1.5211;0.3935;-2.1341;3767.0;-35.74;-17.83;27.3;148.92;12.96;-105.71;5.0;983.17;57.091;35.95627;-83.92665;788.98;NaN;;4.61;12.226105;105.2;19 / 21;225010;2022-10-25 13:10:53:197
10.2347;0.9924;-2.2002;9.126;-2.1536;-2.872;-0.6137;2.5452;0.659;-0.0958;-0.4758;1.3799;4511.0;-30.88;-20.87;30.81;135.27;2.57;-104.2;5.0;983.16;55.159;35.95627;-83.926636;788.88;NaN;;4.57;12.226105;100.3;19 / 21;225510;2022-10-25 13:10:53:697
7.223;-3.705;-2.3689;9.6468;0.3541;-1.7276;0.1498;-3.4051;0.0709;0.5096;0.7109;-2.1116;2603.0;-31.86;-13.26;33.71;112.7;-2.07;-100.15;5.0;983.17;55.597;35.95627;-83.926636;788.88;NaN;;4.57;12.226105;100.3;19 / 21;226010;2022-10-25 13:10:54:197
14.8098;0.492;-2.0901;8.9966;-2.222;-3.2085;1.4126;5.4037;1.8225;0.6981;-0.351;0.9428;3413.0;-29.94;-20.61;32.34;133.87;2.37;-104.57;5.0;983.17;57.656;35.956264;-83.92661;787.8;NaN;;4.54;12.226105;100.3;19 / 21;226509;2022-10-25 13:10:54:696
8.1194;-4.0496;-2.7042;9.4897;1.4179;-2.0264;-1.5124;-3.8763;0.2507;-0.3738;0.0015;0.3095;2918.0;-30.34;-12.83;37.13;104.08;-8.31;-102.05;5.0;983.16;57.313;35.956264;-83.92661;787.8;NaN;;4.54;12.226105;100.3;19 / 21;227010;2022-10-25 13:10:55:197
13.9684;1.5658;-2.7556;8.1676;-4.4542;-3.1017;3.7737;3.9002;-0.393;0.3573;-0.3965;1.6525;1818.0;-27.81;-12.83;39.45;138.3;27.01;-110.79;5.0;983.16;56.535;35.956264;-83.9266;787.8;NaN;;4.72;12.226105;91.0;19 / 21;227509;2022-10-25 13:10:55:696
9.361;-3.9323;-2.2516;9.2101;2.8897;-1.7304;-3.2553;-6.7664;-0.0434;0.3615;0.0533;0.7096;3312.0;-28.05;-14.77;37.07;102.56;-12.88;-98.98;5.0;983.13;58.795;35.956264;-83.9266;787.8;NaN;;4.72;12.226105;91.0;19 / 21;228010;2022-10-25 13:10:56:197
13.4309;-0.2596;-2.8382;8.5162;-3.5156;-3.3593;1.2295;2.9973;1.1601;-0.0822;-0.6217;1.516;2527.0;-28.01;-10.26;37.13;134.27;21.01;-111.53;5.0;983.14;56.568;35.956264;-83.92658;789.43;NaN;;4.43;12.226105;87.1;19 / 21;228510;2022-10-25 13:10:56:697
10.0014;-4.1967;-3.6066;9.2481;2.5551;-2.0284;-1.8135;-6.2693;-0.7565;0.8091;-0.43;-0.7468;2988.0;-28.46;-8.78;36.84;102.32;-3.55;-100.2;5.0;983.16;60.043;35.956264;-83.92658;789.43;NaN;;4.43;12.226105;87.1;19 / 21;229010;2022-10-25 13:10:57:197
16.6762;-1.185;-3.05;9.3315;-1.354;-2.6946;0.1514;1.4334;1.5912;-0.0859;-0.0893;1.1172;3184.0;-26.42;-13.46;37.01;122.05;7.94;-106.11;5.0;983.12;56.333;35.956264;-83.926575;790.65;NaN;;4.32;12.882186;94.7;19 / 21;229510;2022-10-25 13:10:57:697
7.2685;-4.5236;-2.7305;9.7163;0.7411;-1.1025;-1.396;-3.4274;-1.8304;-0.2372;0.0814;-0.4267;3081.0;-29.91;-13.27;32.63;109.53;-4.33;-96.47;5.0;983.13;58.577;35.956264;-83.926575;790.65;NaN;;4.32;12.882186;94.7;19 / 21;230009;2022-10-25 13:10:58:196
15.9649;-0.8067;-1.9956;8.6101;-3.8158;-2.7342;2.4811;2.9725;0.8485;-0.033;-0.1431;0.7748;2381.0;-31.26;-12.26;30.94;142.42;22.9;-107.62;5.0;983.16;58.044;35.95626;-83.92656;793.53;NaN;;3.89;12.983013;108.1;18 / 21;230510;2022-10-25 13:10:58:697
9.5142;-4.5619;-2.1069;9.661;0.6615;-1.5485;-1.693;-3.6895;-0.1625;0.353;-0.1808;-0.9995;2508.0;-30.71;-11.06;30.41;122.67;7.18;-100.25;5.0;983.14;62.066;35.95626;-83.92656;793.53;NaN;;3.89;12.983013;108.1;18 / 21;231011;2022-10-25 13:10:59:198
13.1375;-1.2975;-3.2991;8.8939;-3.1226;-2.7053;2.0862;2.5638;-0.0316;-0.2197;0.1114;0.8571;2245.0;-28.46;-13.41;31.03;130.5;11.75;-104.19;5.0;983.12;54.451;35.956257;-83.926544;796.13;NaN;;4.03;13.197605;109.5;18 / 21;231510;2022-10-25 13:10:59:697
9.2076;-4.0041;-3.542;9.6371;0.331;-1.7853;-1.3698;-2.7853;0.0751;0.9291;-0.1096;-1.5593;2055.0;-26.92;-10.8;29.89;111.96;-1.93;-100.5;5.0;983.12;60.477;35.956257;-83.926544;796.13;NaN;;4.03;13.197605;109.5;18 / 21;232010;2022-10-25 13:11:00:197
14.8771;0.1388;-2.1942;8.5247;-3.5133;-3.3403;2.0834;3.1104;0.6219;-0.5348;-0.1277;1.3464;1905.0;-20.76;-15.99;29.74;132.68;10.41;-106.71;5.0;983.13;55.89;35.956257;-83.92653;797.83;NaN;;4.39;13.213621;96.2;18 / 21;232510;2022-10-25 13:11:00:697
8.4811;-4.3095;-2.8011;9.5626;0.9431;-1.9591;-1.8456;-3.9159;0.0607;-0.0492;-0.0833;0.0731;2015.0;-17.36;-9.71;29.42;107.31;-5.52;-101.58;5.0;983.12;60.398;35.956257;-83.92653;797.83;NaN;;4.39;13.213621;96.2;18 / 21;233009;2022-10-25 13:11:01:196
9.9224;0.1208;-2.0638;8.8654;-3.0204;-2.9073;0.1314;2.3615;0.8988;-0.3063;-0.1474;1.3032;1896.0;-19.28;-6.19;30.06;122.06;17.94;-108.16;5.0;983.1;55.78;35.956257;-83.92651;799.7;NaN;;4.57;13.557785;107.5;18 / 21;233509;2022-10-25 13:11:01:696
7.5233;-3.4798;-3.7158;9.2568;2.7992;-1.6266;-2.2567;-5.6447;-0.7386;1.257;-0.3163;-0.8473;2189.0;-22.2;-7.48;28.41;103.44;-2.67;-99.11;5.0;983.11;56.76;35.956257;-83.92651;799.7;NaN;;4.57;13.557785;107.5;18 / 21;234009;2022-10-25 13:11:02:196
9.5297;0.9015;-1.081;8.9953;-1.6513;-3.5395;-0.299;2.0843;2.6811;0.534;-1.0426;0.8065;3191.0;-23.62;-13.39;27.43;138.15;9.69;-111.48;5.0;983.11;56.623;35.956257;-83.9265;802.5;NaN;;4.46;13.36026;108.8;18 / 21;234509;2022-10-25 13:11:02:696
9.8542;-1.4892;-3.1914;9.6387;1.2834;-1.2724;-1.7891;-3.7447;-0.5939;2.6071;-1.2304;-2.7175;2362.0;-24.75;-8.7;28.28;118.06;6.42;-100.46;5.0;983.09;58.095;35.956257;-83.9265;802.5;NaN;;4.46;13.36026;108.8;18 / 21;235010;2022-10-25 13:11:03:197
9.198;2.1691;-3.0846;8.6962;0.486;-4.5068;-0.6626;0.9088;-0.3555;-0.0129;0.0983;1.2458;2594.0;-19.74;-12.71;34.95;117.33;-2.84;-117.4;5.0;983.1;55.998;35.956257;-83.92649;808.27;NaN;;4.68;13.162793;90.1;18 / 21;235510;2022-10-25 13:11:03:697
6.4762;-1.7453;-3.9491;9.3211;1.0885;-2.8465;-2.0509;-2.331;-0.22;1.1359;0.4311;-1.8287;1830.0;-25.52;-10.22;32.87;104.3;-6.37;-106.98;5.0;983.1;56.562;35.956257;-83.92649;808.27;NaN;;4.68;13.162793;90.1;18 / 21;236010;2022-10-25 13:11:04:197
9.507;0.0084;-1.7118;9.1907;-1.8947;-2.8481;-1.2384;1.4051;1.7431;-0.2083;-0.1824;1.1359;2433.0;-27.45;-12.13;35.66;125.48;11.14;-107.22;5.0;983.1;59.222;35.956253;-83.926476;806.94;NaN;;4.39;13.241462;101.8;18 / 21;236510;2022-10-25 13:11:04:697
7.7342;-2.2229;-0.8931;9.4905;-0.7999;-2.3368;2.1499;-0.1282;-1.7501;-1.472;0.8946;-2.2662;1087.0;-29.21;-7.16;36.3;124.48;18.42;-105.48;5.0;983.11;60.63;35.956253;-83.926476;806.94;NaN;;4.39;13.241462;101.8;18 / 21;237011;2022-10-25 13:11:05:198
8.7386;0.7002;-2.916;8.9919;-2.2535;-3.1997;1.9734;2.5459;-1.2589;-0.561;0.2701;1.4718;1780.0;-24.09;-15.67;37.03;116.96;-2.49;-106.68;5.0;983.06;58.903;35.956253;-83.92645;805.54;NaN;;5.0;13.165202;111.1;18 / 21;237510;2022-10-25 13:11:05:697
8.5062;-3.0129;-1.6448;9.2873;-1.935;-2.4844;4.0053;1.2083;-0.3423;-0.2664;0.9607;-2.3486;1232.0;-24.0;-2.87;40.37;106.41;11.38;-104.98;5.0;983.09;59.19;35.956253;-83.92645;805.54;NaN;;5.0;13.165202;111.1;18 / 21;238011;2022-10-25 13:11:06:198
9.9284;-0.7098;-2.3725;9.2111;-2.6374;-2.0904;4.0559;-1.275;-1.0188;-0.4418;-0.0033;2.5494;2868.0;-27.97;-9.83;37.07;99.41;-7.88;-99.38;5.0;983.07;57.02;35.956253;-83.92644;805.3;NaN;;5.26;13.024176;82.1;18 / 21;238510;2022-10-25 13:11:06:697
8.4452;-5.339;-1.8745;9.7624;0.5562;-0.7458;0.4613;-6.6771;-1.2256;1.724;0.0739;-3.132;1888.0;-27.66;3.3;37.18;110.08;23.48;-101.71;5.0;983.07;56.907;35.956253;-83.92644;805.3;NaN;;5.26;13.024176;82.1;18 / 21;239011;2022-10-25 13:11:07:198
10.4444;-1.0475;-0.2862;9.3627;-2.146;-1.9758;3.9062;-1.1842;-0.2246;-1.8738;0.2106;2.7545;1960.0;-28.69;-10.54;34.99;123.25;12.64;-101.92;5.0;983.08;57.858;35.956257;-83.92643;804.66;NaN;;3.96;13.380341;82.9;18 / 21;239510;2022-10-25 13:11:07:697
11.2235;-4.3059;-2.8238;9.2935;-2.584;-1.7674;4.1627;-0.073;-0.5481;1.217;0.0664;-2.7101;1631.0;-30.97;-5.12;32.79;138.8;28.85;-109.41;5.0;983.06;61.157;35.956257;-83.92643;804.66;NaN;;3.96;13.380341;82.9;18 / 21;240010;2022-10-25 13:11:08:197
10.3184;-2.9231;-3.1627;9.6426;0.4855;-1.7187;-1.2691;-4.9917;-1.5394;-0.823;-0.6289;2.2405;2256.0;-27.24;-16.56;31.33;120.84;-2.84;-100.11;5.0;983.07;60.752;35.956257;-83.926414;806.47;NaN;;3.6;12.746409;75.9;17 / 21;240510;2022-10-25 13:11:08:697
10.6095;-4.3765;-2.2038;8.1763;-4.61;-2.8402;5.1777;3.0668;1.8381;1.6485;-0.2771;-2.6962;2678.0;-27.64;-8.06;32.57;150.29;35.12;-116.81;5.0;983.04;58.889;35.956257;-83.926414;806.47;NaN;;3.6;12.746409;75.9;17 / 21;241010;2022-10-25 13:11:09:197
6.8734;-1.1874;-3.4355;9.3014;1.7056;-2.5972;-0.823;-6.0448;1.2361;0.7045;0.0434;1.1344;2467.0;-25.31;-13.58;33.43;107.82;-10.02;-105.6;5.0;983.05;63.865;35.956257;-83.9264;807.61;NaN;;4.32;12.899487;91.4;14 / 21;241510;2022-10-25 13:11:09:697
11.7467;-2.3569;-1.8458;9.4234;-1.8012;-2.031;5.6601;3.6457;-1.2445;0.0753;-0.009;-2.191;2377.0;-26.91;-8.23;35.03;116.25;10.58;-102.16;5.0;983.08;56.845;35.956257;-83.9264;807.61;NaN;;4.32;12.899487;91.4;14 / 21;242010;2022-10-25 13:11:10:197
10.4276;-1.2903;-5.1664;9.5733;-1.0056;-1.8739;1.8016;-1.3371;-2.394;0.3868;-0.6796;2.7006;3643.0;-23.81;-14.64;36.26;120.43;5.89;-101.08;5.0;983.03;57.18;35.956257;-83.926384;807.64;NaN;;4.32;12.874446;97.3;13 / 21;242510;2022-10-25 13:11:10:697
11.6055;-5.2753;-1.7847;8.88;-3.2382;-2.6135;5.9333;0.9017;0.1864;-0.4973;1.5042;-2.9989;1505.0;-24.43;-1.97;39.28;132.79;35.66;-114.33;5.0;983.05;59.331;35.956257;-83.926384;807.64;NaN;;4.32;12.874446;97.3;13 / 21;243010;2022-10-25 13:11:11:197
8.9779;-1.8565;-2.4646;9.46;-0.784;-2.4626;3.9099;-1.2882;-3.4287;-0.3587;-0.6378;1.9101;3853.0;-25.2;-15.39;36.43;103.9;-12.92;-97.38;5.0;983.05;60.441;35.956253;-83.92637;808.9;NaN;;4.43;12.709075;92.6;13 / 21;243510;2022-10-25 13:11:11:697
16.5589;-3.0799;-3.5276;8.2634;-4.7089;-2.3901;6.5018;4.3237;-1.3519;-0.0472;0.3262;-1.2292;1462.0;-22.22;2.79;41.72;110.97;28.7;-106.13;5.0;983.08;57.866;35.956253;-83.92637;808.9;NaN;;4.43;12.709075;92.6;13 / 21;244010;2022-10-25 13:11:12:197
9.2303;0.3473;-3.7397;9.3793;1.7344;-2.2782;-1.6038;-4.0861;0.683;0.3599;-0.0263;2.2249;863.0;-23.27;-5.77;39.69;78.98;-21.76;-104.57;5.0;983.05;63.708;35.95625;-83.92635;808.56;NaN;;4.97;12.866293;110.2;14 / 21;244510;2022-10-25 13:11:12:697
