ACCELEROMETER X (m/s²);ACCELEROMETER Y (m/s²);ACCELEROMETER Z (m/s²);GRAVITY X (m/s²);GRAVITY Y (m/s²);GRAVITY Z (m/s²);LINEAR ACCELERATION X (m/s²);LINEAR ACCELERATION Y (m/s²);LINEAR ACCELERATION Z (m/s²);GYROSCOPE X (rad/s);GYROSCOPE Y (rad/s);GYROSCOPE Z (rad/s);LIGHT (lux);MAGNETIC FIELD X (μT);MAGNETIC FIELD Y (μT);MAGNETIC FIELD Z (μT);ORIENTATION Z (azimuth °);ORIENTATION X (pitch °);ORIENTATION Y (roll °);PROXIMITY (i);ATMOSPHERIC PRESSURE (hPa);SOUND LEVEL (dB);LOCATION Latitude : ;LOCATION Longitude : ;LOCATION Altitude ( m);LOCATION Altitude-google ( m);LOCATION Altitude-atmospheric pressure ( m);LOCATION Speed ( Kmh);LOCATION Accuracy ( m);LOCATION ORIENTATION (°);Satellites in range;Time since start in ms ;YYYY-MO-DD HH-MI-SS_SSS
-3.0033;2.2612;8.4416;-1.6466;2.1424;9.4271;-1.0486;0.3119;-0.2931;-0.0906;6.0E-4;0.2291;7.0;-10.41;-18.97;-41.51;117.38;-13.27;11.83;5.0;987.25;48.664;35.956345;-83.92657;801.89;NaN;;0.0;37.626877;;0 / 18;10;2022-10-26 20:49:03:151
-1.2556;3.8019;11.8998;-0.9628;2.6949;9.3798;2.6135;0.3524;1.5195;-0.559;-0.0299;-0.0309;5.0;-17.18;-18.92;-39.66;110.41;-15.95;5.86;5.0;987.3;49.136;35.95634;-83.92656;803.06;NaN;;0.86;27.294436;92.1;9 / 18;509;2022-10-26 20:49:03:650
-0.8007;4.654;9.775;-1.942;2.151;9.3687;-0.374;1.6845;0.596;0.0756;0.1405;-0.4433;0.0;-16.54;-20.59;-38.96;117.65;-12.67;11.71;5.0;987.28;52.399;35.95634;-83.92656;803.06;NaN;;0.86;27.294436;92.1;9 / 18;1010;2022-10-26 20:49:04:151
-3.5707;2.7102;10.011;-2.0759;2.8999;9.1352;-1.0466;0.5325;-0.4234;0.4022;-0.5089;-0.5648;1.0;-11.57;-21.73;-39.9;116.14;-16.9;14.76;5.0;987.26;59.542;35.956326;-83.92652;807.88;NaN;;2.7;22.744911;103.9;12 / 18;1509;2022-10-26 20:49:04:650
-4.7665;1.9128;11.1613;-2.9788;1.6485;9.1967;-0.0829;0.8906;-2.1447;-0.035;0.1319;0.0807;6.0;-4.22;-25.84;-37.74;144.32;-10.62;14.89;5.0;987.27;56.507;35.956326;-83.92652;807.88;NaN;;2.7;22.744911;103.9;12 / 18;2009;2022-10-26 20:49:05:150
-2.2516;2.2134;9.1932;-2.819;3.1981;8.8315;0.6618;-0.3929;-0.9192;-0.0841;-0.3949;-0.7412;7.0;-1.14;-26.76;-37.18;140.84;-14.79;20.92;5.0;987.27;59.439;35.95633;-83.9265;811.24;NaN;;4.5;19.878069;91.8;12 / 20;2509;2022-10-26 20:49:05:650
-5.3653;1.2197;9.4759;-3.026;1.9974;9.1118;-0.4064;0.6328;-2.7913;-0.4151;0.0321;-0.0563;7.0;-0.51;-27.97;-36.34;149.07;-11.75;18.37;5.0;987.27;58.992;35.95633;-83.9265;811.24;NaN;;4.5;19.878069;91.8;12 / 20;3009;2022-10-26 20:49:06:150
-1.78;-1.421;9.8865;-3.1626;1.0024;9.2284;0.8377;0.2753;-0.535;-0.441;-0.854;-0.365;6.0;0.47;-24.07;-39.47;142.3;-7.31;22.39;5.0;987.24;55.578;35.956326;-83.92648;813.34;NaN;;4.75;19.788792;102.9;12 / 20;3509;2022-10-26 20:49:06:650
-1.4749;6.2175;7.9125;-1.7486;3.0599;9.1515;-0.4547;-0.7357;-2.1001;0.2827;0.0016;-0.1913;6.0;-4.67;-21.69;-40.97;124.39;-18.18;10.82;5.0;987.22;56.341;35.956326;-83.92648;813.34;NaN;;4.75;19.788792;102.9;12 / 20;4009;2022-10-26 20:49:07:150
2.3868;5.5675;3.8354;2.1197;6.0002;7.4616;-0.5728;-1.2859;-0.9281;0.6105;-0.0597;0.3724;3.0;-18.11;-36.41;-24.17;136.51;-37.72;-15.86;5.0;987.25;63.005;35.956326;-83.92646;820.75;NaN;;4.54;17.838705;100.2;13 / 20;4509;2022-10-26 20:49:07:650
0.3365;4.6146;9.8794;1.0952;5.1173;8.2936;-0.5421;-0.3681;0.5186;-0.0678;0.2882;-0.1812;1.0;-22.86;-36.32;-21.82;134.12;-30.7;-11.5;5.0;987.22;52.226;35.956326;-83.92646;820.75;NaN;;4.54;17.838705;100.2;13 / 20;5009;2022-10-26 20:49:08:150
1.6352;6.7681;7.5018;0.7795;5.341;8.1876;-0.8638;-0.9985;-0.7092;0.3532;-0.1189;0.4348;2.0;-18.06;-37.76;-24.24;137.43;-32.65;-1.85;5.0;987.19;55.129;35.95632;-83.926445;819.23;NaN;;4.86;15.455058;98.7;13 / 20;5509;2022-10-26 20:49:08:650
0.4573;5.3498;7.3235;-3.4209;3.5284;8.4863;5.1989;3.7746;-0.0559;-0.8993;-1.1622;-1.1098;2.0;-16.82;-30.07;-30.66;126.28;-20.22;24.94;5.0;987.23;55.273;35.95632;-83.926445;819.23;NaN;;4.86;15.455058;98.7;13 / 20;6009;2022-10-26 20:49:09:150
-3.0488;3.3793;5.4311;-3.7132;3.447;8.3965;1.2579;-0.3266;-3.8757;-0.492;1.8614;1.5713;2.0;-10.87;-16.58;-42.94;97.59;-20.58;23.86;5.0;987.23;56.598;35.956318;-83.92642;821.9;NaN;;4.64;14.510296;95.6;13 / 20;6510;2022-10-26 20:49:09:651
-2.8669;-7.8239;-9.5345;-8.7967;-3.4607;-2.61;0.8501;-10.2742;7.7114;10.4773;4.3911;-0.8397;5.0;26.49;2.96;-30.07;94.71;20.66;106.53;5.0;987.25;51.9;35.956318;-83.92642;821.9;NaN;;4.64;14.510296;95.6;13 / 20;7010;2022-10-26 20:49:10:151
-7.3403;-3.451;-0.1304;-6.9549;-6.9043;0.3604;-1.8263;0.3009;-1.8183;-0.2125;-2.2043;1.9763;5.0;42.86;16.76;-9.36;136.99;52.98;104.82;5.0;987.26;53.523;35.95632;-83.926414;804.03;NaN;;3.02;14.439629;85.7;13 / 20;7510;2022-10-26 20:49:10:651
-6.1804;-2.2289;1.7668;-8.8427;-3.674;2.1161;-0.3888;0.6367;1.2656;1.454;-1.5804;-0.1376;4.0;36.68;8.34;-28.41;104.66;20.2;83.8;5.0;987.23;51.268;35.95632;-83.926414;804.03;NaN;;3.02;14.439629;85.7;13 / 20;8009;2022-10-26 20:49:11:150
-6.8566;-3.1603;1.9008;-9.5301;-1.1287;2.0184;0.8134;-1.0527;-0.4707;1.4074;1.328;1.6859;0.0;33.36;-2.34;-31.46;126.68;19.14;73.49;0.0;987.23;53.253;35.95632;-83.92641;799.56;NaN;;5.04;14.560853;83.4;13 / 20;8509;2022-10-26 20:49:11:650
-8.3961;0.7361;4.6457;-9.4271;1.6127;2.1679;1.1228;-2.3861;0.8197;-0.23;-1.1943;-0.994;1.0;35.06;-18.92;-20.92;118.74;-14.44;83.04;0.0;987.23;51.514;35.95632;-83.92641;799.56;NaN;;5.04;14.560853;83.4;13 / 20;9009;2022-10-26 20:49:12:150
-5.1018;-4.2377;0.7516;-9.3546;-2.943;0.0198;4.6815;-0.4453;-0.5487;-0.2904;0.1395;0.2458;0.0;37.35;-11.44;-22.63;147.81;21.39;79.36;0.0;987.31;53.101;35.95632;-83.92639;799.3;NaN;;5.08;13.911296;96.2;13 / 20;9510;2022-10-26 20:49:12:651
-0.9123;-5.2765;-0.4442;-7.0686;-6.767;-0.6427;-2.6781;-3.3845;0.8912;0.8683;-0.4326;-0.3024;0.0;46.43;7.33;-13.65;144.8;43.63;95.2;0.0;987.24;52.304;35.95632;-83.92639;799.3;NaN;;5.08;13.911296;96.2;13 / 20;10009;2022-10-26 20:49:13:150
-5.8247;-4.5368;-3.4869;-6.9513;-6.4745;-2.4353;2.7552;-6.4367;1.3945;0.4277;2.303;-0.7384;0.0;41.53;23.21;-11.81;103.98;41.32;109.31;0.0;987.24;53.491;35.956326;-83.92638;803.4;NaN;;4.86;13.291939;98.8;13 / 20;10509;2022-10-26 20:49:13:650
-5.3124;-6.4558;-1.5526;-6.8595;-6.8907;-1.279;1.0491;-1.7178;1.7287;0.5408;0.3895;-0.4935;0.0;44.83;19.18;-1.78;133.4;43.02;107.93;0.0;987.22;51.931;35.956326;-83.92638;803.4;NaN;;4.86;13.291939;98.8;13 / 20;11009;2022-10-26 20:49:14:150
1.8924;-8.8439;-1.1336;-5.2475;-8.157;-1.4481;-5.9235;0.0327;0.1626;-0.0071;1.1625;1.359;0.0;38.53;22.78;-13.5;122.84;56.28;105.43;0.0;987.24;51.061;35.95632;-83.92636;806.1;NaN;;4.64;12.437999;107.9;13 / 20;11509;2022-10-26 20:49:14:650
-13.8464;-7.3008;-3.7899;-5.3235;-8.1443;-1.2249;-5.6944;-0.5791;0.9498;1.804;0.5127;0.5431;0.0;40.16;23.59;-11.66;108.33;46.19;108.56;0.0;987.2;52.683;35.95632;-83.92636;806.1;NaN;;4.64;12.437999;107.9;13 / 20;12009;2022-10-26 20:49:15:150
-3.128;-8.4954;0.0239;-6.3616;-7.3584;1.2468;-4.1053;-2.212;1.1689;0.103;0.2104;0.9004;0.0;32.44;29.1;-27.67;111.58;48.62;78.91;0.0;987.21;51.128;35.95632;-83.926346;805.16;NaN;;4.75;12.435388;110.3;13 / 20;12509;2022-10-26 20:49:15:650
-2.9626;-7.2972;5.4203;-5.9371;-7.6818;-1.3824;6.1062;1.5648;-0.0442;0.9726;0.3441;-3.5428;1.0;50.89;23.55;-14.19;116.06;42.94;105.64;0.0;987.22;51.821;35.95632;-83.926346;805.16;NaN;;4.75;12.435388;110.3;13 / 20;13010;2022-10-26 20:49:16:151
-3.6281;-13.5386;-6.0691;-1.4997;-9.6405;-0.991;0.3412;-5.1525;4.339;-2.8436;-1.3638;0.9644;0.0;31.52;45.17;-26.08;170.45;81.36;58.79;0.0;987.23;51.478;35.95632;-83.92633;805.62;NaN;;5.8;12.313982;102.7;14 / 20;13509;2022-10-26 20:49:16:650
4.0436;-10.4276;2.3713;-2.4663;-9.4914;-0.0212;5.0059;-2.7989;-2.6414;-1.3548;0.5772;-1.6265;0.0;37.33;43.44;-17.36;145.13;75.43;90.49;0.0;987.12;51.546;35.95632;-83.92633;805.62;NaN;;5.8;12.313982;102.7;14 / 20;14010;2022-10-26 20:49:17:151
5.2274;-17.1467;3.9682;-1.161;-9.6861;-1.0006;4.5722;-5.074;4.0639;-2.4076;-0.7344;2.7878;0.0;25.11;45.08;-19.52;306.82;72.72;-56.63;0.0;987.22;54.17;35.95632;-83.92631;800.98;NaN;;6.52;12.226105;99.2;14 / 20;14509;2022-10-26 20:49:17:650
0.583;-14.3288;-4.5081;-1.9527;-9.61;-0.0749;-11.4685;-10.2412;-5.6445;-0.8284;-1.445;-0.1123;0.0;29.98;38.79;-14.68;142.51;78.51;92.2;0.0;986.95;51.951;35.95632;-83.92631;800.98;NaN;;6.52;12.226105;99.2;14 / 20;15009;2022-10-26 20:49:18:150
4.8206;-19.2724;4.4889;1.5212;-9.6761;0.4792;-9.42;-4.1645;-3.2756;0.1342;-0.3312;1.929;0.0;18.68;39.28;-19.78;306.43;80.64;-72.51;0.0;987.2;52.269;35.95632;-83.926285;800.72;NaN;;5.72;12.226105;99.7;14 / 20;15509;2022-10-26 20:49:18:650
7.363;-5.6261;-0.1699;-2.4926;-9.4539;0.7627;4.8586;-3.2609;-4.9017;0.0521;-1.0537;0.3279;0.0;27.34;35.08;-13.65;148.69;81.47;88.52;0.0;986.89;55.797;35.95632;-83.926285;800.72;NaN;;5.72;12.226105;99.7;14 / 20;16009;2022-10-26 20:49:19:150
0.2441;-14.9106;2.6216;2.4871;-9.37;1.4788;-8.3138;-3.1968;-3.9902;-2.1677;-0.2498;2.4306;0.0;12.68;36.9;-20.31;296.39;72.84;-59.26;0.0;987.22;53.699;35.95632;-83.92627;801.03;NaN;;5.65;12.226105;107.0;14 / 20;16509;2022-10-26 20:49:19:650
6.652;-6.4738;-5.9243;-1.7187;-9.6284;0.7141;-4.4288;-2.7771;0.4363;-1.2031;-0.9067;0.6149;0.0;18.83;35.59;-16.41;119.23;79.21;96.34;0.0;986.92;52.8;35.95632;-83.92627;801.03;NaN;;5.65;12.226105;107.0;14 / 20;17010;2022-10-26 20:49:20:151
-5.9231;-16.0262;-3.4917;2.5531;-9.2897;1.8312;-4.3047;-1.2774;0.2657;-1.8709;-0.2486;2.8587;0.0;11.98;35.44;-20.78;290.21;71.31;-54.35;0.0;987.29;53.948;35.95632;-83.926254;803.37;NaN;;4.39;12.226105;99.2;14 / 20;17509;2022-10-26 20:49:20:650
6.1301;-8.0788;2.2122;-1.8199;-9.5599;1.2109;-0.9723;-3.3758;-3.2262;-1.6949;0.3505;0.0063;0.0;15.04;35.25;-20.78;131.76;83.13;76.59;0.0;987.24;51.871;35.95632;-83.926254;803.37;NaN;;4.39;12.226105;99.2;14 / 20;18009;2022-10-26 20:49:21:150
0.1543;-12.8898;0.9817;2.6998;-9.3421;1.2677;-6.9304;-3.472;-2.9841;-1.5005;-1.0325;2.5722;1.0;5.7;35.55;-25.33;283.4;72.29;-64.85;0.0;987.2;52.115;35.95632;-83.92625;804.36;NaN;;4.5;12.226105;98.6;14 / 20;18509;2022-10-26 20:49:21:650
5.6369;-5.7278;-6.2198;-0.9615;-9.7351;0.6887;-8.7296;-8.9526;-0.1454;-0.1894;-2.1833;1.5835;1.0;9.99;35.83;-25.54;140.77;83.07;54.39;0.0;987.34;52.51;35.95632;-83.92625;804.36;NaN;;4.5;12.226105;98.6;14 / 20;19010;2022-10-26 20:49:22:151
-1.707;-11.4437;1.2664;2.4836;-9.4072;1.2272;-8.1399;-5.0673;-3.242;-0.6733;-0.9041;1.1908;0.0;5.4;35.14;-30.04;269.28;74.39;-61.04;0.0;987.22;52.023;35.95632;-83.92624;800.8;NaN;;3.85;12.226105;108.8;14 / 20;19510;2022-10-26 20:49:22:651
4.1357;-5.2167;-9.5764;-0.5007;-9.7728;0.6417;-10.753;-7.6718;2.4813;1.1596;-2.9166;1.8677;0.0;14.23;35.55;-27.45;94.14;72.96;91.88;0.0;987.36;53.099;35.95632;-83.92624;800.8;NaN;;3.85;12.226105;108.8;14 / 20;20009;2022-10-26 20:49:23:150
3.9658;-18.7768;1.392;2.9078;-9.231;1.5823;-4.1235;-0.2016;2.3021;-0.5521;-0.7235;0.5563;0.0;7.61;34.2;-29.32;279.77;70.27;-61.45;0.0;987.21;52.994;35.956326;-83.92622;800.1;NaN;;4.07;12.226105;99.2;12 / 20;20509;2022-10-26 20:49:23:650
6.172;-5.4802;-1.1563;-0.6538;-9.7286;1.0472;-4.3275;-1.4493;0.6792;0.9295;0.2453;0.6099;1.0;17.94;34.65;-24.75;184.45;82.77;31.98;0.0;987.25;52.815;35.956326;-83.92622;800.1;NaN;;4.07;12.226105;99.2;12 / 20;21010;2022-10-26 20:49:24:151
-5.3255;-14.1096;-0.4478;3.3915;-9.0209;1.8143;-5.9817;-1.5971;1.1097;-1.6618;0.119;3.1418;0.0;9.13;34.14;-28.24;286.35;66.91;-61.86;0.0;987.22;52.474;35.95633;-83.92621;801.14;NaN;;4.03;12.226105;102.5;12 / 20;21509;2022-10-26 20:49:24:650
5.9195;-4.9546;0.2369;-0.7299;-9.7777;0.187;-1.0584;-1.3652;-2.5197;0.6918;-0.8774;0.2655;1.0;14.63;34.16;-25.42;131.39;85.59;75.63;0.0;987.21;53.375;35.95633;-83.92621;801.14;NaN;;4.03;12.226105;102.5;12 / 20;22009;2022-10-26 20:49:25:150
-2.709;-11.6976;0.1328;3.3271;-9.11;1.4523;-6.5028;-1.4441;-0.3993;-1.6119;-0.2895;3.5948;1.0;6.13;33.23;-27.62;259.3;81.26;-57.06;0.0;987.16;52.406;35.95633;-83.9262;803.38;NaN;;3.96;12.226105;102.7;12 / 20;22510;2022-10-26 20:49:25:651
6.6568;-9.3598;-3.5324;-0.5268;-9.7847;0.3908;-12.7034;-9.0191;0.5702;0.6564;0.3169;2.1447;0.0;9.32;34.48;-25.11;143.38;86.16;53.43;0.0;987.25;54.127;35.95633;-83.9262;803.38;NaN;;3.96;12.226105;102.7;12 / 20;23010;2022-10-26 20:49:26:151
-1.2138;-11.0967;0.6081;2.4968;-9.4556;0.7267;-5.4849;-1.2961;-3.8637;-1.2302;-0.6606;3.5858;0.0;2.57;33.04;-27.43;275.82;72.04;-66.73;0.0;987.19;52.927;35.956333;-83.92619;803.54;NaN;;3.71;12.226105;114.3;12 / 20;23509;2022-10-26 20:49:26:650
-3.7409;-14.1503;-0.5746;-0.6676;-9.7754;0.408;-10.6207;-5.7182;3.7945;0.9381;-0.6018;-2.669;0.0;4.52;34.07;-25.78;70.82;74.5;101.17;0.0;987.1;53.23;35.956333;-83.92619;803.54;NaN;;3.71;12.226105;114.3;12 / 20;24009;2022-10-26 20:49:27:150
-5.9961;-15.4923;0.3485;3.1835;-9.2439;0.7661;-4.947;-1.0428;-2.811;-1.2132;-0.8279;2.3275;0.0;1.91;34.07;-26.76;285.14;70.49;-76.47;0.0;987.11;53.506;35.956337;-83.92618;803.83;NaN;;4.32;12.226105;87.9;12 / 20;24509;2022-10-26 20:49:27:650
-14.2041;-23.0779;5.8295;-0.8284;-9.7664;0.3201;-4.2804;-4.8383;-2.1064;0.702;0.3748;-1.3439;0.0;7.88;34.61;-24.94;78.06;72.19;95.55;0.0;986.97;56.829;35.956337;-83.92618;803.83;NaN;;4.32;12.226105;87.9;12 / 20;25009;2022-10-26 20:49:28:150
-4.2003;-13.188;-0.7684;3.4756;-9.055;1.4486;-5.7627;-1.2591;-4.4485;-0.306;0.4562;-1.3035;0.0;3.9;33.56;-26.91;277.02;82.25;-78.96;0.0;987.33;52.634;35.956337;-83.92616;801.94;NaN;;4.39;12.226105;102.0;12 / 20;25509;2022-10-26 20:49:28:650
-12.0398;-22.0472;6.3407;-2.7681;-9.4078;0.0228;3.0458;4.0081;0.2005;0.6415;-0.1322;-1.4863;0.0;3.3;33.64;-26.59;76.44;73.6;89.53;0.0;986.97;55.278;35.956337;-83.92616;801.94;NaN;;4.39;12.226105;102.0;12 / 20;26010;2022-10-26 20:49:29:151
-3.7552;-14.5226;0.4442;2.7183;-9.3754;0.9399;-3.7194;-0.9492;-0.7639;-0.2098;0.3929;-1.8066;1.0;4.33;33.94;-26.16;281.92;72.94;-70.93;0.0;987.01;59.685;35.956337;-83.92615;802.92;NaN;;4.03;12.226105;97.7;12 / 20;26509;2022-10-26 20:49:29:650
-14.4245;-18.1412;3.6846;-1.4725;-9.6947;0.1228;4.5036;5.206;-2.8724;0.4425;1.1421;-2.3728;0.0;6.38;33.96;-25.76;85.88;71.34;81.94;0.0;986.97;54.784;35.956337;-83.92615;802.92;NaN;;4.03;12.226105;97.7;12 / 20;27010;2022-10-26 20:49:30:151
-3.3123;-10.4492;2.077;2.9858;-9.2727;1.1277;-6.3222;-2.1787;-5.3911;0.0644;0.4597;-0.7449;1.0;8.29;33.34;-26.51;281.67;88.71;-83.68;0.0;987.34;53.346;35.956337;-83.92613;799.25;NaN;;4.14;12.226105;97.8;13 / 20;27509;2022-10-26 20:49:30:650
3.0488;-4.2293;1.6747;-3.2335;-9.2563;-0.1916;2.3866;3.9324;-0.0171;0.3309;0.7576;-0.5892;0.0;4.52;33.79;-26.29;73.11;70.71;93.39;0.0;987.65;53.153;35.956337;-83.92613;799.25;NaN;;4.14;12.226105;97.8;13 / 20;28010;2022-10-26 20:49:31:151
0.7552;-10.1809;6.1301;2.4395;-9.4759;0.6524;-2.9375;-1.1733;-4.063;-0.7353;-0.1002;-1.6773;1.0;10.43;34.69;-25.22;343.19;87.72;-140.54;0.0;987.21;53.571;35.956333;-83.92612;798.04;NaN;;4.28;12.226105;106.1;13 / 20;28509;2022-10-26 20:49:31:650
-1.986;-6.3969;0.0849;-3.0152;-9.3154;0.5496;2.474;3.2244;-0.6882;0.1637;2.0957;1.1886;1.0;3.79;35.27;-27.53;95.57;82.04;82.59;0.0;987.16;52.722;35.956333;-83.92612;798.04;NaN;;4.28;12.226105;106.1;13 / 20;29010;2022-10-26 20:49:32:151
-1.7776;-12.2518;-7.1201;2.0019;-9.541;1.0641;-3.9958;-2.0965;-6.1634;0.7378;0.6846;-2.1781;0.0;20.63;34.74;-23.55;87.58;82.51;125.33;0.0;987.13;53.917;35.956333;-83.9261;796.2;NaN;;4.57;12.226105;99.3;14 / 20;29510;2022-10-26 20:49:32:651
0.2034;-7.1668;-3.3206;-2.3946;-9.5022;0.3796;5.8608;1.212;-0.3293;0.312;2.3744;-0.8828;0.0;12.68;37.11;-20.98;42.47;83.35;162.73;0.0;987.19;54.658;35.956333;-83.9261;796.2;NaN;;4.57;12.226105;99.3;14 / 20;30009;2022-10-26 20:49:33:150
0.0706;-9.4005;5.7517;1.171;-9.6697;1.1384;-0.422;-0.2715;-4.2535;0.6283;-0.3031;-1.5046;0.0;30.15;32.89;-3.58;115.97;81.37;137.64;0.0;987.25;48.772;35.95633;-83.92609;795.66;NaN;;5.04;12.226105;128.6;14 / 20;30509;2022-10-26 20:49:33:650
-3.6799;-8.0584;1.9235;-1.602;-9.6577;-0.5773;4.9543;-10.0501;1.67;-0.3207;3.9605;1.8045;0.0;18.08;36.13;-13.35;108.36;80.0;109.82;0.0;987.29;58.631;35.95633;-83.92609;795.66;NaN;;5.04;12.226105;128.6;14 / 20;31009;2022-10-26 20:49:34:150
1.0128;-8.7063;1.7345;-1.2293;-9.7003;-0.7501;6.855;-2.1242;3.4129;-0.2398;-1.0484;-2.1844;0.0;34.91;27.51;-5.1;194.15;70.01;72.35;0.0;986.62;55.435;35.95632;-83.92607;796.28;NaN;;4.46;12.226105;120.8;14 / 20;31509;2022-10-26 20:49:34:650
8.6617;-16.8604;0.4155;-1.1955;-9.7108;0.6651;9.0343;-5.984;-0.653;0.6049;-1.6649;2.7745;0.0;13.35;38.12;-13.46;324.71;69.0;-75.6;0.0;987.03;56.164;35.95632;-83.92607;796.28;NaN;;4.46;12.226105;120.8;14 / 20;32009;2022-10-26 20:49:35:150
7.162;-12.4696;0.449;-0.2709;-9.517;2.3501;-2.9803;-3.9299;-3.2729;-1.6456;0.2415;1.7895;0.0;23.38;33.92;-16.28;245.34;83.13;-2.38;0.0;987.16;54.871;35.95631;-83.92606;796.9;NaN;;5.0;12.226105;152.1;14 / 20;32509;2022-10-26 20:49:35:650
3.9335;-13.11;0.2058;2.4658;-9.4127;1.2208;-4.7757;-4.9406;-2.9172;-0.3277;-1.3433;2.2249;0.0;12.23;36.13;-21.06;295.43;73.71;-63.66;0.0;987.01;53.693;35.95631;-83.92606;796.9;NaN;;5.0;12.226105;152.1;14 / 20;33009;2022-10-26 20:49:36:150
5.3821;-9.5847;0.2417;-0.3846;-9.6692;1.5901;-4.3143;-2.8603;-1.5332;0.896;-0.7904;0.9382;1.0;18.13;34.43;-20.72;160.71;82.56;56.72;0.0;986.97;54.056;35.9563;-83.926056;797.61;NaN;;4.46;12.226105;130.6;14 / 20;33510;2022-10-26 20:49:36:651
-8.2442;-15.6383;-10.0528;3.3307;-9.1238;1.354;-6.0853;-1.582;2.2155;-1.0389;-0.8852;3.4799;0.0;10.24;34.63;-24.32;272.04;79.26;-54.66;0.0;987.04;53.353;35.9563;-83.926056;797.61;NaN;;4.46;12.226105;130.6;14 / 20;34009;2022-10-26 20:49:37:150
4.8781;-5.6177;-4.5356;-0.2916;-9.782;0.6311;-10.4587;-7.0344;2.4215;0.5354;-1.3804;-0.5274;1.0;13.18;33.77;-22.57;96.78;75.26;92.84;0.0;986.87;52.684;35.956295;-83.92604;798.51;NaN;;4.36;12.226105;109.6;14 / 20;34509;2022-10-26 20:49:37:650
-2.9351;-11.1697;-0.2189;2.4429;-9.4792;0.5899;-8.2364;-5.8248;-3.2181;-1.2556;-0.523;3.3121;0.0;2.31;33.84;-25.8;281.67;71.39;-72.5;0.0;987.18;52.559;35.956295;-83.92604;798.51;NaN;;4.36;12.226105;109.6;14 / 20;35009;2022-10-26 20:49:38:150
-6.3885;-15.9589;0.1496;-0.5394;-9.7888;0.2443;1.4389;0.6696;-2.6186;0.5126;-0.2214;-0.3325;0.0;9.08;34.18;-23.51;131.42;86.54;65.63;0.0;987.38;52.375;35.956295;-83.92603;797.53;NaN;;4.39;12.226105;99.0;13 / 20;35509;2022-10-26 20:49:38:650
-1.6113;-12.0135;1.8553;3.4482;-9.0648;1.4526;-4.7937;-2.0113;0.9535;-0.9583;-1.0176;1.7597;0.0;6.36;34.01;-24.88;271.23;74.33;-56.02;0.0;987.4;52.464;35.956295;-83.92603;797.53;NaN;;4.39;12.226105;99.0;13 / 20;36010;2022-10-26 20:49:39:151
-14.6578;-21.055;4.847;-2.3549;-9.5192;0.0996;5.8256;5.0983;0.3076;0.7003;-0.0459;-2.711;0.0;11.36;33.06;-23.1;99.28;76.09;87.58;0.0;987.11;52.788;35.95629;-83.92602;797.9;NaN;;4.54;12.226105;101.7;13 / 20;36510;2022-10-26 20:49:39:651
-1.2808;-9.5608;3.4403;2.1684;-9.4316;1.5853;-5.1414;-1.4556;-4.1632;0.4537;0.4497;-0.5461;0.0;3.51;31.91;-25.65;262.95;74.1;-53.83;0.0;987.06;52.762;35.95629;-83.92602;797.9;NaN;;4.54;12.226105;101.7;13 / 20;37009;2022-10-26 20:49:40:150
5.9542;-2.575;1.3669;-3.0089;-9.3335;0.0611;2.1738;3.305;-0.4267;0.2073;0.5029;-0.8721;0.0;4.28;32.31;-24.79;77.48;72.13;88.84;0.0;987.12;52.846;35.956287;-83.926;794.03;NaN;;4.68;12.226105;98.9;13 / 20;37509;2022-10-26 20:49:40:650
-1.282;-9.9739;2.697;2.2892;-9.4356;1.3784;-2.9303;-0.9543;0.7036;-0.5676;0.6513;-1.6719;0.0;5.63;32.85;-24.77;273.57;74.19;-58.95;0.0;987.1;53.044;35.956287;-83.926;794.03;NaN;;4.68;12.226105;98.9;13 / 20;38009;2022-10-26 20:49:41:150
-14.3133;-22.3896;5.3749;-1.8808;-9.6241;0.1024;6.5139;3.7742;-3.3369;-0.3207;0.7234;0.1009;0.0;5.72;32.49;-24.43;85.11;72.45;85.12;0.0;987.1;52.296;35.956287;-83.92599;792.18;NaN;;5.29;12.226105;94.2;13 / 20;38509;2022-10-26 20:49:41:650
0.7744;-9.574;4.2027;2.6001;-9.4071;0.9571;-3.4516;-1.3906;-6.0569;1.8403;-0.2065;-1.6499;0.0;11.38;32.64;-24.9;344.73;85.8;-139.69;0.0;987.03;51.128;35.956287;-83.92599;792.18;NaN;;5.29;12.226105;94.2;13 / 20;39009;2022-10-26 20:49:42:150
-1.7225;-10.8404;-5.2238;-2.9423;-9.3547;0.0524;3.4907;4.0371;-1.196;-0.0565;0.3706;-0.3455;0.0;5.78;32.29;-28.48;83.04;72.54;88.98;0.0;987.11;51.919;35.956287;-83.925964;790.65;NaN;;4.61;12.226105;99.5;13 / 20;39509;2022-10-26 20:49:42:650
2.4479;-9.1537;5.3207;1.9932;-9.5177;1.269;-1.2742;-0.24;2.6094;-0.5014;0.2071;-1.6552;0.0;2.46;33.81;-28.88;258.31;76.06;-57.52;0.0;986.98;50.048;35.956287;-83.925964;790.65;NaN;;4.61;12.226105;99.5;13 / 20;40009;2022-10-26 20:49:43:150
2.7425;-4.4148;1.0319;-2.5945;-9.4477;0.4237;7.9693;2.0141;-2.8828;-0.2822;1.5064;0.4128;0.0;-0.71;35.01;-25.13;322.25;87.37;-142.32;0.0;987.16;50.499;35.956284;-83.92596;789.21;NaN;;4.86;12.226105;107.6;13 / 20;40509;2022-10-26 20:49:43:650
-1.6675;-8.6991;2.7903;1.6242;-9.6487;0.6602;-0.7591;0.046;4.5667;-0.7666;-0.2264;-1.6378;1.0;6.84;35.48;-20.83;282.4;79.7;-67.88;0.0;986.95;50.315;35.956284;-83.92596;789.21;NaN;;4.86;12.226105;107.6;13 / 20;41009;2022-10-26 20:49:44:150
-0.9517;-13.456;-6.6138;-1.9101;-9.6158;-0.2425;6.3496;4.0944;1.0587;-0.006;1.6891;0.6391;0.0;6.6;32.83;-16.46;89.65;78.12;90.57;0.0;987.14;50.065;35.95628;-83.92594;788.72;NaN;;4.9;12.226105;108.3;13 / 20;41509;2022-10-26 20:49:44:650
0.315;-10.3881;3.4869;-0.8351;-9.7556;-0.5484;7.7421;-0.1875;1.9777;-0.4893;0.0999;-1.9151;1.0;19.18;29.46;-16.93;98.23;84.15;123.29;0.0;987.27;49.623;35.95628;-83.92594;788.72;NaN;;4.9;12.226105;108.3;13 / 20;42009;2022-10-26 20:49:45:150
0.6093;-5.3904;0.9398;-2.5222;-9.4743;0.217;5.4118;4.7679;-1.9659;0.4161;-0.1723;-0.4237;0.0;10.14;26.49;-22.74;102.32;75.04;85.08;0.0;987.12;49.334;35.956276;-83.92593;786.11;NaN;;4.75;12.226105;106.6;13 / 20;42509;2022-10-26 20:49:45:650
-3.2668;-12.8827;-17.7296;2.0947;-9.4216;1.7368;-2.4105;-1.5286;-3.6826;0.0664;0.7661;-1.527;0.0;6.69;20.51;-23.29;51.08;86.71;143.66;0.0;987.04;49.815;35.956276;-83.92593;786.11;NaN;;4.75;12.226105;106.6;13 / 20;43010;2022-10-26 20:49:46:151
5.339;-2.0076;1.5168;-3.151;-9.2847;-0.1893;3.264;3.009;0.118;-0.445;1.3936;1.0336;1.0;4.26;23.08;-18.88;76.24;71.22;93.44;0.0;987.21;49.029;35.956272;-83.92591;781.61;NaN;;4.9;12.226105;92.6;13 / 20;43509;2022-10-26 20:49:46:650
-2.0231;-11.6617;-6.8973;0.9934;-9.7449;0.4702;0.3311;1.0176;1.9942;0.2341;-0.5669;-1.5842;1.0;18.38;25.74;-12.73;117.32;79.55;105.43;0.0;987.07;49.718;35.956272;-83.92591;781.61;NaN;;4.9;12.226105;92.6;13 / 20;44009;2022-10-26 20:49:47:150
6.8303;-1.4761;1.1623;-3.2618;-9.2483;-0.0266;2.8277;3.9956;0.1934;0.1617;1.1691;1.1204;0.0;6.49;29.93;-24.96;97.94;76.69;79.48;0.0;987.23;50.107;35.95627;-83.9259;779.74;NaN;;4.72;12.226105;108.0;12 / 20;44509;2022-10-26 20:49:47:650
-3.1938;-11.4652;-3.2177;1.6215;-9.6373;0.8143;-0.7792;-0.5162;4.2766;-0.0954;0.4775;-1.9657;0.0;6.88;28.54;-24.88;98.41;80.69;86.69;0.0;987.71;50.413;35.95627;-83.9259;779.74;NaN;;4.72;12.226105;108.0;12 / 20;45010;2022-10-26 20:49:48:151
1.0857;-4.8278;-0.2094;-2.871;-9.3729;0.275;9.0389;1.6789;-1.1997;0.1816;0.8073;0.4226;1.0;2.4;28.14;-19.58;77.12;72.9;84.53;0.0;987.27;48.921;35.956264;-83.92589;781.07;NaN;;4.82;12.226105;97.1;12 / 20;45509;2022-10-26 20:49:48:650
2.7616;-8.8187;6.7454;0.8833;-9.755;0.4803;1.3186;1.0292;5.8873;0.9991;0.7771;-2.3093;1.0;14.63;28.65;-18.0;158.44;78.89;55.95;0.0;987.61;47.996;35.956264;-83.92589;781.07;NaN;;4.82;12.226105;97.1;12 / 20;46009;2022-10-26 20:49:49:150
3.5336;-3.5204;1.5957;-2.8282;-9.381;0.4097;5.8556;4.0557;-3.9123;0.054;1.4912;0.7807;0.0;8.36;29.49;-23.32;51.01;83.04;141.91;0.0;987.42;48.902;35.956264;-83.92587;783.56;NaN;;4.82;12.226105;88.8;12 / 20;46509;2022-10-26 20:49:49:650
-3.0081;-13.3603;-15.315;1.5427;-9.663;0.6452;-1.5916;0.3175;3.9776;1.6743;0.7571;-2.0818;0.0;13.13;26.89;-22.16;124.1;82.6;79.75;0.0;987.17;48.239;35.956264;-83.92587;783.56;NaN;;4.82;12.226105;88.8;12 / 20;47010;2022-10-26 20:49:50:151
4.1812;-6.184;-2.2947;-2.9181;-9.3606;-0.1858;5.634;-6.6594;2.5447;0.7465;0.4484;1.4931;0.0;7.29;29.08;-28.5;82.26;81.21;102.84;0.0;987.21;49.004;35.956264;-83.92586;782.76;NaN;;4.93;12.226105;102.7;13 / 20;47509;2022-10-26 20:49:50:650
-3.0981;-12.6829;-8.5588;0.6501;-9.7845;0.1081;1.4562;0.3945;2.5851;1.2535;0.4952;-2.194;0.0;5.81;33.58;-21.34;84.59;77.88;92.04;0.0;987.2;48.96;35.956264;-83.92586;782.76;NaN;;4.93;12.226105;102.7;13 / 20;48009;2022-10-26 20:49:51:150
2.5786;-6.6102;-1.3334;-1.5665;-9.6742;-0.3562;6.896;-7.0178;2.2471;1.0334;0.3799;1.0758;0.0;-0.34;33.99;-17.31;60.74;80.57;102.81;0.0;986.97;47.867;35.956264;-83.92585;784.08;NaN;;4.86;12.226105;86.9;13 / 20;48509;2022-10-26 20:49:51:650
6.8602;-9.2399;3.1376;-2.1529;-9.5394;0.7315;6.4615;2.8205;-3.1175;-0.2862;0.4306;-2.1167;0.0;18.77;29.31;-10.48;190.79;83.92;53.05;0.0;987.03;48.089;35.956264;-83.92585;784.08;NaN;;4.86;12.226105;86.9;13 / 20;49010;2022-10-26 20:49:52:151
8.2346;-15.0099;6.4678;-0.9041;-9.7527;-0.4885;2.6242;-7.1044;0.5065;-0.9028;-1.1216;3.7385;0.0;12.0;32.03;-16.84;311.27;68.49;-71.96;0.0;986.95;48.059;35.956264;-83.925835;786.25;NaN;;4.75;12.226105;101.2;13 / 20;49510;2022-10-26 20:49:52:651
5.1903;-7.8514;1.2365;-2.1078;-9.5078;1.1527;5.8322;2.0009;-4.8796;-1.2876;0.1458;-0.9095;0.0;19.41;22.91;-24.36;177.26;83.46;40.86;0.0;986.97;48.145;35.956264;-83.925835;786.25;NaN;;4.75;12.226105;101.2;13 / 20;50009;2022-10-26 20:49:53:150
6.2677;-20.6516;4.0759;-0.9502;-9.7563;-0.2882;2.9612;-5.419;1.0449;-1.1036;-0.7454;2.9299;1.0;2.98;23.08;-23.83;279.79;69.31;-72.64;0.0;986.95;47.832;35.956257;-83.92582;789.12;NaN;;4.72;12.226105;107.8;13 / 20;50509;2022-10-26 20:49:53:650
5.225;-12.5318;0.3532;-1.9095;-9.4452;1.8198;4.0383;-3.5573;-5.465;-1.8396;1.2866;-0.4182;1.0;13.16;20.08;-19.71;155.04;81.12;54.58;0.0;986.9;47.037;35.956257;-83.92582;789.12;NaN;;4.72;12.226105;107.8;13 / 20;51010;2022-10-26 20:49:54:151
-6.2234;-13.413;-3.7481;3.6734;-8.9753;1.4563;-6.9816;-3.2679;-0.0638;-1.2829;-0.613;2.2691;0.0;6.66;22.07;-21.67;267.51;73.64;-53.54;0.0;987.25;48.162;35.956257;-83.9258;789.51;NaN;;4.39;12.226105;104.5;13 / 20;51509;2022-10-26 20:49:54:650
-10.0289;-15.5773;5.0575;-1.223;-9.7058;0.6864;-5.827;-5.7299;2.2331;-0.0828;-2.2187;1.5262;0.0;12.45;24.71;-22.14;103.2;74.77;89.65;0.0;987.41;49.02;35.956257;-83.9258;789.51;NaN;;4.39;12.226105;104.5;13 / 20;52009;2022-10-26 20:49:55:150
-7.6098;-15.6287;0.6846;3.7614;-8.986;1.1289;-9.3536;-4.6708;-0.0707;-0.1895;-0.209;-0.223;0.0;5.74;24.99;-25.09;288.71;66.39;-73.29;0.0;987.23;47.602;35.956257;-83.92579;789.85;NaN;;4.46;12.226105;103.1;14 / 20;52509;2022-10-26 20:49:55:650
1.2377;-17.9749;-9.3132;-1.1016;-9.687;1.0581;-10.1492;-3.7561;-0.007;1.4368;-1.8983;-0.2591;1.0;12.88;24.13;-23.03;107.11;72.63;85.91;0.0;987.02;47.68;35.956257;-83.92579;789.85;NaN;;4.46;12.226105;103.1;14 / 20;53010;2022-10-26 20:49:56:151
-2.5738;-11.324;3.2405;3.6406;-9.0084;1.3284;-2.3774;-0.8958;-5.4466;-0.9904;-1.4819;2.73;0.0;9.09;24.84;-23.23;295.36;81.13;-86.07;0.0;987.28;48.699;35.95625;-83.92577;787.99;NaN;;4.86;12.226105;116.7;15 / 20;53509;2022-10-26 20:49:56:650
-7.2003;-10.4683;3.8366;-1.1741;-9.7247;0.4702;-6.4032;-5.264;0.3936;0.4529;-0.2358;-1.8242;0.0;9.02;27.0;-24.82;93.1;70.76;85.77;0.0;986.85;48.449;35.95625;-83.92577;787.99;NaN;;4.86;12.226105;116.7;15 / 20;54009;2022-10-26 20:49:57:150
-2.5582;-11.5098;1.6687;3.5007;-9.1;1.0509;-3.9117;-1.6051;1.7512;-0.6565;-0.0572;0.3885;0.0;8.68;28.46;-26.74;286.54;81.4;-80.09;0.0;987.58;48.249;35.95625;-83.92576;788.11;NaN;;5.22;12.226105;91.6;14 / 20;54509;2022-10-26 20:49:57:650
-11.5505;-20.3438;3.1627;-3.0483;-9.3195;0.1554;2.6106;2.5366;0.0386;0.5367;1.0302;-1.2385;0.0;14.83;28.11;-28.88;103.8;71.87;87.08;0.0;987.16;48.441;35.95625;-83.92576;788.11;NaN;;5.22;12.226105;91.6;14 / 20;55009;2022-10-26 20:49:58:150
-0.7935;-11.3264;-7.3367;1.0454;-9.7482;0.2251;0.4293;0.9266;2.3042;-0.1061;0.3613;-1.7095;0.0;14.7;28.09;-33.45;286.85;83.74;-77.85;0.0;987.05;48.547;35.956245;-83.92575;790.46;NaN;;4.54;12.226105;99.9;14 / 20;55509;2022-10-26 20:49:58:650
-4.5488;-10.3244;-3.0332;-3.1217;-9.2924;0.2756;1.6395;2.9403;0.1072;0.3966;0.08;-2.1633;0.0;4.74;30.88;-33.98;94.25;79.15;84.11;0.0;987.1;47.131;35.956245;-83.92575;790.46;NaN;;4.54;12.226105;99.9;14 / 20;56009;2022-10-26 20:49:59:150
-0.3784;-9.7941;4.5141;1.1701;-9.7337;0.2356;-0.3342;0.9918;2.95;1.4424;-0.6796;-1.8596;0.0;10.09;31.24;-29.29;284.43;83.01;-78.62;0.0;987.14;47.586;35.95624;-83.925735;790.65;NaN;;4.5;12.226105;108.3;14 / 19;56510;2022-10-26 20:49:59:651
6.6174;-2.0399;1.6711;-3.5705;-9.133;0.097;2.0764;2.5646;-0.5096;-0.3646;1.7433;0.8534;0.0;9.88;30.23;-29.01;88.24;68.64;88.44;0.0;987.08;45.441;35.95624;-83.925735;790.65;NaN;;4.5;12.226105;108.3;14 / 19;57009;2022-10-26 20:50:00:150
-1.5754;-11.0285;4.733;-0.2709;-9.7968;-0.347;4.6904;1.413;3.2041;0.915;-1.2251;-2.3254;0.0;21.53;32.04;-27.77;73.93;87.43;142.02;0.0;986.98;46.403;35.95624;-83.92572;792.54;NaN;;4.75;12.226105;102.6;14 / 20;57510;2022-10-26 20:50:00:651
3.8306;-3.7217;1.5598;-2.7266;-9.3993;0.6244;6.0446;4.5016;-3.5087;-0.3447;1.6386;0.0512;1.0;7.52;35.27;-31.33;38.87;82.81;150.88;0.0;986.97;46.336;35.95624;-83.92572;792.54;NaN;;4.75;12.226105;102.6;14 / 20;58010;2022-10-26 20:50:01:151
-2.6946;-12.8204;-22.3083;1.7609;-9.5911;1.0398;-0.7391;0.2265;4.9756;0.0059;-0.0247;-2.1122;0.0;18.11;32.81;-31.28;107.45;83.63;96.97;0.0;986.97;46.598;35.95624;-83.92571;792.88;NaN;;4.82;12.226105;84.8;13 / 20;58509;2022-10-26 20:50:01:650
-1.148;-6.2988;-0.012;-2.3577;-9.4913;0.7254;8.8374;-0.4166;0.5098;-0.1958;1.8619;0.6519;0.0;10.88;33.45;-32.89;111.71;75.43;72.9;0.0;987.0;46.462;35.95624;-83.92571;792.88;NaN;;4.82;12.226105;84.8;13 / 20;59010;2022-10-26 20:50:02:151
1.3502;-9.5237;4.7462;-0.3428;-9.7889;-0.4805;5.6496;1.2636;2.8405;-1.5641;2.0709;-1.9535;0.0;14.51;31.52;-34.63;136.94;79.03;59.41;0.0;986.96;47.27;35.956238;-83.9257;795.32;NaN;;5.04;12.226105;106.5;12 / 20;59509;2022-10-26 20:50:02:650
6.4496;-12.0879;3.5085;0.1628;-9.8024;-0.2373;-0.4505;-2.5404;-0.5931;0.3955;-1.063;2.3043;0.0;4.58;35.14;-35.44;334.39;88.32;-145.55;0.0;987.1;46.352;35.956238;-83.9257;795.32;NaN;;5.04;12.226105;106.5;12 / 20;60009;2022-10-26 20:50:03:150
-1.0929;-11.415;-1.9427;-1.5555;-9.6645;0.5903;7.4874;0.0748;-0.6191;-0.8305;1.6799;-2.0735;0.0;11.29;35.12;-36.32;119.43;80.23;69.22;0.0;986.93;48.717;35.95623;-83.92568;795.82;NaN;;4.75;12.226105;91.6;13 / 20;60509;2022-10-26 20:50:03:650
1.4725;-4.9654;0.2704;-2.0532;-9.5534;0.8289;8.7219;-2.5184;1.475;-0.0947;1.5439;0.7633;0.0;2.04;36.09;-36.77;102.06;76.95;68.02;0.0;987.09;50.753;35.95623;-83.92568;795.82;NaN;;4.75;12.226105;91.6;13 / 20;61009;2022-10-26 20:50:04:150
2.2349;-8.645;7.0484;-1.0811;-9.7364;0.4521;8.0726;-2.2122;-0.3019;-2.2917;2.3384;-1.2299;0.0;7.95;34.03;-37.86;149.5;73.97;34.29;0.0;986.86;47.695;35.95623;-83.92567;790.88;NaN;;4.64;12.226105;93.1;13 / 20;61509;2022-10-26 20:50:04:650
8.3088;-17.3596;7.1692;-1.7867;-9.642;-0.1035;-2.1817;-3.3872;-0.137;0.7315;0.8065;1.068;0.0;-5.72;35.14;-35.19;265.54;72.76;-77.31;0.0;987.16;51.714;35.95623;-83.92567;790.88;NaN;;4.64;12.226105;93.1;13 / 20;62009;2022-10-26 20:50:05:150
2.7401;-9.204;4.6445;-0.2216;-9.777;-0.7288;7.287;0.0908;-0.9984;-2.1464;1.7902;0.6037;0.0;4.05;39.08;-31.14;156.42;78.18;24.6;0.0;986.83;49.121;35.95623;-83.92565;790.11;NaN;;4.61;12.226105;85.1;15 / 20;62509;2022-10-26 20:50:05:650
2.6683;-6.3383;-3.3685;2.3128;-9.5252;0.304;-9.4303;-4.7819;-3.7121;0.4571;0.9747;0.9987;0.0;-7.14;38.16;-30.41;267.02;76.24;-82.51;0.0;987.32;45.085;35.95623;-83.92565;790.11;NaN;;4.61;12.226105;85.1;15 / 20;63009;2022-10-26 20:50:06:150
2.697;-8.8008;3.1352;-1.3754;-9.5409;1.8028;1.9691;-0.0304;-6.3471;-2.407;2.3971;-0.1197;0.0;5.93;40.5;-29.51;142.13;76.63;37.34;0.0;986.86;46.369;35.95623;-83.92563;789.87;NaN;;4.54;12.226105;103.6;15 / 20;63509;2022-10-26 20:50:06:650
4.5141;-5.9518;-0.5638;-1.0362;-9.7359;-0.5563;3.9971;-6.9722;2.1122;1.7311;-0.2425;1.4848;0.0;-5.59;41.79;-27.99;274.38;68.29;-71.22;0.0;987.04;45.612;35.95623;-83.92563;789.87;NaN;;4.54;12.226105;103.6;15 / 20;64010;2022-10-26 20:50:07:151
6.4244;-12.0206;0.6703;-0.2323;-9.6872;1.5081;-5.4815;-3.7824;-1.162;-0.098;-1.8077;1.786;0.0;9.17;44.18;-28.13;191.97;81.05;8.76;0.0;987.1;45.224;35.95623;-83.92562;788.9;NaN;;4.72;12.226105;98.5;15 / 20;64510;2022-10-26 20:50:07:651
-2.1212;-11.566;-1.1444;2.8996;-9.3496;0.5903;-9.059;-4.1394;-3.9495;0.5806;-2.0257;2.7984;0.0;-2.59;42.21;-29.46;278.9;72.44;-78.49;0.0;986.98;45.592;35.95623;-83.92562;788.9;NaN;;4.72;12.226105;98.5;15 / 20;65009;2022-10-26 20:50:08:150
6.0846;-10.9217;-6.9894;-0.9553;-9.6701;1.3216;-0.4794;-4.2707;-1.0958;-0.5248;-2.4211;1.0086;1.0;8.93;42.96;-25.72;123.54;86.33;70.7;0.0;987.0;49.673;35.95623;-83.925606;786.29;NaN;;4.79;12.393302;87.4;16 / 20;65510;2022-10-26 20:50:08:651
-2.345;-11.2187;2.4443;1.9272;-9.6141;0.1609;-8.701;-4.1883;-3.3762;-1.4598;-1.3949;2.9262;0.0;-5.25;38.96;-30.07;270.7;78.63;-85.23;0.0;986.93;45.158;35.95623;-83.925606;786.29;NaN;;4.79;12.393302;87.4;16 / 20;66011;2022-10-26 20:50:09:152
3.2046;-11.7503;-5.3183;-1.3688;-9.5162;1.9336;2.9927;-3.7526;-3.9476;1.0088;-2.9194;2.175;0.0;5.64;40.09;-30.73;72.31;71.11;87.41;0.0;986.99;45.171;35.956238;-83.92559;787.56;NaN;;4.39;12.318916;74.9;16 / 20;66509;2022-10-26 20:50:09:650
6.5719;-14.4915;6.6138;-1.4248;-9.6881;-0.5307;4.6967;-6.9589;1.4347;-0.4692;-2.3472;3.2815;0.0;-4.8;38.06;-31.05;262.71;72.42;-69.19;0.0;986.86;48.423;35.956238;-83.92559;787.56;NaN;;4.39;12.318916;74.9;16 / 20;67010;2022-10-26 20:50:10:151
3.3697;-6.3622;-0.9458;-1.3653;-9.6801;0.7762;3.5058;1.0664;-3.4238;0.8401;-0.6689;0.2573;0.0;3.13;40.05;-28.67;128.04;84.21;51.44;0.0;986.87;47.828;35.95624;-83.925575;783.6;NaN;;5.04;12.673669;58.5;15 / 20;67510;2022-10-26 20:50:10:651
-4.4243;-14.9189;-1.2832;3.5923;-9.0197;1.3824;-4.761;-1.0242;0.5778;-1.1851;-0.6364;2.8335;1.0;-9.17;37.13;-31.56;261.94;66.89;-68.95;0.0;986.82;44.732;35.95624;-83.925575;783.6;NaN;;5.04;12.673669;58.5;15 / 20;68009;2022-10-26 20:50:11:150
5.1257;-11.9465;1.2664;-0.5128;-9.7696;0.6793;-9.9161;-7.5576;3.2473;-1.0694;-0.2059;0.5933;1.0;0.58;41.78;-30.3;140.3;85.02;37.05;0.0;986.75;46.553;35.956245;-83.92556;778.32;NaN;;5.11;13.083155;87.3;14 / 20;68509;2022-10-26 20:50:11:650
-0.7217;-16.1519;-0.055;2.3961;-9.5053;0.2808;-9.4011;-5.0993;-3.9661;-1.4117;-1.563;2.1592;1.0;-7.99;39.64;-30.19;267.53;75.76;-83.32;0.0;986.84;47.791;35.956245;-83.92556;778.32;NaN;;5.11;13.083155;87.3;14 / 20;69010;2022-10-26 20:50:12:151
4.4806;-6.7513;1.3202;0.4907;-9.7485;0.9466;-1.7288;-3.668;-0.8036;1.0703;-2.7716;1.9108;0.0;1.99;41.16;-28.29;73.05;75.29;90.13;0.0;986.71;48.803;35.95625;-83.92555;779.53;NaN;;4.5;14.103333;76.6;15 / 20;69510;2022-10-26 20:50:12:651
-10.151;-16.104;-10.6633;3.5253;-9.088;1.073;-10.6315;-4.7828;-4.1938;-1.1138;-1.9053;1.3664;1.0;-6.02;39.49;-30.06;272.63;67.93;-73.07;0.0;986.83;46.214;35.95625;-83.92555;779.53;NaN;;4.5;14.103333;76.6;15 / 20;70010;2022-10-26 20:50:13:151
-6.6329;-11.8424;1.0893;-0.197;-9.7773;0.7326;2.8553;2.4182;-3.053;0.5323;-0.6817;-1.185;0.0;4.39;41.19;-27.43;72.78;72.96;90.41;0.0;986.65;48.343;35.95625;-83.92554;780.83;NaN;;4.54;13.925769;71.6;16 / 20;70509;2022-10-26 20:50:13:650
-4.7557;-11.5385;-2.3486;3.2307;-9.1595;1.3552;-5.4606;-1.6772;-4.3187;-1.1703;-1.0689;2.603;0.0;-2.62;36.58;-31.54;268.13;69.07;-67.24;0.0;986.91;46.904;35.95625;-83.92554;780.83;NaN;;4.54;13.925769;71.6;16 / 20;71010;2022-10-26 20:50:14:151
1.0403;-11.4927;-5.8463;-0.1992;-9.7798;0.698;-9.0154;-9.0077;1.8368;0.0044;-1.9399;1.6542;0.0;3.6;39.06;-30.07;170.76;85.76;15.93;0.0;986.79;45.001;35.956257;-83.92553;782.35;NaN;;4.32;14.014807;55.5;16 / 20;71509;2022-10-26 20:50:14:650
2.1392;-13.5733;-0.6117;3.6408;-9.028;1.1874;-5.5795;-0.7869;1.5168;-1.1588;-0.9764;4.0162;0.0;-2.29;37.41;-31.89;267.34;71.8;-68.51;0.0;987.04;45.828;35.956257;-83.92553;782.35;NaN;;4.32;14.014807;55.5;16 / 20;72009;2022-10-26 20:50:15:150
5.3378;-6.0858;0.3281;-0.204;-9.7707;0.8143;-10.8679;-7.8825;2.7726;0.47;-0.7329;-0.7119;0.0;2.93;39.11;-28.42;77.67;75.08;87.77;0.0;987.14;45.178;35.956264;-83.92552;784.57;NaN;;4.46;14.009799;59.0;16 / 20;72514;2022-10-26 20:50:15:655
-6.8136;-15.2432;1.1085;3.1371;-9.2214;1.1379;-3.6908;-1.1569;-4.0178;-1.1828;-1.0805;1.9703;0.0;-2.93;38.03;-27.0;273.81;70.11;-70.06;0.0;987.08;45.723;35.956264;-83.92552;784.57;NaN;;4.46;14.009799;59.0;16 / 20;73009;2022-10-26 20:50:16:150
3.4762;-4.678;-5.8798;-0.4162;-9.7867;0.4674;1.3705;0.5735;-3.1377;0.842;-0.515;-0.3825;1.0;-0.06;40.8;-22.26;133.29;86.34;41.68;0.0;987.03;45.931;35.956264;-83.92551;782.79;NaN;;4.97;13.925874;80.5;16 / 20;73509;2022-10-26 20:50:16:650
-1.6998;-10.0241;3.0117;2.3286;-9.4024;1.5309;-2.7746;-1.4196;-4.5165;-0.3954;0.6357;-1.6186;0.0;-5.68;36.86;-29.08;245.44;73.49;-56.68;0.0;987.02;45.09;35.956264;-83.92551;782.79;NaN;;4.97;13.925874;80.5;16 / 20;74009;2022-10-26 20:50:17:150
-5.7517;-17.441;-0.7576;-0.0877;-9.776;0.7692;-0.7571;-2.0503;-2.1235;0.6957;0.2579;-2.9192;0.0;-2.53;36.68;-29.25;68.1;72.65;85.51;0.0;987.02;45.401;35.95627;-83.92549;784.96;NaN;;4.14;14.024453;76.7;16 / 20;74510;2022-10-26 20:50:17:651
-2.5089;-9.9799;2.1691;3.1565;-9.1798;1.3924;-4.6768;-0.7096;-0.3754;0.0344;-0.5584;-0.2578;0.0;-4.73;35.64;-32.14;262.26;69.4;-66.2;0.0;986.95;47.593;35.95627;-83.92549;784.96;NaN;;4.14;14.024453;76.7;16 / 20;75009;2022-10-26 20:50:18:150
-6.4594;-7.0376;0.4908;-0.5692;-9.7825;0.3867;3.8287;6.0993;0.178;0.5523;0.3799;-2.8349;0.0;-3.24;37.16;-29.94;67.44;74.66;89.59;0.0;987.04;47.103;35.956272;-83.92548;787.55;NaN;;4.46;14.691896;78.8;16 / 20;75509;2022-10-26 20:50:18:650
-1.7405;-10.5006;2.4072;1.6355;-9.5415;1.5671;0.5194;-0.6036;-1.1821;-0.0563;0.276;-0.9918;0.0;-3.6;37.59;-29.19;41.97;84.9;125.85;0.0;987.22;50.211;35.956272;-83.92548;787.55;NaN;;4.46;14.691896;78.8;16 / 20;76010;2022-10-26 20:50:19:151
5.7374;-3.8856;-1.622;-2.5021;-9.4732;0.4115;7.259;3.8394;-0.0996;0.2544;0.8004;-0.8802;0.0;-7.84;37.43;-26.92;63.38;76.59;84.59;0.0;986.95;59.116;35.956276;-83.92546;787.79;NaN;;4.5;14.75624;71.7;17 / 20;76509;2022-10-26 20:50:19:650
-0.9948;-11.3862;-16.1985;1.8555;-9.6236;0.3367;2.6812;2.3556;7.4602;-0.0098;1.0394;-1.0356;0.0;-7.95;35.21;-30.58;257.54;78.91;-79.71;0.0;986.93;52.729;35.956276;-83.92546;787.79;NaN;;4.5;14.75624;71.7;17 / 20;77009;2022-10-26 20:50:20:150
-9.5656;-10.8643;2.8502;-1.7379;-9.6405;0.4597;7.5586;6.9028;0.6161;0.8046;0.2567;-1.6016;0.0;2.44;37.41;-28.01;92.11;75.93;72.63;0.0;986.97;51.832;35.956276;-83.925446;786.65;NaN;;4.68;14.627395;76.2;16 / 20;77509;2022-10-26 20:50:20:650
-4.8661;-13.1016;4.4411;3.4125;-9.0509;1.6143;-7.2476;-1.8256;-0.7343;-0.4925;0.3589;-1.3872;0.0;4.56;36.0;-31.03;237.31;83.24;-41.41;0.0;986.98;47.065;35.956276;-83.925446;786.65;NaN;;4.68;14.627395;76.2;16 / 20;78009;2022-10-26 20:50:21:150
-4.453;-15.6945;0.5614;-2.6127;-9.4479;-0.2858;3.6432;4.7098;1.48;0.7077;0.4821;-2.6285;1.0;3.77;37.28;-27.38;71.9;74.45;96.24;0.0;987.07;48.731;35.95628;-83.92544;785.81;NaN;;4.43;14.583795;64.3;15 / 20;78510;2022-10-26 20:50:21:651
-7.0878;-14.0689;-2.8872;1.7759;-9.493;1.7028;-1.1821;0.0161;0.9368;0.0394;0.7988;-1.0888;0.0;3.11;36.41;-29.23;250.16;75.47;-46.2;0.0;986.96;45.692;35.95628;-83.92544;785.81;NaN;;4.43;14.583795;64.3;15 / 20;79009;2022-10-26 20:50:22:150
1.276;-10.3965;-8.3554;-1.9252;-9.6009;0.5354;6.7671;6.2034;0.5014;0.6862;0.3105;-1.4271;0.0;-3.09;36.34;-28.67;84.91;78.24;74.46;0.0;986.93;50.674;35.956284;-83.92542;783.8;NaN;;4.54;14.745165;64.9;15 / 20;79510;2022-10-26 20:50:22:651
-1.0666;-9.3838;2.3545;0.991;-9.7512;0.3207;1.7402;1.661;5.7231;-0.5136;0.6663;-1.7431;0.0;-0.09;37.26;-30.24;359.85;86.99;-179.84;0.0;986.9;47.877;35.956284;-83.92542;783.8;NaN;;4.54;14.745165;64.9;15 / 20;80009;2022-10-26 20:50:23:150
-6.5803;-18.9482;5.3498;-2.3865;-9.5115;0.082;4.1582;5.1423;0.4832;-0.0498;0.4066;-0.2615;1.0;-3.64;36.9;-29.91;68.46;75.91;88.03;0.0;986.92;48.418;35.956284;-83.92541;785.25;NaN;;4.64;14.110931;76.8;15 / 20;80510;2022-10-26 20:50:23:651
-2.406;-12.7187;-11.8161;1.6192;-9.6338;0.8595;-0.1378;1.2687;3.975;0.3531;0.4829;-2.0218;1.0;-2.34;36.86;-30.66;88.42;84.74;86.81;0.0;986.86;48.935;35.956284;-83.92541;785.25;NaN;;4.64;14.110931;76.8;15 / 20;81009;2022-10-26 20:50:24:150
5.5496;-3.3685;0.0562;-2.1444;-9.5665;0.231;5.3906;4.9662;1.0442;0.4835;0.5458;-3.0336;1.0;-4.07;36.81;-29.34;72.93;77.29;83.85;0.0;986.98;49.762;35.956287;-83.9254;786.99;NaN;;4.46;13.741163;68.1;15 / 20;81509;2022-10-26 20:50:24:650
0.1125;-10.3905;1.282;2.1697;-9.4603;1.4021;-2.3518;-0.6798;-0.7653;1.9469;-0.0305;-2.0225;1.0;-0.08;37.71;-29.53;18.02;86.09;160.49;0.0;986.73;47.204;35.956287;-83.9254;786.99;NaN;;4.46;13.741163;68.1;15 / 20;82009;2022-10-26 20:50:25:150
3.9036;-6.9511;-6.1935;-2.2437;-9.5465;-0.0026;5.5413;3.3089;-1.6818;0.5191;0.6309;-1.3811;1.0;-3.51;36.6;-28.33;66.13;76.77;90.07;0.0;986.97;48.765;35.95629;-83.925385;789.11;NaN;;4.61;13.874769;69.0;15 / 20;82509;2022-10-26 20:50:25:650
-2.7413;-12.958;-11.9943;-0.3303;-9.7767;-0.6904;5.5788;1.0789;3.6741;1.652;-0.0325;-1.912;0.0;3.6;37.56;-28.31;136.07;80.26;42.51;0.0;986.95;50.519;35.95629;-83.925385;789.11;NaN;;4.61;13.874769;69.0;15 / 20;83009;2022-10-26 20:50:26:150
3.1017;-5.7697;0.419;-2.1103;-9.5768;-0.0335;5.2046;2.594;-0.7624;-0.0525;0.8666;0.8437;1.0;-3.81;36.47;-30.28;67.96;77.57;90.91;0.0;987.22;51.536;35.956295;-83.92537;786.9;NaN;;4.64;13.686815;74.9;15 / 20;83510;2022-10-26 20:50:26:651
-0.1531;-10.1629;0.0251;-0.3403;-9.7956;-0.3182;1.7465;0.8985;3.2461;1.024;-0.8597;-1.7214;1.0;1.95;38.94;-30.58;48.1;87.28;133.07;0.0;987.06;49.1;35.956295;-83.92537;786.9;NaN;;4.64;13.686815;74.9;15 / 20;84009;2022-10-26 20:50:27:150
-0.2608;-6.0799;0.6655;-2.4076;-9.4881;0.5906;9.2263;-5.7891;3.2684;-0.0925;0.7429;0.4339;1.0;-6.71;37.31;-31.31;23.33;86.88;142.54;0.0;987.04;47.556;35.956295;-83.92536;789.34;NaN;;4.46;13.228333;67.0;15 / 20;84509;2022-10-26 20:50:27:650
0.1029;-10.1964;1.5443;-1.6132;-9.6617;0.4693;7.6416;1.2397;-0.1344;-0.5083;1.3091;-1.8614;1.0;1.26;37.91;-31.13;182.92;82.34;-0.57;0.0;986.92;48.758;35.956295;-83.92536;789.34;NaN;;4.46;13.228333;67.0;15 / 20;85009;2022-10-26 20:50:28:150
3.9036;-8.7051;-5.9183;-1.8036;-9.6359;0.2574;6.8195;-8.9841;1.5826;0.2501;0.7907;1.2712;1.0;-14.17;35.74;-29.51;256.85;75.06;-85.04;0.0;986.76;53.173;35.956303;-83.92535;788.97;NaN;;4.5;13.234306;60.5;15 / 20;85510;2022-10-26 20:50:28:651
3.3374;-9.07;3.4953;-0.7989;-9.6585;1.4987;6.849;0.1436;-0.7493;1.4198;-0.148;-1.8985;1.0;-5.06;39.26;-28.33;173.09;85.13;-4.05;0.0;986.95;47.218;35.956303;-83.92535;788.97;NaN;;4.5;13.234306;60.5;15 / 20;86010;2022-10-26 20:50:29:151
5.6393;-8.4703;1.2221;0.0581;-9.7753;-0.7809;8.2918;-7.8711;4.278;0.8624;-2.2108;2.6138;1.0;-11.34;36.45;-29.04;255.67;67.95;-68.42;0.0;986.86;48.373;35.956303;-83.92534;790.79;NaN;;4.5;12.837344;73.6;15 / 20;86509;2022-10-26 20:50:29:650
5.8415;-13.3723;0.7433;-1.1448;-9.6291;1.4632;1.0145;-0.3736;-4.535;-0.4896;1.1609;-1.7011;1.0;-0.24;37.37;-28.24;130.32;79.08;38.04;0.0;986.87;46.167;35.956303;-83.92534;790.79;NaN;;4.5;12.837344;73.6;15 / 20;87010;2022-10-26 20:50:30:151
4.2353;-7.678;0.1268;-0.6328;-9.7497;-0.8449;1.7914;-4.6722;0.6671;-1.3388;-0.6896;2.4978;0.0;-7.26;35.57;-29.79;21.2;83.82;143.17;0.0;986.89;50.459;35.95631;-83.92532;796.39;NaN;;4.1;12.376372;58.1;15 / 20;87510;2022-10-26 20:50:30:651
5.595;-8.3267;1.081;-1.3137;-9.5684;1.6999;2.2322;1.3445;-4.2104;-1.7573;1.9242;-0.2907;0.0;3.86;35.53;-29.61;139.32;77.35;37.7;0.0;986.82;51.579;35.95631;-83.92532;796.39;NaN;;4.1;12.376372;58.1;15 / 20;88009;2022-10-26 20:50:31:150
6.3299;-19.5192;1.5096;-1.3769;-9.6991;-0.4499;6.4658;-7.763;1.953;-1.279;-1.3645;3.4999;1.0;-5.17;33.26;-30.94;260.24;71.5;-68.63;0.0;987.03;53.87;35.956318;-83.92531;798.44;NaN;;3.89;12.396668;66.6;14 / 20;88509;2022-10-26 20:50:31:650
5.115;-12.1633;1.4701;-0.7691;-9.574;1.9791;3.7534;2.377;-3.8492;-0.0471;-0.5779;1.6302;0.0;-0.99;36.28;-28.69;209.73;82.92;-27.16;0.0;986.96;48.307;35.956318;-83.92531;798.44;NaN;;3.89;12.396668;66.6;14 / 20;89009;2022-10-26 20:50:32:150
1.3573;-13.6008;-2.5534;2.9957;-9.2616;1.1914;-6.7729;-3.9166;-1.3551;-1.392;-0.1832;2.9683;1.0;-7.69;32.81;-30.09;255.08;70.81;-68.31;0.0;986.98;49.756;35.95632;-83.9253;802.71;NaN;;3.85;12.283717;57.2;14 / 20;89509;2022-10-26 20:50:32:650
-5.9351;-6.3383;0.8788;0.1285;-9.7576;0.9708;-9.7179;-8.9904;2.927;0.3173;-1.9434;1.5359;1.0;-1.74;34.65;-27.19;136.06;85.5;35.57;0.0;986.99;50.212;35.95632;-83.9253;802.71;NaN;;3.85;12.283717;57.2;14 / 20;90009;2022-10-26 20:50:33:150
-4.5176;-12.3081;-0.0526;3.3882;-9.1121;1.2885;-7.5262;-4.0041;-3.1046;-0.253;-1.0336;0.5424;1.0;-5.34;31.8;-30.47;253.04;72.12;-62.84;0.0;986.91;48.83;35.956326;-83.92529;806.38;NaN;;4.32;12.226105;55.1;14 / 20;90510;2022-10-26 20:50:33:651
-7.8754;-16.451;1.6687;-1.1264;-9.734;0.3888;6.0427;6.0664;-1.0567;1.3744;-2.3705;1.3514;0.0;-1.54;34.61;-27.0;95.7;83.02;70.96;0.0;986.86;48.231;35.956326;-83.92529;806.38;NaN;;4.32;12.226105;55.1;14 / 20;91010;2022-10-26 20:50:34:151
-3.2094;-11.3874;0.256;2.7696;-9.3639;0.9038;-4.417;-0.4686;-2.434;0.4168;0.8349;-1.0399;1.0;-5.14;33.99;-28.84;263.36;72.72;-71.93;0.0;986.79;47.068;35.95633;-83.92528;808.0;NaN;;4.43;12.226105;66.4;13 / 20;91510;2022-10-26 20:50:34:651
-6.3455;-17.2974;-3.2489;-3.0003;-9.3302;0.3399;6.2933;4.7931;0.3786;0.5579;0.2497;-1.4181;0.0;1.22;35.16;-27.02;76.41;70.5;80.13;0.0;986.75;44.699;35.95633;-83.92528;808.0;NaN;;4.43;12.226105;66.4;13 / 20;92009;2022-10-26 20:50:35:150
-4.6768;-14.167;0.8282;2.9293;-9.2283;1.5579;-4.9876;-1.2593;-3.4485;-0.6293;0.7681;-1.6801;1.0;-0.08;34.33;-29.42;238.36;85.31;-53.59;0.0;986.82;48.044;35.95633;-83.92526;808.21;NaN;;4.46;12.226105;78.2;13 / 20;92509;2022-10-26 20:50:35:650
4.9762;-4.209;-0.1962;-2.6388;-9.4336;0.4626;3.4073;3.4654;0.1096;0.3932;0.7654;-2.9468;1.0;-0.54;35.79;-27.26;76.76;74.15;80.06;0.0;986.86;44.158;35.95633;-83.92526;808.21;NaN;;4.46;12.226105;78.2;13 / 20;93009;2022-10-26 20:50:36:150
-2.1571;-10.4767;1.2736;2.8473;-9.2804;1.3919;-4.7236;-2.2321;-6.1077;-0.4135;-2.4072;1.6516;1.0;-7.95;32.18;-30.02;249.15;71.14;-63.95;0.0;986.86;47.222;35.956333;-83.92525;808.77;NaN;;4.28;12.226105;70.9;13 / 20;93509;2022-10-26 20:50:36:650
-9.125;-18.2022;7.1943;-1.3194;-9.6943;0.6708;4.5419;5.1353;-1.1113;-0.0678;0.9494;-1.7256;1.0;-6.24;32.89;-28.8;86.93;76.89;66.45;0.0;986.94;43.567;35.956333;-83.92525;808.77;NaN;;4.28;12.226105;70.9;13 / 20;94009;2022-10-26 20:50:37:150
-4.0292;-13.1988;2.3139;3.4567;-9.0441;1.5573;-5.4153;-1.2018;0.0575;-0.2588;-0.8657;0.7181;1.0;-8.57;32.72;-29.42;222.12;80.57;-52.08;0.0;986.87;47.55;35.956337;-83.92523;809.48;NaN;;4.43;12.226105;68.0;13 / 20;94510;2022-10-26 20:50:37:651
-7.8897;-15.3867;-1.3226;-0.1295;-9.7977;0.3986;-8.4792;-7.8216;1.3599;0.854;-1.4353;0.5963;1.0;-3.34;37.59;-25.59;153.84;87.55;17.99;0.0;986.71;46.578;35.956337;-83.92523;809.48;NaN;;4.43;12.226105;68.0;13 / 20;95010;2022-10-26 20:50:38:151
-1.1743;-9.507;3.2608;2.5282;-9.4536;0.638;-4.5647;-1.0592;-4.7172;0.513;0.9473;-1.3423;1.0;-6.66;36.98;-26.59;262.84;74.58;-75.84;0.0;986.72;48.587;35.956345;-83.925224;810.13;NaN;;4.54;12.241807;55.2;13 / 20;95509;2022-10-26 20:50:38:650
5.8295;-3.1268;-0.0526;-3.1517;-9.279;0.3703;3.3087;3.5313;-0.4434;0.3622;0.8643;-1.2115;0.0;-0.26;37.16;-25.65;70.58;71.12;83.3;0.0;986.74;53.544;35.956345;-83.925224;810.13;NaN;;4.54;12.241807;55.2;13 / 20;96009;2022-10-26 20:50:39:150
-1.6017;-10.6011;3.0129;1.8868;-9.4648;1.7404;-1.6359;-0.5041;-0.5192;-0.6297;-0.134;-1.5965;0.0;-2.31;35.57;-28.37;241.78;74.83;-47.31;0.0;987.14;51.99;35.956345;-83.92521;811.2;NaN;;4.75;12.226105;75.5;13 / 20;96510;2022-10-26 20:50:39:651
-9.3538;-20.4168;4.8422;-2.6863;-9.4315;-0.0294;6.2716;4.7589;0.7299;0.4989;0.2533;-3.196;0.0;-1.22;36.56;-26.51;67.13;74.1;90.63;0.0;987.04;49.222;35.956345;-83.92521;811.2;NaN;;4.75;12.226105;75.5;13 / 20;97009;2022-10-26 20:50:40:150
1.6795;-10.0636;4.2736;0.718;-9.7794;0.1383;0.592;0.8877;4.0002;1.3701;-1.0404;-1.6954;1.0;-1.29;36.99;-27.07;262.83;85.72;-79.1;0.0;987.26;45.474;35.956352;-83.92519;814.72;NaN;;4.39;12.226105;64.1;13 / 20;97509;2022-10-26 20:50:40:650
5.2286;-5.2083;-4.3741;-2.3443;-9.5165;0.3319;8.0261;1.927;-1.1712;0.5627;0.4396;-0.5327;1.0;-6.11;35.79;-26.17;67.67;76.03;81.94;0.0;987.03;47.718;35.956352;-83.92519;814.72;NaN;;4.39;12.226105;64.1;13 / 20;98009;2022-10-26 20:50:41:150
0.1352;-9.2542;1.8757;0.3621;-9.7985;0.1667;1.1002;1.4836;3.6215;-0.6177;1.0997;-1.4902;1.0;1.82;36.26;-27.67;252.23;87.67;-65.28;0.0;986.94;46.585;35.956356;-83.92518;813.85;NaN;;4.61;12.226105;73.8;13 / 20;98509;2022-10-26 20:50:41:650
4.7031;-4.1883;0.2285;-2.9151;-9.352;0.4615;2.6859;3.5385;-0.7098;0.0537;1.388;0.7697;1.0;-3.13;35.4;-27.92;71.92;72.48;81.0;0.0;987.0;49.569;35.956356;-83.92518;813.85;NaN;;4.61;12.226105;73.8;13 / 20;99010;2022-10-26 20:50:42:151
2.2947;-8.7661;3.7756;-0.8111;-9.7714;-0.182;7.067;-0.2268;2.1211;1.7867;-0.128;-2.1752;0.0;2.19;36.24;-28.22;75.43;85.14;102.65;0.0;986.92;45.319;35.95636;-83.92517;812.92;NaN;;4.46;12.885626;59.2;13 / 20;99509;2022-10-26 20:50:42:650
-0.3963;-5.4634;0.2297;-2.142;-9.5285;0.8891;6.6618;2.1801;-0.4023;1.2684;0.3528;0.7826;1.0;-8.78;34.82;-28.09;271.31;86.97;-105.52;0.0;986.98;47.532;35.95636;-83.92517;812.92;NaN;;4.46;12.885626;59.2;13 / 20;100010;2022-10-26 20:50:43:151
1.4844;-9.0568;4.5763;-0.8854;-9.5947;1.8241;5.6906;0.8837;-3.4571;-2.1829;2.9838;-1.406;1.0;-3.41;35.61;-28.56;137.56;78.07;25.89;0.0;986.83;45.195;35.956364;-83.925156;813.51;NaN;;4.39;14.111831;52.6;13 / 20;100509;2022-10-26 20:50:43:650
-0.4202;-4.969;-5.6644;-0.5649;-9.7806;-0.4365;2.7304;-5.4521;-0.1682;-0.2149;0.7223;0.0928;1.0;-9.84;34.41;-28.59;246.36;77.86;-72.34;0.0;987.05;44.902;35.956364;-83.925156;813.51;NaN;;4.39;14.111831;52.6;13 / 20;101009;2022-10-26 20:50:44:150
4.7943;-6.1277;1.707;-1.0433;-9.7509;-0.0293;6.141;-2.2663;0.7619;-0.3576;1.1328;-1.3598;1.0;-1.95;36.54;-26.17;172.52;85.47;2.22;0.0;986.85;44.074;35.956367;-83.92514;817.86;NaN;;4.1;14.498986;60.2;13 / 20;101509;2022-10-26 20:50:44:650
5.1042;-10.5174;1.9008;2.0968;-9.5777;-0.2051;-8.3098;-4.5779;-3.2432;-1.3791;-1.1854;3.6461;1.0;-8.06;36.08;-24.81;274.75;77.59;-95.59;0.0;987.0;43.733;35.956367;-83.92514;817.86;NaN;;4.1;14.498986;60.2;13 / 20;102009;2022-10-26 20:50:45:150
5.479;-9.7367;1.0834;-0.5292;-9.6169;1.8455;-3.198;-5.7918;-3.9123;-1.2654;0.9873;1.0916;0.0;5.57;36.11;-26.66;175.22;78.71;16.0;0.0;987.14;44.539;35.956375;-83.925125;819.49;NaN;;4.36;14.859283;70.8;13 / 20;102510;2022-10-26 20:50:45:651
7.2314;-15.8261;4.5428;2.8878;-9.3104;1.0711;-7.592;-3.7547;-2.8502;0.3078;-2.3757;2.8679;1.0;-0.09;36.69;-26.03;277.1;71.7;-69.65;0.0;986.87;44.471;35.956375;-83.925125;819.49;NaN;;4.36;14.859283;70.8;13 / 20;103009;2022-10-26 20:50:46:150
5.3219;-6.7286;0.297;-1.6844;-9.3728;2.3418;5.3981;2.1821;-4.6279;1.0881;-1.8894;1.415;1.0;8.51;36.23;-26.42;214.74;81.27;-8.81;0.0;986.83;45.066;35.956375;-83.92512;820.84;NaN;;4.5;15.893061;89.9;13 / 20;103509;2022-10-26 20:50:46:650
-2.7006;-12.1585;-7.1082;3.4852;-8.9746;1.8654;-6.0635;-2.8572;0.3549;-1.2462;-0.7378;2.1112;1.0;2.49;34.88;-29.49;266.9;70.65;-57.81;0.0;986.84;50.159;35.956375;-83.92512;820.84;NaN;;4.5;15.893061;89.9;13 / 20;104010;2022-10-26 20:50:47:151
-7.9424;-12.836;0.4131;0.7311;-9.6253;1.7289;-10.9901;-8.1655;1.3166;0.5251;-0.2679;-2.9895;1.0;0.51;35.89;-27.97;105.25;78.48;61.88;0.0;986.95;47.78;35.956375;-83.9251;823.81;NaN;;4.18;15.889151;95.2;15 / 20;104510;2022-10-26 20:50:47:651
-4.9403;-12.629;-5.6907;2.0904;-9.3524;2.0815;-6.2582;-1.5424;-4.9842;-0.478;-3.1621;3.0106;1.0;-3.24;33.81;-30.41;237.94;72.49;-45.12;0.0;986.99;46.008;35.956375;-83.9251;823.81;NaN;;4.18;15.889151;95.2;15 / 20;105009;2022-10-26 20:50:48:150
-9.7056;-16.2033;-3.8402;-1.4688;-9.6948;-0.1551;5.286;6.3398;1.4048;0.0794;-0.7372;-2.4051;0.0;-7.03;36.39;-25.76;59.15;81.34;96.03;0.0;986.99;44.976;35.956375;-83.92509;826.48;NaN;;4.28;15.259747;79.6;15 / 19;105510;2022-10-26 20:50:48:651
-4.8218;-10.7937;0.6069;3.4444;-9.1286;0.9878;-5.2545;-0.4399;-0.5133;-0.5821;-0.6285;0.1981;1.0;-7.39;38.68;-23.53;46.38;75.86;101.96;0.0;987.03;47.829;35.956375;-83.92509;826.48;NaN;;4.28;15.259747;79.6;15 / 19;106010;2022-10-26 20:50:49:151
-13.218;-24.3993;13.0274;-1.17;-9.715;0.6484;3.85;5.4924;-1.1208;0.2173;-0.9632;-2.5556;0.0;-15.6;37.39;-21.04;42.83;72.87;84.51;0.0;986.91;52.51;35.956383;-83.92507;825.51;NaN;;4.68;13.738405;53.3;14 / 20;106510;2022-10-26 20:50:49:651
-3.3147;-11.8591;3.0858;3.5654;-9.0937;0.8737;-6.7893;-2.0117;2.5053;0.0749;0.754;-1.041;0.0;-22.76;33.58;-21.6;231.06;68.02;-76.23;0.0;986.95;57.608;35.956383;-83.92507;825.51;NaN;;4.68;13.738405;53.3;14 / 20;107010;2022-10-26 20:50:50:151
-12.6434;-21.9694;8.633;-2.5274;-9.4733;-0.1998;7.2608;4.1926;1.3901;0.2177;1.4845;-0.7109;0.0;-14.4;36.75;-20.42;37.47;75.02;94.52;0.0;986.92;51.411;35.95639;-83.925064;823.36;NaN;;4.32;12.917466;42.5;14 / 20;107509;2022-10-26 20:50:50:650
-2.8214;-11.0895;1.3753;2.7853;-9.3173;1.2655;-4.7896;-1.1247;-5.5612;-0.1007;0.5259;-0.4613;1.0;-9.36;36.83;-26.23;267.16;87.09;-102.34;0.0;986.84;45.827;35.95639;-83.925064;823.36;NaN;;4.32;12.917466;42.5;14 / 20;108009;2022-10-26 20:50:51:150
-5.1437;-17.2735;-0.9147;-2.3749;-9.5146;-0.0448;7.5982;5.9622;1.6851;0.6614;0.5411;-1.1635;1.0;-6.24;38.68;-24.62;66.93;74.35;77.5;0.0;986.98;48.498;35.9564;-83.92506;821.9;NaN;;4.72;12.226105;62.4;14 / 20;108509;2022-10-26 20:50:51:650
-3.1998;-11.4951;1.8398;0.4952;-9.7812;0.5036;2.1738;0.9067;2.8086;-0.3447;0.5256;-1.8154;1.0;-3.52;39.54;-24.79;80.66;78.36;71.72;0.0;986.99;44.743;35.9564;-83.92506;821.9;NaN;;4.72;12.226105;62.4;14 / 20;109010;2022-10-26 20:50:52:151
4.7812;-4.1524;1.4462;-2.6135;-9.4435;0.4013;2.7331;3.6073;-0.8499;-0.1158;1.3326;0.3861;1.0;-14.06;35.93;-25.07;54.17;74.36;81.27;0.0;987.08;43.91;35.9564;-83.92504;819.81;NaN;;4.1;12.226105;63.3;14 / 20;109509;2022-10-26 20:50:52:650
-2.7987;-12.1944;-10.2634;-0.5877;-9.7856;-0.2571;5.3132;2.3988;2.2585;1.0684;0.4416;-2.3851;0.0;-9.79;38.72;-24.43;40.18;86.25;113.63;0.0;987.36;50.082;35.9564;-83.92504;819.81;NaN;;4.1;12.226105;63.3;14 / 20;110010;2022-10-26 20:50:53:151
0.4609;-6.1229;0.4585;-2.5367;-9.47;0.2329;4.3835;3.5482;-3.1073;0.1648;1.0167;0.9603;1.0;-13.37;37.58;-23.12;49.83;74.94;84.75;0.0;987.01;45.922;35.956406;-83.925026;818.62;NaN;;4.25;12.226105;58.6;13 / 20;110509;2022-10-26 20:50:53:650
-1.4904;-9.883;1.6065;1.4277;-9.6385;1.1092;-0.0823;0.2672;3.9793;-0.6093;0.2705;-1.8234;0.0;-6.71;38.38;-23.38;70.71;82.52;81.24;0.0;986.94;44.329;35.956406;-83.925026;818.62;NaN;;4.25;12.226105;58.6;13 / 20;111010;2022-10-26 20:50:54:151
-0.8859;-6.8327;-0.516;-2.3073;-9.5234;0.3898;8.2507;-2.6332;3.7393;0.7953;1.642;0.8063;1.0;-10.63;35.23;-22.44;56.92;76.2;80.41;0.0;987.1;44.4;35.95641;-83.92502;820.46;NaN;;4.14;12.226105;58.8;15 / 20;111509;2022-10-26 20:50:54:650
0.1866;-9.1178;0.5578;0.044;-9.8057;0.1272;3.7998;2.4987;1.7889;-2.0656;2.7786;-0.2972;1.0;-0.41;37.07;-25.29;150.16;75.37;18.23;0.0;986.94;45.892;35.95641;-83.92502;820.46;NaN;;4.14;12.226105;58.8;15 / 20;112009;2022-10-26 20:50:55:150
7.7067;-3.4367;1.9992;-2.0884;-9.5597;0.6495;8.1564;-10.9948;5.0996;-0.7015;2.2114;1.0949;0.0;-10.86;35.53;-25.39;67.88;77.11;72.72;0.0;987.13;49.51;35.956413;-83.925;823.62;NaN;;4.43;12.226105;62.3;15 / 20;112509;2022-10-26 20:50:55:650
0.3078;-9.5417;4.0675;-1.3289;-9.716;-0.0664;7.144;-3.5224;1.547;2.1149;-0.8463;-1.5073;0.0;1.67;38.96;-23.76;105.12;75.47;55.33;0.0;986.92;48.432;35.956413;-83.925;823.62;NaN;;4.43;12.226105;62.3;15 / 20;113009;2022-10-26 20:50:56:150
-1.957;-7.9412;-0.492;-1.1166;-9.7428;0.0424;5.3833;-5.7794;3.811;1.6312;-0.8637;1.8413;0.0;-15.92;34.31;-22.07;50.04;83.46;87.82;0.0;986.88;55.415;35.956413;-83.924995;822.51;NaN;;4.32;12.226105;71.0;15 / 20;113510;2022-10-26 20:50:56:651
6.719;-13.1243;0.5363;-0.1618;-9.7998;-0.3285;4.4498;0.8171;1.3138;0.1038;0.0078;-2.1332;1.0;2.83;36.77;-23.94;117.04;75.6;49.01;0.0;986.89;52.765;35.956413;-83.924995;822.51;NaN;;4.32;12.226105;71.0;15 / 20;114009;2022-10-26 20:50:57:150
5.7147;-10.8918;2.5439;-0.9414;-9.7596;-0.1849;5.7291;-3.4442;1.5127;-0.2028;-0.7381;2.4771;1.0;-12.56;33.34;-23.36;44.62;84.39;101.11;0.0;986.82;51.204;35.956417;-83.92497;817.24;NaN;;4.28;12.226105;62.5;15 / 20;114509;2022-10-26 20:50:57:650
3.8569;-13.724;1.9582;-0.3035;-9.8009;0.1445;4.2397;-1.7217;1.2976;-1.3827;1.3626;-1.3721;0.0;-0.36;36.28;-23.34;112.61;88.04;64.54;0.0;986.79;57.347;35.956417;-83.92497;817.24;NaN;;4.28;12.226105;62.5;15 / 20;115010;2022-10-26 20:50:58:151
-0.3628;-12.9568;1.4976;3.2382;-9.2172;0.8533;-6.0879;-4.6035;-2.8141;-0.8764;-0.7249;1.3523;0.0;-14.17;31.44;-23.98;245.6;68.18;-70.54;0.0;986.95;50.206;35.956425;-83.924965;815.79;NaN;;4.14;12.226105;68.3;15 / 20;115510;2022-10-26 20:50:58:651
2.837;-5.8642;-8.9492;-2.6061;-9.4423;0.4716;2.7411;5.5089;-1.1504;1.0269;-0.8681;0.1455;1.0;-4.59;35.98;-22.87;65.91;74.33;79.74;0.0;987.01;48.024;35.956425;-83.924965;815.79;NaN;;4.14;12.226105;68.3;15 / 20;116009;2022-10-26 20:50:59:150
-3.906;-11.822;2.2122;3.8148;-8.9437;1.2759;-2.4266;-1.045;-3.7636;-0.3056;1.404;-1.9795;1.0;-14.55;33.71;-24.62;251.72;65.78;-71.51;0.0;986.81;47.571;35.956425;-83.92496;818.32;NaN;;4.18;12.226105;70.4;15 / 20;116509;2022-10-26 20:50:59:650
-7.3331;-11.4796;5.1078;-2.0417;-9.5918;-0.0123;6.9638;7.314;-1.6044;0.8627;-0.4633;0.206;0.0;-8.48;39.43;-24.43;53.31;70.62;84.69;0.0;986.72;49.222;35.956425;-83.92496;818.32;NaN;;4.18;12.226105;70.4;15 / 20;117009;2022-10-26 20:51:00:150
-0.8501;-10.1402;2.4431;2.2939;-9.4987;0.8268;-3.9313;-1.8342;-6.6181;0.4617;1.233;-1.6969;0.0;-5.46;44.78;-24.97;265.86;75.6;-70.18;0.0;986.68;51.464;35.95643;-83.92494;820.59;NaN;;4.14;12.226105;74.0;14 / 20;117510;2022-10-26 20:51:00:651
-12.5629;-17.9043;5.5543;-1.9053;-9.6066;0.5029;8.1052;7.1088;-0.6319;0.8144;0.289;-1.8416;1.0;0.28;43.41;-22.09;81.6;78.41;75.21;0.0;986.6;60.117;35.95643;-83.92494;820.59;NaN;;4.14;12.226105;74.0;14 / 20;118009;2022-10-26 20:51:01:150
-2.7317;-14.0139;3.6078;3.5251;-8.998;1.6672;-6.9673;-2.3922;-6.7273;1.9338;0.9874;-2.6714;1.0;0.21;42.0;-24.3;265.92;82.28;-72.21;0.0;986.96;57.556;35.956432;-83.92493;822.41;NaN;;4.39;12.226105;86.8;14 / 20;118510;2022-10-26 20:51:01:651
-7.4886;-17.9605;2.1607;-3.1962;-9.268;0.2411;5.3366;3.645;0.9223;0.471;0.3977;-2.7647;0.0;-4.43;39.39;-23.23;70.75;76.43;77.59;0.0;986.94;57.545;35.956432;-83.92493;822.41;NaN;;4.39;12.226105;86.8;14 / 20;119009;2022-10-26 20:51:02:150
-3.9706;-13.3974;-14.2472;1.3085;-9.6902;0.7467;0.9166;0.7678;3.8898;1.4684;0.8053;-1.9017;1.0;-4.76;38.74;-22.95;241.34;81.16;-60.29;0.0;986.84;51.37;35.956436;-83.92491;824.16;NaN;;4.5;12.226105;63.0;13 / 20;119509;2022-10-26 20:51:02:650
2.6324;-8.3219;-3.8964;-2.9308;-9.355;0.2554;2.7344;3.878;-1.4987;0.7372;-0.0325;-2.8405;1.0;-6.02;38.38;-21.99;55.75;72.54;85.02;0.0;986.9;49.042;35.956436;-83.92491;824.16;NaN;;4.5;12.226105;63.0;13 / 20;120010;2022-10-26 20:51:03:151
-1.4569;-11.2367;-12.3619;0.4537;-9.7869;-0.4247;1.9142;1.8549;3.9345;2.0595;0.3502;-1.7167;0.0;-7.54;38.63;-20.76;101.35;80.3;40.73;0.0;986.88;50.016;35.956444;-83.924904;825.16;NaN;;4.25;12.226105;59.0;13 / 20;120509;2022-10-26 20:51:03:650
5.3438;-3.8952;1.4426;-2.6362;-9.4369;0.4071;1.9425;3.0896;-2.1602;-0.1742;1.035;-0.1301;0.0;-14.25;37.73;-21.45;48.06;74.22;81.22;0.0;986.9;49.438;35.956444;-83.924904;825.16;NaN;;4.25;12.226105;59.0;13 / 20;121009;2022-10-26 20:51:04:150
1.689;-9.7295;1.7788;1.2626;-9.7033;0.6494;1.1462;1.3957;4.3743;-0.2598;0.8878;-1.2894;0.0;-5.12;42.11;-23.32;55.88;85.39;105.11;0.0;986.85;57.257;35.956448;-83.9249;824.25;NaN;;3.92;12.226105;56.1;13 / 19;121509;2022-10-26 20:51:04:650
-0.4382;-7.1704;-1.148;-1.8752;-9.6189;0.361;4.4351;2.322;-0.7475;1.2159;0.5133;0.617;1.0;-6.52;38.74;-23.19;67.16;78.77;79.1;0.0;986.97;47.711;35.956448;-83.9249;824.25;NaN;;3.92;12.226105;56.1;13 / 19;122009;2022-10-26 20:51:05:150
5.851;-12.3751;1.3633;-1.0067;-9.6683;1.2962;5.8778;3.5419;-3.6623;0.3856;0.351;-1.4787;1.0;3.21;37.59;-24.36;138.86;80.37;37.84;0.0;986.73;48.892;35.956455;-83.92488;825.31;NaN;;4.46;12.226105;68.5;13 / 19;122509;2022-10-26 20:51:05:650
-2.3127;-13.218;1.7536;-0.7044;-9.7754;-0.339;3.7156;-5.5779;0.5401;0.9972;-0.3631;1.321;1.0;-7.18;35.42;-24.58;265.18;68.0;-67.59;0.0;986.86;48.478;35.956455;-83.92488;825.31;NaN;;4.46;12.226105;68.5;13 / 19;123009;2022-10-26 20:51:06:150
3.2572;-7.0412;5.3016;0.4118;-9.6825;1.4999;-8.1467;-6.2382;-1.8509;1.0914;-2.5532;1.6576;0.0;-2.1;35.51;-25.22;194.14;80.87;-15.35;0.0;986.87;50.315;35.95646;-83.92487;826.56;NaN;;4.1;12.226105;66.1;13 / 19;123509;2022-10-26 20:51:06:650
-2.4526;-12.6697;2.7808;1.5634;-9.6767;0.2976;-6.5091;-5.4012;-3.5758;-0.5877;-2.3721;3.4515;0.0;-9.11;33.47;-26.7;233.3;81.03;-63.0;0.0;986.79;49.626;35.95646;-83.92487;826.56;NaN;;4.1;12.226105;66.1;13 / 19;124009;2022-10-26 20:51:07:150
1.5132;-4.5727;-1.1372;0.4205;-9.7219;1.2154;1.4948;3.0612;-2.8545;0.7932;-2.1534;0.3823;0.0;-7.59;36.62;-23.64;92.16;83.16;59.29;0.0;986.75;47.338;35.956463;-83.92486;825.33;NaN;;4.18;12.226105;66.8;13 / 19;124509;2022-10-26 20:51:07:650
-1.4749;-11.7347;-0.6942;3.3443;-9.143;1.1796;-4.4562;-0.2065;2.0784;-1.528;-0.5288;2.9908;1.0;-15.36;34.71;-24.62;245.98;68.8;-70.57;0.0;986.8;42.838;35.956463;-83.92486;825.33;NaN;;4.18;12.226105;66.8;13 / 19;125009;2022-10-26 20:51:08:150
-8.1027;-19.3612;-1.2353;0.2372;-9.7517;1.0096;-8.5495;-7.0012;4.3023;-1.1091;1.6408;1.1148;1.0;-9.56;39.38;-20.21;56.0;75.62;76.75;0.0;986.64;47.109;35.95647;-83.92484;827.93;NaN;;4.61;12.226105;64.4;12 / 19;125510;2022-10-26 20:51:08:651
3.1735;-16.6798;0.0586;2.6122;-9.425;0.7179;-8.4222;-4.7509;-4.256;-1.4678;-1.2252;3.8816;0.0;-16.37;39.24;-19.8;251.71;71.22;-68.31;0.0;986.91;43.682;35.95647;-83.92484;827.93;NaN;;4.61;12.226105;64.4;12 / 19;126009;2022-10-26 20:51:09:150
-3.4642;-11.0859;-0.5542;-0.0758;-9.7913;0.543;0.149;-0.1286;-1.107;0.8175;-1.0952;-0.5533;1.0;-4.16;48.83;-11.57;146.76;86.79;7.94;0.0;986.74;44.891;35.956474;-83.92483;829.4;NaN;;4.21;12.226105;65.3;12 / 19;126509;2022-10-26 20:51:09:650
-4.2497;-12.1286;-1.5347;3.4338;-9.0972;1.2725;-5.3337;-1.6124;1.4511;0.348;0.919;-0.7852;0.0;-10.16;42.96;-14.7;283.4;68.07;-69.67;0.0;987.05;44.327;35.956474;-83.92483;829.4;NaN;;4.21;12.226105;65.3;12 / 19;127009;2022-10-26 20:51:10:150
1.8613;-11.9297;-4.0376;0.2226;-9.7466;1.0609;-9.5772;-3.4338;2.4901;0.4029;0.7856;-2.7243;1.0;-4.65;41.33;-15.73;52.93;75.16;79.96;0.0;987.03;43.46;35.95648;-83.92481;824.7;NaN;;4.1;12.226105;71.4;12 / 19;127509;2022-10-26 20:51:10:650
-2.6157;-11.554;2.2361;1.9549;-9.4783;1.5846;-1.2638;-1.1836;-3.9606;-1.4886;-1.4601;2.1662;1.0;-9.17;38.4;-21.58;227.7;75.13;-50.97;0.0;986.91;46.347;35.95648;-83.92481;824.7;NaN;;4.1;12.226105;71.4;12 / 19;128009;2022-10-26 20:51:11:150
1.9092;-7.8634;-2.0578;-2.2567;-9.5286;0.5323;7.0313;5.3364;-0.5055;0.5169;-0.0153;-2.9245;1.0;-4.71;40.2;-19.84;64.74;76.32;76.73;0.0;986.89;43.532;35.956486;-83.9248;827.77;NaN;;4.36;12.226105;67.2;12 / 19;128509;2022-10-26 20:51:11:650
-1.2999;-9.1753;2.9112;3.0824;-9.1777;1.5621;-4.962;-0.1235;0.4884;0.1694;-0.6125;-0.2916;1.0;-8.36;36.51;-23.64;257.96;69.37;-63.13;0.0;986.9;46.493;35.956486;-83.9248;827.77;NaN;;4.36;12.226105;67.2;12 / 19;129009;2022-10-26 20:51:12:150
5.333;-2.6551;0.7122;-2.9364;-9.3514;0.3146;2.8304;3.0834;0.4441;0.4019;0.7248;-1.6047;0.0;-5.85;37.41;-22.24;57.04;72.47;83.88;0.0;986.86;44.786;35.956493;-83.92478;828.68;NaN;;4.14;12.226105;66.9;14 / 19;129509;2022-10-26 20:51:12:650
-0.7732;-9.5154;4.6648;1.9658;-9.5407;1.132;-2.998;-1.5675;-6.6781;0.1829;0.7429;-1.5376;0.0;-4.22;38.08;-25.44;24.98;88.35;144.9;0.0;986.8;44.643;35.956493;-83.92478;828.68;NaN;;4.14;12.226105;66.9;14 / 19;130009;2022-10-26 20:51:13:150
4.4315;-5.158;-0.1627;-1.977;-9.5882;0.5725;4.6883;2.5188;-2.4827;-0.0699;0.7815;0.1251;1.0;-4.27;37.78;-24.6;78.89;77.88;73.85;0.0;986.88;51.361;35.956497;-83.924774;824.09;NaN;;4.36;12.226105;56.6;14 / 19;130509;2022-10-26 20:51:13:650
-1.4079;-9.2267;0.5698;0.8211;-9.754;0.5967;3.1016;2.1877;3.6565;1.5054;1.0219;-2.3165;0.0;-1.28;38.14;-25.14;131.07;81.83;36.93;0.0;986.81;48.786;35.956497;-83.924774;824.09;NaN;;4.36;12.226105;56.6;14 / 19;131009;2022-10-26 20:51:14:150
3.9048;-6.3503;-2.1918;-2.6632;-9.4375;-0.1076;5.9432;5.008;-1.605;-0.4636;1.1259;0.691;1.0;-5.72;37.43;-25.01;55.82;74.23;92.31;0.0;986.93;47.088;35.956505;-83.92476;823.76;NaN;;4.0;12.226105;56.8;13 / 19;131510;2022-10-26 20:51:14:651
-5.0252;-9.8554;-8.3865;0.0725;-9.8036;-0.2323;2.5621;1.7894;4.2625;0.1978;0.1083;-1.7235;0.0;-0.83;38.21;-25.35;71.04;83.57;97.47;0.0;987.1;49.716;35.956505;-83.92476;823.76;NaN;;4.0;12.226105;56.8;13 / 19;132009;2022-10-26 20:51:15:150
3.9311;-3.7911;-0.0742;-2.4822;-9.4827;0.2961;7.7279;3.2497;-0.8687;-0.061;1.3796;-0.2088;1.0;-8.91;36.73;-24.02;336.36;84.48;-173.82;0.0;987.0;56.44;35.956512;-83.92475;826.73;NaN;;4.28;12.226105;61.2;13 / 19;132509;2022-10-26 20:51:15:650
-1.8649;-9.3598;3.2572;1.6089;-9.668;0.3342;-0.81;0.476;3.9348;1.0546;-0.5747;-2.3826;0.0;-0.22;36.41;-24.6;69.04;82.73;101.24;0.0;987.11;52.187;35.956512;-83.92475;826.73;NaN;;4.28;12.226105;61.2;13 / 19;133009;2022-10-26 20:51:16:150
3.0224;-3.7181;0.5698;-2.4038;-9.502;-0.3216;4.7384;5.7195;0.4556;0.2207;1.1489;0.305;1.0;-6.06;35.04;-23.62;53.96;80.86;101.8;0.0;986.97;54.034;35.956512;-83.924736;827.5;NaN;;4.32;12.226105;67.1;13 / 19;133510;2022-10-26 20:51:16:651
-0.285;-9.7259;2.1464;2.5573;-9.3417;1.5371;-3.38;-0.8687;-0.8519;1.4967;0.4182;-2.8272;1.0;1.76;35.83;-23.29;82.65;85.83;95.86;0.0;987.02;52.396;35.956512;-83.924736;827.5;NaN;;4.32;12.226105;67.1;13 / 19;134009;2022-10-26 20:51:17:150
3.6775;-3.8545;1.4653;-2.645;-9.4424;0.1233;3.4454;4.4061;0.2789;0.6791;0.6225;0.9212;0.0;-8.46;33.04;-22.63;60.61;78.8;87.23;0.0;987.06;59.387;35.956516;-83.92472;828.6;NaN;;4.39;12.226105;65.8;13 / 19;134509;2022-10-26 20:51:17:650
-0.134;-8.6163;3.0464;1.5245;-9.6872;0.0678;-0.8549;-0.1254;5.3529;1.6554;-0.0172;-1.7815;0.0;-3.64;33.96;-21.81;322.32;84.52;-147.65;0.0;986.95;56.213;35.956516;-83.92472;828.6;NaN;;4.39;12.226105;65.8;13 / 19;135010;2022-10-26 20:51:18:151
1.4844;-5.1915;-0.5016;-2.0518;-9.5802;0.4238;9.1093;-2.6352;3.4327;0.4246;0.9964;0.9445;0.0;-9.41;31.63;-21.66;64.59;77.66;78.33;0.0;987.09;58.573;35.95652;-83.924706;828.55;NaN;;4.36;12.226105;61.5;11 / 19;135509;2022-10-26 20:51:18:650
2.0279;-8.4093;6.664;0.3366;-9.7983;-0.2235;3.1476;1.9915;3.191;1.6993;0.5327;-2.0452;0.0;-6.58;32.94;-21.49;288.48;87.64;-123.59;0.0;986.96;55.897;35.95652;-83.924706;828.55;NaN;;4.36;12.226105;61.5;11 / 19;136009;2022-10-26 20:51:19:150
-1.0606;-6.2988;0.3975;-1.4764;-9.6949;-0.0236;8.2305;-7.9605;3.1809;0.9845;0.129;1.0622;1.0;-14.63;31.29;-20.85;46.31;81.34;90.92;0.0;987.04;57.941;35.956528;-83.9247;828.54;NaN;;4.57;12.226105;43.6;11 / 19;136509;2022-10-26 20:51:19:650
-0.3245;-9.696;1.6675;1.3064;-9.7178;-0.1643;0.0388;0.1533;3.7892;1.0383;-1.7008;-1.7541;1.0;-7.5;35.74;-21.13;85.16;80.85;59.14;0.0;986.91;53.967;35.956528;-83.9247;828.54;NaN;;4.57;12.226105;43.6;11 / 19;137009;2022-10-26 20:51:20:150
1.0295;-5.7027;-0.1113;-3.076;-9.2978;0.5086;2.1567;2.9764;-1.4557;-0.2292;0.771;-0.0315;0.0;-14.85;33.71;-21.09;47.01;71.46;80.61;0.0;987.12;55.325;35.95654;-83.92469;829.84;NaN;;4.46;12.226105;31.0;11 / 19;137509;2022-10-26 20:51:20:650
0.7349;-9.4555;5.5101;-1.2032;-9.7324;0.062;6.6405;0.1475;1.2301;-1.7816;1.2549;-0.8906;0.0;-5.19;37.39;-21.54;109.62;82.09;45.03;0.0;986.83;55.571;35.95654;-83.92469;829.84;NaN;;4.46;12.226105;31.0;11 / 19;138009;2022-10-26 20:51:21:150
5.8869;-9.7068;2.3653;0.6113;-9.7786;-0.419;-0.9696;-2.4515;1.2001;0.4538;-1.0692;2.7095;0.0;-20.29;32.74;-20.31;243.79;64.15;-76.59;0.0;986.62;54.007;35.956543;-83.924675;831.92;NaN;;4.21;12.226105;39.8;11 / 19;138509;2022-10-26 20:51:21:650
4.028;-7.855;2.6324;-1.4686;-9.6044;1.3298;0.833;-0.4486;-4.385;-1.2057;2.3192;-2.2926;1.0;-7.18;37.84;-20.62;68.37;83.83;83.38;0.0;986.8;50.787;35.956543;-83.924675;831.92;NaN;;4.21;12.226105;39.8;11 / 19;139009;2022-10-26 20:51:22:150
6.7011;-15.0194;5.3076;2.2839;-9.537;0.0206;-8.6436;-3.384;-0.9461;-1.0495;0.0683;3.4252;0.0;-15.15;35.61;-20.89;252.98;76.53;-89.48;0.0;986.6;44.265;35.95655;-83.92467;833.03;NaN;;4.43;12.226105;48.0;12 / 19;139509;2022-10-26 20:51:22:650
4.1931;-5.1616;-11.5193;-0.6939;-9.7527;0.7572;-10.0087;-8.9989;2.1639;-2.2552;2.2106;-0.4678;0.0;-2.57;39.56;-18.53;117.17;83.99;42.5;0.0;986.7;53.364;35.95655;-83.92467;833.03;NaN;;4.43;12.226105;48.0;12 / 19;140009;2022-10-26 20:51:23:150
-1.1492;-10.8033;0.772;1.7918;-9.6372;-0.2914;-6.1458;-2.6887;-0.5726;-1.2814;-0.8145;3.0138;0.0;-10.76;37.28;-17.61;270.79;67.77;-76.5;0.0;986.7;58.856;35.95656;-83.924644;836.39;NaN;;4.36;12.226105;59.7;12 / 19;140509;2022-10-26 20:51:23:650
8.0249;-12.2028;3.961;-0.5954;-9.7054;1.2733;-9.1754;-5.3724;0.5876;-2.0123;1.8911;-0.8732;0.0;5.19;38.08;-21.58;163.7;81.76;25.06;0.0;986.52;60.842;35.95656;-83.924644;836.39;NaN;;4.36;12.226105;59.7;12 / 19;141010;2022-10-26 20:51:24:151
-0.7122;-11.9788;-0.0586;4.0531;-8.7942;1.5508;-7.3959;-2.8623;2.313;-1.2344;-0.1607;2.0899;0.0;-12.97;32.64;-24.22;257.39;63.74;-69.06;0.0;987.11;50.443;35.95657;-83.92464;838.94;NaN;;4.21;12.226105;56.0;12 / 19;141509;2022-10-26 20:51:24:650
4.8147;-2.2911;0.8728;-0.6847;-9.7712;0.4744;-9.6078;-7.8015;2.3796;0.4985;-0.365;-0.4835;0.0;0.94;36.96;-22.09;120.11;85.13;55.29;0.0;986.98;52.251;35.95657;-83.92464;838.94;NaN;;4.21;12.226105;56.0;12 / 19;142009;2022-10-26 20:51:25:150
-1.6029;-11.5911;1.2425;3.5118;-9.0841;1.1475;-5.2673;-1.7407;-4.9197;0.0517;0.2772;-0.7851;1.0;-5.34;33.43;-24.13;273.03;67.87;-71.91;0.0;986.72;44.894;35.956577;-83.92462;841.52;NaN;;4.32;12.226105;63.3;13 / 19;142509;2022-10-26 20:51:25:650
-4.6205;-20.5068;1.2915;-0.1004;-9.7701;0.84;-10.8207;-7.6326;3.1357;0.4729;-0.1975;-1.1051;1.0;-2.83;31.59;-24.56;62.78;73.77;92.31;0.0;986.66;44.509;35.956577;-83.92462;841.52;NaN;;4.32;12.226105;63.3;13 / 19;143009;2022-10-26 20:51:26:150
-5.2095;-12.5318;2.6396;3.1229;-9.2242;1.1546;-4.9042;-1.7451;-7.7081;-0.5125;0.0497;-1.7478;0.0;-8.34;27.08;-28.01;253.35;70.15;-69.71;0.0;986.81;47.328;35.956577;-83.92461;841.82;NaN;;4.5;12.226105;80.8;13 / 19;143509;2022-10-26 20:51:26:650
-1.5574;-11.8029;-3.9144;-0.2122;-9.7926;0.4803;-2.839;-4.4482;-0.4236;0.5508;0.167;-2.5528;0.0;-4.39;32.55;-24.19;144.23;86.93;23.84;0.0;986.63;55.381;35.956577;-83.92461;841.82;NaN;;4.5;12.226105;80.8;13 / 19;144010;2022-10-26 20:51:27:151
-3.7756;-12.2243;2.1212;2.8345;-9.2728;1.4669;-2.9094;-0.8954;0.8316;-0.5118;-1.3794;0.8376;0.0;-8.31;31.71;-24.58;248.85;71.01;-62.64;0.0;986.94;51.065;35.956585;-83.92459;841.72;NaN;;4.32;12.226105;81.0;13 / 19;144509;2022-10-26 20:51:27:650
5.5412;-5.589;-6.682;-0.3947;-9.798;0.1139;3.2324;1.9512;-3.3925;0.2691;0.8455;-2.9447;0.0;-6.21;31.11;-24.36;62.43;74.2;86.29;0.0;986.6;48.837;35.956585;-83.92459;841.72;NaN;;4.32;12.226105;81.0;13 / 19;145009;2022-10-26 20:51:28:150
-7.3499;-15.7089;-0.5171;2.7543;-9.3185;1.3227;-2.8741;-1.1293;-4.0478;-0.3574;0.895;-1.871;0.0;-10.52;26.27;-27.21;237.59;71.85;-64.35;0.0;986.73;50.214;35.95659;-83.924576;839.68;NaN;;4.18;12.226105;82.0;13 / 19;145510;2022-10-26 20:51:28:651
-11.621;-21.1591;6.4822;0.1823;-9.7941;0.4608;-9.6573;-8.6139;4.4439;0.4713;-0.3325;-1.3451;1.0;-3.79;33.64;-22.86;54.53;74.17;97.28;0.0;986.56;49.323;35.95659;-83.924576;839.68;NaN;;4.18;12.226105;82.0;13 / 19;146009;2022-10-26 20:51:29:150
-2.9195;-12.7032;3.0176;3.5439;-9.063;1.2141;-5.57;-1.5482;-6.1801;-1.3808;-0.4157;2.6628;0.0;-8.08;33.02;-24.36;265.52;67.54;-71.09;0.0;987.18;49.273;35.956596;-83.92457;839.09;NaN;;4.28;12.226105;80.1;13 / 19;146509;2022-10-26 20:51:29:650
-5.225;-11.2032;1.4689;-0.2632;-9.7794;0.6813;-5.6638;-7.5621;-0.8487;0.9619;-0.2192;-1.6894;0.0;-0.97;37.11;-22.33;56.22;73.79;98.64;0.0;986.58;49.308;35.956596;-83.92457;839.09;NaN;;4.28;12.226105;80.1;13 / 19;147010;2022-10-26 20:51:30:151
-2.9136;-12.119;3.6162;3.9354;-8.923;1.0313;-5.9771;-1.9517;0.4238;-0.3649;-0.1797;0.7722;0.0;-7.74;33.71;-24.62;265.32;78.66;-87.97;0.0;986.61;50.597;35.9566;-83.92455;836.97;NaN;;4.0;12.226105;86.7;13 / 19;147509;2022-10-26 20:51:30:650
-5.5866;-7.5365;1.4773;-2.8665;-9.3605;-0.5786;4.9097;4.2804;1.3038;1.0226;0.3417;-2.5142;0.0;-5.64;36.08;-21.62;44.82;72.65;101.41;0.0;986.59;44.363;35.9566;-83.92455;836.97;NaN;;4.0;12.226105;86.7;13 / 19;148009;2022-10-26 20:51:31:150
-3.0957;-12.9867;3.5994;3.3319;-9.1212;1.3682;-5.2799;-1.6111;-6.0584;-0.285;0.1962;-0.9247;0.0;-7.27;34.5;-24.22;265.18;68.45;-67.67;0.0;987.16;49.823;35.956608;-83.924545;835.81;NaN;;4.54;12.226105;81.9;13 / 19;148509;2022-10-26 20:51:31:650
-11.9943;-23.8487;6.5372;-0.3741;-9.7856;0.5225;-0.9705;-1.4481;-1.9299;0.6521;-0.1392;-2.5486;1.0;-10.26;33.0;-23.34;60.94;80.24;84.54;0.0;986.54;49.717;35.956608;-83.924545;835.81;NaN;;4.54;12.226105;81.9;13 / 19;149009;2022-10-26 20:51:32:150
-3.2548;-13.8153;4.1058;3.5026;-9.112;0.9349;-5.784;-1.5136;-3.7356;0.2749;0.0872;0.0234;0.0;-6.36;34.16;-22.59;276.36;82.75;-100.62;0.0;987.17;46.352;35.956615;-83.92453;837.69;NaN;;4.36;12.226105;79.8;13 / 19;149509;2022-10-26 20:51:32:650
4.2808;-5.4299;-3.1567;-1.6388;-9.6636;0.3149;2.9317;3.6565;0.4076;-0.2142;0.8589;0.3205;0.0;-9.66;33.77;-22.07;52.66;75.03;86.68;0.0;986.68;47.9;35.956615;-83.92453;837.69;NaN;;4.36;12.226105;79.8;13 / 19;150010;2022-10-26 20:51:33:151
-1.4809;-9.2904;3.0308;2.7534;-9.2637;1.665;-4.3866;-2.0714;-7.4809;-0.4089;-0.215;-1.0193;0.0;-7.11;35.76;-23.85;338.43;88.17;-173.73;0.0;986.82;55.057;35.956623;-83.924515;838.66;NaN;;4.43;12.226105;72.4;13 / 19;150509;2022-10-26 20:51:33:650
-7.7916;-21.5432;7.788;-0.3582;-9.7935;0.3608;3.4854;3.2148;-2.896;0.392;0.2059;-3.2655;0.0;-9.23;35.81;-22.07;51.08;72.8;86.99;0.0;986.76;57.162;35.956623;-83.924515;838.66;NaN;;4.43;12.226105;72.4;13 / 19;151009;2022-10-26 20:51:34:150
-0.0096;-9.4531;2.8346;2.3914;-9.4076;1.396;2.8261;2.4766;5.4158;2.1128;0.7835;-2.4439;1.0;-10.63;34.52;-22.65;261.54;84.95;-100.19;0.0;986.88;46.927;35.95663;-83.9245;838.1;NaN;;4.32;12.226105;71.0;12 / 19;151510;2022-10-26 20:51:34:651
-10.8631;-24.6329;1.1898;-1.3294;-9.7118;-0.2883;7.1509;7.0938;0.7977;0.8907;0.8501;-1.9783;1.0;-4.39;34.8;-21.11;59.73;75.22;88.63;0.0;986.97;47.116;35.95663;-83.9245;838.1;NaN;;4.32;12.226105;71.0;12 / 19;152009;2022-10-26 20:51:35:150
-2.4144;-10.7853;-2.8322;1.9275;-9.6041;0.4644;-0.7588;0.048;2.1833;1.392;-2.0846;-2.0739;1.0;-0.84;36.77;-22.42;72.24;83.43;94.66;0.0;986.76;45.408;35.95663;-83.92448;827.09;NaN;;4.25;12.226105;86.5;13 / 19;152509;2022-10-26 20:51:35:650
-2.642;-15.4274;-0.0491;-2.6733;-9.4352;-0.035;6.061;5.2083;1.453;0.6643;0.1182;-3.0545;0.0;-7.57;35.25;-23.03;65.94;75.56;75.93;0.0;987.01;44.872;35.95663;-83.92448;827.09;NaN;;4.25;12.226105;86.5;13 / 19;153010;2022-10-26 20:51:36:151
-3.5803;-12.5569;-14.5884;2.4815;-9.4328;1.0176;-2.2393;-0.2037;2.7466;1.5781;0.2186;-2.0403;0.0;-6.52;36.11;-24.3;255.26;74.13;-67.7;0.0;986.75;47.454;35.956635;-83.92447;826.05;NaN;;4.64;12.226105;69.5;13 / 19;153509;2022-10-26 20:51:36:650
-10.771;-22.4255;5.9686;-2.1229;-9.5739;0.059;4.8484;4.4022;0.1603;0.7657;-0.2587;-2.4854;0.0;-9.88;35.46;-23.12;257.93;78.04;-84.38;0.0;987.11;46.001;35.956635;-83.92447;826.05;NaN;;4.64;12.226105;69.5;13 / 19;154009;2022-10-26 20:51:37:150
-1.6412;-10.3268;2.6587;1.9465;-9.5851;0.7119;-4.6923;-2.0537;-6.6763;1.3464;0.0505;-1.8897;0.0;-5.17;34.73;-24.43;115.62;87.33;49.15;0.0;986.78;51.865;35.95664;-83.92445;826.91;NaN;;4.07;12.226105;66.6;12 / 19;154510;2022-10-26 20:51:37:651
2.6815;-8.4069;-10.497;-2.4337;-9.4986;-0.1567;6.5666;6.0277;1.1214;0.0877;0.6099;-0.7293;1.0;-8.38;33.11;-24.47;70.26;76.15;74.3;0.0;986.83;54.254;35.95664;-83.92445;826.91;NaN;;4.07;12.226105;66.6;12 / 19;155011;2022-10-26 20:51:38:152
0.2249;-8.5385;5.5388;1.1041;-9.7439;-0.0906;1.4824;1.2381;2.0579;-0.0223;0.0534;-1.8228;0.0;-5.19;34.73;-23.1;272.14;83.51;-94.69;0.0;986.78;55.114;35.95665;-83.92444;826.7;NaN;;4.5;12.226105;71.2;11 / 19;155509;2022-10-26 20:51:38:650
1.0989;-5.6465;0.4669;-3.0251;-9.3284;-0.0111;3.2624;3.7995;-0.1932;0.3421;0.6771;-1.3635;0.0;-11.16;32.12;-22.35;62.29;79.51;79.28;0.0;986.77;46.711;35.95665;-83.92444;826.7;NaN;;4.5;12.226105;71.2;11 / 19;156009;2022-10-26 20:51:39:150
0.2249;-10.4025;5.5089;0.0506;-9.7969;-0.4345;5.3177;2.5465;3.6322;1.2257;-1.4066;-2.3542;0.0;-0.13;35.53;-21.73;353.8;87.44;-173.35;0.0;986.74;49.246;35.956654;-83.92443;826.63;NaN;;4.1;12.226105;75.7;11 / 19;156509;2022-10-26 20:51:39:650
-0.3437;-6.1923;0.0227;-2.5697;-9.4576;0.3476;7.256;3.5869;-1.6896;-0.4024;1.604;0.6693;1.0;-9.64;31.86;-22.22;329.99;87.12;-172.56;0.0;986.8;49.988;35.956654;-83.92443;826.63;NaN;;4.1;12.226105;75.7;11 / 19;157009;2022-10-26 20:51:40:150
0.2728;-11.3396;6.1193;1.6229;-9.6704;-0.1384;0.9358;-0.1807;4.1137;-0.4224;-0.5949;-2.4483;0.0;-0.79;33.94;-22.01;78.17;79.87;83.75;0.0;986.71;46.266;35.956657;-83.924416;827.25;NaN;;4.5;12.226105;69.7;11 / 19;157509;2022-10-26 20:51:40:650
0.5315;-3.5934;-5.8606;-2.6673;-9.4272;0.4294;6.5771;4.0627;-2.0356;0.5924;2.1358;0.7616;1.0;-12.43;30.83;-21.24;53.55;74.01;80.86;0.0;986.88;56.581;35.956657;-83.924416;827.25;NaN;;4.5;12.226105;69.7;11 / 19;158011;2022-10-26 20:51:41:152
4.7174;-7.8778;3.2907;-0.0463;-9.8053;-0.1533;5.5013;1.7901;1.7749;1.0565;-0.7272;-1.9805;1.0;-0.47;34.59;-22.14;142.23;78.59;26.02;0.0;986.71;53.031;35.95666;-83.9244;827.26;NaN;;4.5;12.226105;65.2;12 / 19;158510;2022-10-26 20:51:41:651
0.419;-4.908;-0.1651;-2.3365;-9.506;0.59;9.2149;-1.9511;0.594;0.9269;-0.5889;1.7176;0.0;-8.61;32.51;-23.53;66.89;75.77;75.83;0.0;986.89;52.445;35.95666;-83.9244;827.26;NaN;;4.5;12.226105;65.2;12 / 19;159010;2022-10-26 20:51:42:151
2.9088;-9.5118;5.0898;-0.8191;-9.7419;0.7716;5.907;-0.2744;-1.5301;1.0252;-0.5824;-1.9953;1.0;-1.14;35.68;-22.74;193.58;85.6;-14.42;0.0;986.71;48.305;35.956665;-83.92439;825.45;NaN;;4.54;12.226105;71.4;12 / 19;159510;2022-10-26 20:51:42:651
0.754;-6.7741;-0.7528;-1.6826;-9.6518;-0.4257;8.3336;-7.4147;4.6778;1.3165;0.7898;0.9216;1.0;-11.72;35.03;-21.88;38.69;79.81;104.2;0.0;986.85;45.427;35.956665;-83.92439;825.45;NaN;;4.54;12.226105;71.4;12 / 19;160009;2022-10-26 20:51:43:150
0.0419;-10.5485;2.5005;1.9345;-9.6128;0.15;-0.7054;0.6494;2.192;0.9425;-2.9373;-2.099;1.0;-1.57;35.61;-22.46;91.2;80.25;67.33;0.0;986.74;55.569;35.956665;-83.92438;821.23;NaN;;4.5;12.226105;80.4;12 / 19;160509;2022-10-26 20:51:43:650
6.1493;-9.0652;1.6819;-0.8811;-9.7494;-0.5867;4.3546;-7.2024;0.5739;-0.04;0.4996;-0.4367;1.0;-11.06;32.78;-21.41;25.16;83.8;123.66;0.0;986.82;50.243;35.956665;-83.92438;821.23;NaN;;4.5;12.226105;80.4;12 / 19;161009;2022-10-26 20:51:44:150
3.4451;-6.664;4.1417;-0.2302;-9.794;-0.4415;8.4957;-1.2519;3.0983;0.8571;-1.3946;-1.9962;1.0;-1.46;35.33;-21.88;23.14;87.09;152.46;0.0;986.69;49.536;35.95667;-83.92437;824.56;NaN;;4.14;12.226105;66.5;13 / 19;161509;2022-10-26 20:51:44:650
5.5843;-7.1309;0.3832;-2.3724;-9.5122;0.2454;5.0478;4.4179;-3.4297;-0.3472;1.0502;0.142;0.0;-10.71;33.38;-21.07;1.34;84.54;150.85;0.0;986.78;57.026;35.95667;-83.92437;824.56;NaN;;4.14;12.226105;66.5;13 / 19;162010;2022-10-26 20:51:45:151
-0.5841;-10.1043;3.5384;2.0511;-9.5897;-0.0281;-1.7661;-0.0232;3.1577;-0.214;2.7506;-2.3446;1.0;-1.31;36.3;-22.52;78.25;84.86;91.39;0.0;986.68;51.459;35.956673;-83.924355;824.12;NaN;;4.46;12.226105;55.6;12 / 19;162510;2022-10-26 20:51:45:651
0.9637;-5.9435;-0.7768;-0.3303;-9.7901;-0.4633;1.8034;-6.4228;0.4482;-0.0134;1.5192;1.1338;1.0;-10.91;33.62;-22.54;266.89;64.43;-72.56;0.0;986.91;55.83;35.956673;-83.924355;824.12;NaN;;4.46;12.226105;55.6;12 / 19;163010;2022-10-26 20:51:46:151
1.1934;-8.7422;3.6054;-1.327;-9.7162;0.067;8.1644;4.7383;0.9693;-2.2505;1.5722;-0.1668;1.0;2.34;36.09;-22.05;85.3;82.21;87.11;0.0;986.52;49.082;35.95668;-83.92435;820.36;NaN;;4.43;12.226105;54.3;12 / 19;163514;2022-10-26 20:51:46:655
6.0583;-10.4982;3.3458;-1.5004;-9.6905;0.1163;7.8472;-8.915;3.552;-1.2899;-0.4631;4.0906;1.0;-12.24;32.53;-22.52;261.79;71.05;-83.29;0.0;986.73;49.051;35.95668;-83.92435;820.36;NaN;;4.43;12.226105;54.3;12 / 19;164009;2022-10-26 20:51:47:150
7.4276;-12.4923;-0.0191;-0.9557;-9.6333;1.5672;-2.7581;-6.2009;-2.5481;-1.2436;0.5808;1.392;0.0;-0.26;35.42;-22.84;115.28;85.1;57.86;0.0;986.73;44.624;35.956684;-83.92434;818.7;NaN;;4.39;12.226105;43.4;10 / 19;164509;2022-10-26 20:51:47:650
4.7812;-20.8621;2.0865;0.5487;-9.7742;-0.5788;-3.7554;-3.3958;0.5353;0.5725;-1.7717;3.1868;1.0;-8.94;32.46;-23.96;270.74;65.57;-76.83;0.0;986.56;45.511;35.956684;-83.92434;818.7;NaN;;4.39;12.226105;43.4;10 / 19;165009;2022-10-26 20:51:48:150
5.5029;-2.6755;1.5945;-1.2846;-9.5676;1.7267;-2.7958;-6.6245;-3.3587;1.3617;-1.7815;1.7032;1.0;-0.02;35.03;-22.91;86.32;83.85;84.29;0.0;986.58;57.273;35.956688;-83.92432;822.98;NaN;;4.36;12.226105;56.9;10 / 19;165509;2022-10-26 20:51:48:650
-2.7449;-11.6713;0.8752;4.0594;-8.8932;0.7761;-3.4474;-0.6461;1.9536;-0.871;-0.3619;3.4758;1.0;-9.43;31.93;-24.34;273.62;65.07;-79.18;0.0;986.51;52.899;35.956688;-83.92432;822.98;NaN;;4.36;12.226105;56.9;10 / 19;166009;2022-10-26 20:51:49:150
-7.1345;-10.0875;2.3067;-0.4656;-9.6986;1.3752;-8.1801;-4.1298;1.1313;0.7416;-0.1771;-1.4942;0.0;-2.19;32.87;-23.53;60.78;73.91;89.45;0.0;986.58;58.187;35.956696;-83.92431;829.26;NaN;;4.14;12.226105;52.2;10 / 19;166509;2022-10-26 20:51:49:650
-6.5659;-14.7308;-18.4549;3.6235;-8.9997;1.4306;-6.4608;-1.7126;-3.794;-0.4792;-1.0177;-0.2698;0.0;-8.33;30.04;-26.38;260.19;66.59;-68.46;0.0;986.82;52.241;35.956696;-83.92431;829.26;NaN;;4.14;12.226105;52.2;10 / 19;167009;2022-10-26 20:51:50:150
-8.4177;-22.2221;8.001;0.139;-9.8008;0.3094;-0.5039;-2.1018;-2.3764;0.7759;-0.6316;-0.4769;0.0;-7.73;32.38;-23.38;50.22;73.47;94.68;0.0;986.81;47.453;35.956703;-83.9243;838.12;NaN;;4.28;12.226105;41.3;11 / 19;167509;2022-10-26 20:51:50:650
-3.8725;-12.0867;-5.0551;4.3277;-8.744;0.9921;-7.7996;-2.6223;-6.0184;-0.5492;0.2446;-1.5268;1.0;-6.24;33.32;-25.11;278.89;79.46;-98.89;0.0;986.72;49.326;35.956703;-83.9243;838.12;NaN;;4.28;12.226105;41.3;11 / 19;168010;2022-10-26 20:51:51:151
-10.9385;-13.7758;5.3844;-0.3743;-9.7989;0.1104;3.8825;2.816;-3.3633;0.8155;0.5588;-2.7557;1.0;-7.05;33.98;-23.66;52.1;74.86;95.98;0.0;986.84;50.179;35.956703;-83.92429;835.33;NaN;;4.21;12.226105;51.6;11 / 19;168509;2022-10-26 20:51:51:650
-5.2645;-14.1574;-0.6547;4.0709;-8.834;1.2482;-6.0289;-2.2134;-5.5241;-0.3974;-0.3727;0.3136;0.0;-2.12;35.4;-24.96;285.42;80.0;-96.51;0.0;986.78;45.42;35.956703;-83.92429;835.33;NaN;;4.21;12.226105;51.6;11 / 19;169009;2022-10-26 20:51:52:150
-14.0019;-14.744;-2.7245;-2.6297;-9.4263;-0.6325;-10.534;-4.7176;-1.7692;0.579;0.4617;-0.8139;0.0;-2.06;33.96;-24.49;45.19;66.47;107.89;0.0;986.86;45.319;35.956703;-83.92428;835.52;NaN;;4.46;12.226105;68.9;12 / 19;169509;2022-10-26 20:51:52:650
3.7098;-10.9436;1.7812;2.3629;-9.5116;0.3419;-4.6604;0.5099;3.0741;-0.15;0.0174;-1.7796;0.0;-1.78;33.75;-24.28;277.34;75.91;-81.77;0.0;987.3;48.326;35.956703;-83.92428;835.52;NaN;;4.46;12.226105;68.9;12 / 19;170010;2022-10-26 20:51:53:151
4.4985;-2.6623;0.1974;-2.6767;-9.4246;0.4267;1.6578;3.7874;-2.422;0.897;0.3731;-2.0662;0.0;-10.2;31.09;-24.79;61.47;73.95;80.94;0.0;986.7;48.843;35.95671;-83.92427;836.12;NaN;;4.72;12.314015;42.2;12 / 19;170509;2022-10-26 20:51:53:650
-0.9673;-9.853;1.5227;2.043;-9.5915;-0.0222;-0.906;0.4961;3.253;0.7168;-2.3258;-1.7101;0.0;2.08;32.25;-27.19;77.42;86.02;102.24;0.0;986.83;50.435;35.95671;-83.92427;836.12;NaN;;4.72;12.314015;42.2;12 / 19;171009;2022-10-26 20:51:54:150
5.7171;-2.211;1.6651;-2.3826;-9.5046;0.3947;8.1258;2.7528;-2.2173;0.4356;-0.0342;-1.1083;1.0;-8.66;30.02;-27.71;68.33;75.74;80.59;0.0;986.8;45.638;35.95672;-83.924255;836.15;NaN;;4.72;13.160564;66.0;13 / 19;171510;2022-10-26 20:51:54:651
-1.9681;-11.3659;-5.8295;0.9984;-9.7553;-0.0873;1.6418;2.0757;3.0277;0.866;-3.008;-1.9171;0.0;-5.19;31.37;-27.02;271.16;84.13;-95.0;0.0;986.81;49.528;35.95672;-83.924255;836.15;NaN;;4.72;13.160564;66.0;13 / 19;172009;2022-10-26 20:51:55:150
4.4016;-4.5009;1.1982;-2.741;-9.4139;-0.1896;3.7507;4.6332;-2.5766;1.3035;1.3002;1.1568;1.0;-15.02;30.3;-25.63;34.97;79.98;109.71;0.0;986.81;49.54;35.95672;-83.92425;839.27;NaN;;4.25;13.436579;76.1;13 / 19;172510;2022-10-26 20:51:55:651
0.5423;-10.2287;4.2281;1.4139;-9.7019;-0.2101;5.4395;0.7883;2.9728;1.0465;-2.8578;-1.8272;0.0;-6.69;33.77;-26.79;87.02;80.7;66.99;0.0;986.73;50.064;35.95672;-83.92425;839.27;NaN;;4.25;13.436579;76.1;13 / 19;173009;2022-10-26 20:51:56:150
-0.833;-5.4802;0.4669;-2.7147;-9.4233;-0.0464;5.5065;4.1467;-2.7714;-0.4265;0.7776;0.1184;0.0;-16.58;30.77;-26.04;11.59;84.49;134.18;0.0;986.77;50.991;35.956722;-83.92423;840.9;NaN;;4.54;13.435288;53.7;11 / 19;173509;2022-10-26 20:51:56:650
3.2321;-7.4527;2.4526;0.0784;-9.7832;-0.6735;4.4875;2.4655;2.7367;-1.1434;2.2502;-1.7379;1.0;-9.6;34.26;-23.21;114.64;79.25;27.98;0.0;986.73;57.847;35.956722;-83.92423;840.9;NaN;;4.54;13.435288;53.7;11 / 19;174009;2022-10-26 20:51:57:150
5.8774;-11.1781;3.3254;-1.1253;-9.674;-1.1479;3.4884;-8.1545;2.3443;0.0402;2.1643;1.036;0.0;-19.5;31.48;-21.28;1.97;80.57;135.57;0.0;986.69;50.97;35.95673;-83.924225;842.2;NaN;;4.39;13.224628;63.1;12 / 19;174509;2022-10-26 20:51:57:650
4.258;-7.4659;1.7501;-0.936;-9.7618;0.0344;8.0876;-0.4171;0.3685;-1.9071;2.1914;-0.4536;1.0;-9.81;37.14;-21.41;165.4;86.26;-12.4;0.0;986.76;60.162;35.95673;-83.924225;842.2;NaN;;4.39;13.224628;63.1;12 / 19;175009;2022-10-26 20:51:58:150
8.3231;-12.4062;4.465;-2.2359;-9.5484;-0.0102;6.9261;0.8613;-0.6441;0.387;-1.8739;3.2108;1.0;-16.82;33.41;-22.71;273.42;84.8;-123.89;0.0;986.61;53.962;35.95674;-83.92422;849.3;NaN;;4.82;13.331945;32.6;12 / 19;175509;2022-10-26 20:51:58:650
7.2577;-8.432;0.3915;-1.7259;-9.5765;1.2175;6.5083;2.1524;-5.5232;-1.8219;2.491;-1.5803;1.0;-4.11;37.2;-22.69;141.34;81.46;19.99;0.0;986.66;52.101;35.95674;-83.92422;849.3;NaN;;4.82;13.331945;32.6;12 / 19;176010;2022-10-26 20:51:59:151
5.7613;-8.9982;1.6352;-0.9734;-9.7112;-0.957;4.8556;-7.0529;1.3737;1.8438;-0.3939;1.7879;0.0;-18.36;32.44;-23.72;240.69;66.74;-72.41;0.0;986.64;52.416;35.956753;-83.92421;857.06;NaN;;4.21;13.064683;40.2;12 / 19;176509;2022-10-26 20:51:59:650
7.381;-9.8423;0.0981;-1.8895;-9.5554;1.138;-6.1741;-5.7328;-0.7981;-0.8397;-0.3107;2.0386;0.0;-7.37;37.67;-21.58;149.95;85.54;8.65;0.0;986.68;56.045;35.956753;-83.92421;857.06;NaN;;4.21;13.064683;40.2;12 / 19;177009;2022-10-26 20:52:00:150
0.6009;-15.5043;-0.7935;2.4917;-9.4799;0.3052;-6.4771;-3.6774;-2.7815;-1.252;-0.8547;3.932;0.0;-18.28;32.61;-22.8;246.23;64.93;-73.73;0.0;986.95;51.413;35.95676;-83.9242;863.29;NaN;;4.32;12.976991;32.4;12 / 19;177509;2022-10-26 20:52:00:650
6.1624;-2.8789;0.5949;-0.6475;-9.7802;0.3136;-5.6113;-4.3538;0.1992;0.5499;0.3655;-0.1979;0.0;-12.38;37.03;-20.76;79.77;85.79;64.16;0.0;986.91;47.013;35.95676;-83.9242;863.29;NaN;;4.32;12.976991;32.4;12 / 19;178009;2022-10-26 20:52:01:150
-3.6942;-12.216;-0.5483;3.9179;-8.9414;0.9338;-7.8956;-3.6012;0.6882;-1.3452;-0.0949;2.9095;1.0;-18.19;34.07;-22.29;229.04;72.28;-70.54;0.0;986.78;49.165;35.95677;-83.924194;868.19;NaN;;4.28;12.928331;27.6;12 / 19;178510;2022-10-26 20:52:01:651
4.0567;-2.3115;-5.2825;-0.5064;-9.7294;1.1196;-8.0044;-7.5015;0.8716;-0.1302;-1.2302;1.8241;0.0;-11.33;37.2;-21.04;51.75;79.99;88.6;0.0;986.71;50.764;35.95677;-83.924194;868.19;NaN;;4.28;12.928331;27.6;12 / 19;179010;2022-10-26 20:52:02:151
-4.2209;-13.4764;-2.8095;3.7302;-9.007;1.0634;-6.0843;-1.5079;-5.7486;0.2072;0.1042;-0.0242;1.0;-18.62;33.13;-22.31;239.83;66.7;-74.09;0.0;986.65;44.586;35.956783;-83.92419;870.79;NaN;;4.21;12.476637;29.0;12 / 19;179510;2022-10-26 20:52:02:651
4.7258;-4.8864;-2.3306;-0.1297;-9.7945;0.4708;-2.7297;-4.3149;-0.6135;0.5745;0.3102;-1.4677;0.0;-16.89;35.1;-20.27;33.98;73.18;94.18;0.0;986.57;46.102;35.956783;-83.92419;870.79;NaN;;4.21;12.476637;29.0;12 / 19;180010;2022-10-26 20:52:03:151
-6.5396;-15.9314;-9.7977;2.5786;-9.435;0.7085;-2.7834;-0.5215;2.7546;-0.0281;0.3283;-1.6014;0.0;-18.36;35.46;-20.57;231.06;74.18;-74.64;0.0;986.86;48.776;35.95679;-83.92418;871.99;NaN;;4.39;12.226105;40.7;12 / 19;180509;2022-10-26 20:52:03:650
5.467;-3.2477;1.5132;-1.949;-9.6108;-0.0665;7.217;6.1746;1.2718;1.0049;0.3899;-2.6047;0.0;-18.77;35.72;-18.51;34.78;78.53;91.96;0.0;986.92;47.298;35.95679;-83.92418;871.99;NaN;;4.39;12.226105;40.7;12 / 19;181010;2022-10-26 20:52:04:151
-0.7576;-11.3563;-3.8821;3.3454;-9.1324;1.2562;-5.3771;-1.7537;-6.863;2.0813;1.6632;-2.1427;1.0;-21.94;34.31;-21.06;240.87;83.68;-100.86;0.0;986.74;49.27;35.956802;-83.92418;872.3;NaN;;4.07;12.226105;28.8;11 / 19;181509;2022-10-26 20:52:04:650
3.9814;-3.9586;1.2556;-2.4281;-9.5013;-0.0048;3.9535;4.5999;0.3849;0.5172;0.5759;-2.0472;0.0;-23.34;34.24;-19.71;23.61;80.23;103.35;0.0;986.93;44.064;35.956802;-83.92418;872.3;NaN;;4.07;12.226105;28.8;11 / 19;182009;2022-10-26 20:52:05:150
-1.2903;-12.1226;-12.6398;2.6913;-9.359;1.1556;-3.3127;-1.2324;-5.9806;-0.2749;0.8522;-1.5344;0.0;-20.94;37.76;-20.4;287.54;84.31;-146.88;0.0;986.75;45.717;35.956814;-83.92416;875.1;NaN;;4.03;12.226105;29.4;12 / 19;182509;2022-10-26 20:52:05:650
4.4219;-2.8167;3.3398;-2.7168;-9.4089;-0.511;4.8917;4.0612;1.5752;-0.4301;1.2241;-0.128;0.0;-29.83;37.56;-23.49;35.49;78.58;85.84;0.0;986.73;46.608;35.956814;-83.92416;875.1;NaN;;4.03;12.226105;29.4;12 / 19;183010;2022-10-26 20:52:06:151
-0.6703;-10.1366;2.9004;1.5901;-9.6718;0.3133;9.6038;-0.6516;1.8386;1.3528;0.1435;-2.2558;0.0;-23.34;61.8;-25.01;23.85;82.17;107.96;0.0;986.73;48.839;35.956825;-83.92416;874.16;NaN;;4.28;12.226105;37.9;12 / 19;183509;2022-10-26 20:52:06:650
2.8537;-4.0902;0.7289;-2.4853;-9.4854;0.1461;5.8263;2.5713;-2.7231;-0.1914;1.5173;0.0587;0.0;-25.89;64.76;-23.03;34.04;78.97;86.31;0.0;986.76;47.276;35.956825;-83.92416;874.16;NaN;;4.28;12.226105;37.9;12 / 19;184010;2022-10-26 20:52:07:151
-0.0981;-10.3508;0.303;1.2189;-9.7263;0.2911;1.8783;0.8097;4.2197;-0.8957;1.1166;-1.7305;1.0;-3.64;66.02;-26.76;93.15;81.74;57.87;0.0;986.79;49.093;35.956833;-83.92414;876.9;NaN;;4.43;12.226105;56.2;12 / 19;184510;2022-10-26 20:52:07:651
3.5204;-5.7039;-4.4985;-2.1971;-9.5318;0.698;9.0325;-1.445;0.5959;-0.7556;1.3974;0.6467;1.0;-17.74;55.84;-25.59;231.53;80.65;-72.73;0.0;986.75;51.404;35.956833;-83.92414;876.9;NaN;;4.43;12.226105;56.2;12 / 19;185009;2022-10-26 20:52:08:150
1.555;-9.0712;4.1501;0.0737;-9.8003;-0.3457;4.5853;2.5686;2.0901;1.1211;-1.5502;-1.9132;0.0;-5.4;51.51;-15.67;104.25;81.37;31.11;0.0;986.78;51.221;35.95684;-83.92413;875.56;NaN;;4.82;12.226105;24.2;12 / 19;185510;2022-10-26 20:52:08:651
0.3879;-6.0141;-0.3126;-1.435;-9.6326;-1.1504;4.7263;-9.8124;3.1899;1.8554;-0.0816;1.3285;0.0;-17.51;43.26;-12.92;249.0;70.93;-83.71;0.0;986.82;52.779;35.95684;-83.92413;875.56;NaN;;4.82;12.226105;24.2;12 / 19;186009;2022-10-26 20:52:09:150
-0.1962;-9.3239;0.2704;0.0686;-9.6922;-1.4922;6.334;-0.9811;3.7647;-1.6388;2.9331;0.7746;0.0;-7.99;41.33;-10.16;88.7;81.45;23.9;0.0;986.66;54.171;35.956844;-83.92413;870.19;NaN;;4.28;12.226105;29.1;12 / 19;186509;2022-10-26 20:52:09:650
8.4452;-14.4329;3.5803;0.1229;-9.7508;-1.0381;-1.7175;-4.8386;1.3824;0.5307;1.9049;0.5766;1.0;-17.62;35.78;-14.02;308.55;83.88;-173.25;0.0;986.92;48.433;35.956844;-83.92413;870.19;NaN;;4.28;12.226105;29.1;12 / 19;187009;2022-10-26 20:52:10:150
3.1244;-7.3642;3.0885;-1.1733;-9.715;0.6418;7.196;0.8858;-1.4108;-1.4529;2.7705;-1.6077;0.0;-7.61;38.27;-17.61;79.67;82.16;61.32;0.0;986.57;48.121;35.956852;-83.924126;873.82;NaN;;4.25;12.226105;18.0;12 / 18;187509;2022-10-26 20:52:10:650
5.3231;-17.569;-0.3664;2.6113;-9.4489;0.2645;-7.0388;-4.5787;-2.9876;0.6244;0.8314;0.8356;0.0;-17.12;33.81;-19.8;242.92;67.35;-73.17;0.0;986.89;45.554;35.956852;-83.924126;873.82;NaN;;4.25;12.226105;18.0;12 / 18;188009;2022-10-26 20:52:11:150
3.1962;-9.0269;4.6397;-0.5305;-9.6285;1.7837;0.5471;-1.1289;-4.4537;-2.0577;2.338;0.3068;0.0;-9.64;38.36;-18.69;184.07;86.57;-31.39;0.0;986.88;53.487;35.956856;-83.92412;874.55;NaN;;4.21;12.226105;25.9;12 / 19;188509;2022-10-26 20:52:11:650
3.9036;-5.9483;-7.8706;-0.4045;-9.7239;-1.2055;1.4534;-7.0559;2.4763;-1.4576;-0.3776;3.8902;1.0;-21.13;34.09;-19.35;334.36;82.55;161.45;0.0;986.79;49.199;35.956856;-83.92412;874.55;NaN;;4.21;12.226105;25.9;12 / 19;189009;2022-10-26 20:52:12:150
7.2015;-10.8727;1.6161;-0.9176;-9.588;1.8436;2.4084;0.6438;-5.0853;-2.5602;3.5003;-0.532;0.0;-11.98;39.88;-18.66;197.74;87.6;-48.7;0.0;986.85;50.711;35.956863;-83.92411;874.72;NaN;;4.21;12.226105;23.7;13 / 19;189510;2022-10-26 20:52:12:651
5.7494;-7.7378;0.9805;1.2001;-9.7184;-0.5309;-5.6036;-4.1497;-0.2184;-1.5729;-0.0639;3.9351;1.0;-21.51;34.41;-20.62;236.09;66.33;-76.79;0.0;986.7;50.996;35.956863;-83.92411;874.72;NaN;;4.21;12.226105;23.7;13 / 19;190010;2022-10-26 20:52:13:151
8.5995;-9.5489;1.4378;-1.3536;-9.6453;1.1428;6.7715;0.6744;-4.1165;-1.8721;1.5783;1.6972;0.0;-12.83;39.19;-19.31;173.88;83.54;-29.46;0.0;986.8;51.377;35.95687;-83.9241;873.7;NaN;;4.36;12.226105;34.0;13 / 19;190509;2022-10-26 20:52:13:650
7.2733;-11.7706;4.8422;-0.3086;-9.7531;-0.9758;2.5177;-7.6535;2.7983;1.6662;-1.7396;2.0693;0.0;-21.43;34.48;-20.1;334.1;84.01;162.45;0.0;986.73;46.879;35.95687;-83.9241;873.7;NaN;;4.36;12.226105;34.0;13 / 19;191009;2022-10-26 20:52:14:150
7.0914;-12.5928;1.4629;-0.1185;-9.6623;1.6724;-5.0389;-6.694;-2.2122;-0.804;-0.4869;1.5637;0.0;-12.43;39.86;-17.49;124.44;80.16;4.05;0.0;986.88;49.841;35.95688;-83.924095;869.82;NaN;;4.32;12.226105;38.3;13 / 19;191509;2022-10-26 20:52:14:650
6.1361;-21.7481;3.1711;-0.774;-9.7471;-0.7523;3.3914;-6.82;2.8181;1.5758;0.2028;1.592;0.0;-21.73;34.54;-15.96;231.78;65.21;-76.36;0.0;986.75;48.004;35.95688;-83.924095;869.82;NaN;;4.32;12.226105;38.3;13 / 19;192009;2022-10-26 20:52:15:150
7.8383;-11.0369;0.7193;-0.2676;-9.7309;1.1869;-7.9529;-6.2105;1.6268;0.3405;-1.7438;1.6238;0.0;-10.05;38.49;-16.07;122.91;82.87;12.7;0.0;986.92;45.091;35.956886;-83.92408;864.38;NaN;;4.28;12.226105;41.0;13 / 19;192509;2022-10-26 20:52:15:650
-2.1559;-12.8862;-1.4139;1.1599;-9.7378;-0.0334;-5.1791;-4.1895;-2.1797;0.2033;-2.4296;3.3706;0.0;-19.26;33.13;-17.51;236.32;64.6;-71.33;0.0;986.75;47.288;35.956886;-83.92408;864.38;NaN;;4.28;12.226105;41.0;13 / 19;193010;2022-10-26 20:52:16:151
7.0687;-7.0687;-5.115;-1.1249;-9.6475;1.3529;7.0495;1.1731;-6.2711;-2.2987;2.6981;-1.5183;0.0;-13.05;38.76;-15.51;153.8;83.18;-18.75;0.0;986.74;45.371;35.956898;-83.924065;851.2;NaN;;4.32;12.226105;41.8;13 / 19;193510;2022-10-26 20:52:16:651
8.493;-20.5774;3.9682;0.127;-9.8006;-0.3193;-0.3782;-5.3408;0.0526;-1.2047;-0.7203;3.9684;0.0;-23.81;35.61;-18.71;223.69;64.95;-71.43;0.0;986.64;44.497;35.956898;-83.924065;851.2;NaN;;4.32;12.226105;41.8;13 / 19;194009;2022-10-26 20:52:17:150
7.1859;-9.1334;1.3071;-0.0248;-9.691;1.5017;-12.101;-8.3114;2.0419;1.1186;-1.5441;0.305;0.0;-11.44;44.44;-20.98;140.64;81.19;0.95;0.0;986.74;42.85;35.956905;-83.92406;849.5;NaN;;4.39;12.226105;47.5;13 / 19;194509;2022-10-26 20:52:17:650
9.6625;-16.5805;0.1065;2.5563;-9.4605;0.3676;-6.9779;-4.7786;-1.9292;0.0754;-1.7834;4.2557;0.0;-21.19;42.53;-19.37;247.84;65.7;-75.03;0.0;986.64;46.971;35.956905;-83.92406;849.5;NaN;;4.39;12.226105;47.5;13 / 19;195010;2022-10-26 20:52:18:151
-5.097;-23.0348;-0.3927;0.6458;-9.6534;1.6015;-0.0097;1.3262;-0.7628;0.8789;-0.3931;-2.6757;0.0;-15.43;47.4;-12.73;41.21;78.8;72.46;0.0;986.71;45.505;35.956913;-83.92405;848.52;NaN;;4.36;12.226105;42.4;12 / 19;195509;2022-10-26 20:52:18:650
-3.1496;-13.273;-1.0379;3.8555;-8.9835;0.776;-4.7594;-0.6666;1.4316;-0.1466;-0.5818;0.0363;0.0;-21.43;40.13;-10.99;204.48;70.24;-71.74;0.0;987.66;47.911;35.956913;-83.92405;848.52;NaN;;4.36;12.226105;42.4;12 / 19;196009;2022-10-26 20:52:19:150
2.1942;-4.5392;-0.2177;-2.2389;-9.5461;0.1749;-0.5088;1.9697;-1.9221;0.5637;-0.5965;-0.1713;0.0;-17.08;38.64;-9.62;30.15;77.95;78.84;0.0;986.85;46.663;35.95692;-83.924034;847.44;NaN;;4.54;12.226105;26.0;12 / 19;196510;2022-10-26 20:52:19:651
-2.9626;-11.6067;-15.5342;3.118;-9.2072;1.2945;-4.0905;-1.2449;-3.2745;1.1935;0.7398;-1.8417;1.0;-10.33;35.72;-10.99;41.55;80.28;86.7;0.0;986.99;46.649;35.95692;-83.924034;847.44;NaN;;4.54;12.226105;26.0;12 / 19;197009;2022-10-26 20:52:20:150
-12.0015;-25.3762;3.4618;-2.0686;-9.5752;0.4543;4.8619;5.3614;0.4113;-0.0719;1.5914;0.1576;0.0;-20.34;27.77;-11.77;34.95;73.94;75.97;0.0;986.79;46.735;35.956932;-83.92403;846.05;NaN;;4.39;12.226105;24.0;11 / 19;197510;2022-10-26 20:52:20:651
-2.1751;-10.0361;2.5367;2.46;-9.408;1.2683;-3.5834;-1.5452;-7.5054;-0.4155;0.7565;-1.8787;1.0;-31.16;34.41;-11.96;305.07;87.1;168.48;0.0;986.62;50.032;35.956932;-83.92403;846.05;NaN;;4.39;12.226105;24.0;11 / 19;198009;2022-10-26 20:52:21:150
3.5192;-8.0297;-5.4179;-1.8737;-9.6239;0.1995;0.7381;-0.918;-2.0416;0.5621;-0.095;-1.2715;0.0;-24.21;41.49;-4.58;20.48;75.73;73.55;0.0;986.77;45.702;35.956944;-83.92402;846.51;NaN;;4.18;12.226105;19.2;12 / 19;198510;2022-10-26 20:52:21:651
-2.0447;-9.6841;2.7209;2.3926;-9.352;1.7279;-1.8479;-0.5225;-0.2649;-0.9407;-0.0259;-1.8658;0.0;-9.0;41.66;-1.03;23.87;81.62;56.79;0.0;986.66;49.591;35.956944;-83.92402;846.51;NaN;;4.18;12.226105;19.2;12 / 19;199010;2022-10-26 20:52:22:151
3.0129;-7.448;-4.9259;-0.3653;-9.7919;0.3934;3.805;3.7364;-2.5894;0.1301;0.2567;-0.7155;0.0;-19.95;27.75;-5.38;12.17;74.42;87.88;0.0;986.82;53.165;35.95695;-83.92402;846.97;NaN;;4.36;12.226105;6.2;12 / 19;199509;2022-10-26 20:52:22:650
-1.2401;-9.4663;2.7867;3.1258;-9.2509;0.9056;-5.5461;-2.7189;-7.1426;-0.2764;0.8092;-2.0274;1.0;-37.86;28.65;-9.13;175.94;70.62;-73.84;0.0;986.67;47.794;35.95695;-83.92402;846.97;NaN;;4.36;12.226105;6.2;12 / 19;200009;2022-10-26 20:52:23:150
0.1519;-12.9054;-6.0129;-0.8887;-9.7577;0.409;4.1262;3.9116;-0.0842;-0.488;1.5099;-0.0093;0.0;-35.19;43.39;-5.77;21.87;77.48;72.7;0.0;986.8;47.787;35.956963;-83.92402;844.61;NaN;;4.36;12.226105;3.0;12 / 19;200509;2022-10-26 20:52:23:650
-4.2317;-13.9433;-20.8872;1.7783;-9.5655;1.2289;-5.1279;-2.2644;-7.2215;0.0449;1.3345;-1.0868;0.0;-16.67;54.19;-3.45;115.3;77.27;-55.35;0.0;986.71;48.051;35.956963;-83.92402;844.61;NaN;;4.36;12.226105;3.0;12 / 19;201009;2022-10-26 20:52:24:150
-5.7553;-10.0947;-0.0945;-2.2873;-9.5343;0.188;2.9828;4.8276;-1.5776;0.5494;0.2656;-1.5177;0.0;-14.42;31.5;-6.71;21.62;76.47;85.3;0.0;986.78;63.08;35.95697;-83.92402;841.7;NaN;;4.43;12.226105;8.6;12 / 19;201509;2022-10-26 20:52:24:650
-3.7433;-11.5193;2.7497;2.9103;-9.2343;1.5583;-3.4204;-1.9327;-4.4967;-0.9108;1.5283;-1.6743;0.0;-33.23;27.02;-12.96;298.19;87.54;174.93;0.0;986.68;53.894;35.95697;-83.92402;841.7;NaN;;4.43;12.226105;8.6;12 / 19;202009;2022-10-26 20:52:25:150
-9.6745;-22.5727;6.3718;0.2226;-9.7833;0.6385;1.4866;-0.0958;-2.6295;0.4113;0.0176;-1.0788;0.0;-30.26;45.6;-8.96;19.51;76.34;81.02;0.0;986.87;53.978;35.95698;-83.92402;840.7;NaN;;4.39;12.226105;2.8;12 / 19;202510;2022-10-26 20:52:25:651
-0.3963;-10.3508;1.1408;1.0991;-9.742;0.2381;1.8166;0.5516;3.3565;0.9644;0.0541;-2.1877;0.0;-7.93;53.04;-0.08;134.92;83.41;-77.78;0.0;986.77;51.651;35.95698;-83.92402;840.7;NaN;;4.39;12.226105;2.8;12 / 19;203009;2022-10-26 20:52:26:150
2.9818;-8.1473;-6.1696;-1.89;-9.62;0.2331;4.4633;4.7447;0.3911;0.9169;0.023;-1.0618;0.0;-12.39;31.67;2.57;355.28;78.8;82.97;0.0;986.85;45.004;35.956993;-83.92402;838.8;NaN;;4.43;12.226105;353.5;12 / 19;203511;2022-10-26 20:52:26:652
-2.0662;-10.5042;2.2229;3.6339;-9.06;0.939;-6.3246;-2.0402;-5.6179;-0.1378;0.1889;-0.307;0.0;-26.61;19.63;-1.52;188.64;84.49;-93.75;0.0;986.77;49.048;35.956993;-83.92402;838.8;NaN;;4.43;12.226105;353.5;12 / 19;204010;2022-10-26 20:52:27:151
4.2377;-5.8654;-2.2433;-0.8939;-9.7608;0.3119;5.4126;6.0829;-0.479;0.4806;0.1454;-2.3148;0.0;-36.23;36.81;-6.07;26.31;84.46;70.77;0.0;986.78;48.117;35.957;-83.92403;838.44;NaN;;4.57;12.226105;344.9;12 / 19;204509;2022-10-26 20:52:27:650
-5.5627;-13.6917;1.0415;3.9678;-8.9526;0.5267;-5.713;-1.5158;2.1169;-0.6647;0.7681;-1.4824;0.0;-30.75;55.35;-7.76;175.78;79.35;-72.72;0.0;986.74;52.096;35.957;-83.92403;838.44;NaN;;4.57;12.226105;344.9;12 / 19;205010;2022-10-26 20:52:28:151
-2.0566;-12.7247;3.888;-2.1788;-9.5615;0.0333;5.3576;4.8622;1.2122;1.2525;-0.4549;-1.7066;0.0;-18.3;44.85;1.07;2.31;78.0;83.36;0.0;986.78;47.703;35.95701;-83.924034;836.01;NaN;;4.36;12.226105;341.3;12 / 19;205510;2022-10-26 20:52:28:651
-4.5882;-14.1251;-17.7177;3.4707;-9.061;1.422;-6.0476;-2.7345;-6.6056;2.1064;1.7998;-2.5;0.0;-17.1;36.09;-1.63;185.67;86.68;-88.26;0.0;986.76;47.605;35.95701;-83.924034;836.01;NaN;;4.36;12.226105;341.3;12 / 19;206009;2022-10-26 20:52:29:150
-8.6246;-18.583;3.9191;-2.9113;-9.364;-0.1042;1.9525;4.2175;-0.5058;0.5805;1.0061;-1.8893;0.0;-22.54;33.04;-2.94;3.91;72.72;92.05;0.0;986.79;45.135;35.957024;-83.924034;834.7;NaN;;5.26;12.226105;7.1;12 / 19;206509;2022-10-26 20:52:29:650
-1.4856;-11.4102;2.0411;3.0697;-9.2263;1.2741;-5.4789;-2.2032;-4.7281;-0.6263;-0.7336;-0.1827;0.0;-21.21;36.0;-2.29;229.38;84.26;-126.33;0.0;986.89;46.823;35.957024;-83.924034;834.7;NaN;;5.26;12.226105;7.1;12 / 19;207009;2022-10-26 20:52:30:150
-4.9008;-16.7827;3.1232;-2.3862;-9.5092;0.2288;3.4598;3.7914;-0.1543;0.9054;0.1299;-2.4364;0.0;-22.28;35.04;-2.4;7.87;75.85;84.52;0.0;986.82;49.128;35.95703;-83.924034;835.67;NaN;;4.28;12.226105;356.9;12 / 19;207509;2022-10-26 20:52:30:650
-6.3359;-13.4656;2.0758;3.8721;-8.9065;1.3604;-6.2719;-2.3846;-6.9145;-0.6753;0.7198;-2.3183;0.0;-24.96;37.95;-5.02;194.37;84.29;-90.88;0.0;986.82;50.441;35.95703;-83.924034;835.67;NaN;;4.28;12.226105;356.9;12 / 19;208009;2022-10-26 20:52:31:150
-5.8618;-11.9178;1.847;0.5819;-9.7605;0.751;-8.9271;-6.8082;2.6566;0.6443;-0.4959;-1.0778;0.0;-22.46;37.11;-4.99;13.03;79.2;86.02;0.0;987.08;47.166;35.957047;-83.92403;830.09;NaN;;4.54;12.226105;3.8;13 / 19;208510;2022-10-26 20:52:31:651
-9.9882;-14.586;-5.1353;4.1173;-8.8458;0.9849;-7.7521;-1.8254;-0.1541;-1.0385;-1.6036;3.494;1.0;-26.87;35.42;-7.14;183.0;64.42;-76.55;0.0;987.08;50.708;35.957047;-83.92403;830.09;NaN;;4.54;12.226105;3.8;13 / 19;209010;2022-10-26 20:52:32:151
2.4467;-1.9956;-1.9403;-0.9645;-9.7483;0.4597;5.4836;6.3096;-1.3284;0.568;-0.0186;-1.3668;0.0;-20.68;38.61;-5.06;11.92;76.78;86.88;0.0;987.2;51.695;35.95706;-83.92403;829.37;NaN;;4.54;12.226105;358.0;13 / 19;209509;2022-10-26 20:52:32:650
-7.2422;-14.4951;3.9191;3.3988;-9.1372;1.0628;-6.4291;-2.0044;-6.0191;-0.835;-0.94;1.7017;0.0;-23.46;36.36;-7.57;184.59;68.71;-72.64;0.0;987.17;44.23;35.95706;-83.92403;829.37;NaN;;4.54;12.226105;358.0;13 / 19;210009;2022-10-26 20:52:33:150
-11.8711;-16.7468;-1.634;-2.5905;-9.4583;-0.0145;6.6912;6.3643;0.5359;0.5008;0.2294;-2.3957;1.0;-18.39;38.25;-4.03;8.09;74.68;90.32;0.0;986.92;46.955;35.957073;-83.92403;829.86;NaN;;4.61;12.226105;353.4;13 / 19;210510;2022-10-26 20:52:33:651
-5.7135;-11.8089;-0.0586;3.6806;-9.0727;0.5576;-6.53;-1.8491;-3.77;0.0015;1.1889;-1.2331;0.0;-20.79;37.74;-4.67;201.74;84.14;-94.42;0.0;987.0;47.238;35.957073;-83.92403;829.86;NaN;;4.61;12.226105;353.4;13 / 19;211009;2022-10-26 20:52:34:150
-7.0579;-15.6371;5.4383;-0.0297;-9.7915;0.5439;-7.2978;-5.9352;1.1907;0.1366;0.2017;-1.7771;0.0;-25.01;35.12;-0.26;6.67;76.06;81.28;0.0;986.91;45.841;35.957085;-83.92402;828.9;NaN;;4.9;12.226105;10.4;13 / 19;211509;2022-10-26 20:52:34:650
-2.7401;-10.6322;0.9876;1.9499;-9.5696;0.8899;-1.0175;0.884;3.0431;0.2879;0.0877;-0.9771;0.0;-23.44;38.12;0.39;141.75;77.38;-65.47;0.0;987.18;47.096;35.957085;-83.92402;828.9;NaN;;4.9;12.226105;10.4;13 / 19;212009;2022-10-26 20:52:35:150
-10.4049;-24.1947;0.7588;-2.1456;-9.5687;-0.0859;6.9964;6.2845;1.3887;1.1521;-0.4873;-0.2967;1.0;-24.36;37.44;-0.86;5.61;76.22;84.87;0.0;986.88;50.652;35.957096;-83.92403;828.62;NaN;;5.15;12.226105;355.2;12 / 19;212510;2022-10-26 20:52:35:651
-3.5527;-11.4568;-10.2215;4.2319;-8.7427;1.3517;-7.5153;-1.3893;-5.5267;-0.4922;0.9505;-1.9573;0.0;-24.6;38.25;-6.94;201.97;82.35;-91.96;0.0;986.77;47.405;35.957096;-83.92403;828.62;NaN;;5.15;12.226105;355.2;12 / 19;213009;2022-10-26 20:52:36:150
-8.5481;-18.754;6.5575;0.581;-9.7459;0.922;-6.0799;-6.6784;0.7533;0.6755;-0.3916;-1.7828;1.0;-22.89;38.25;-2.81;13.29;77.56;79.79;0.0;986.83;48.13;35.957108;-83.92403;826.77;NaN;;4.64;12.226105;358.4;13 / 19;213511;2022-10-26 20:52:36:652
-2.9016;-10.0516;2.1176;3.3566;-9.1522;1.0677;-5.9895;-2.3109;-6.9902;0.2469;-0.2819;-2.338;0.0;-21.92;38.87;-3.64;229.22;87.98;-126.23;0.0;986.77;49.79;35.957108;-83.92403;826.77;NaN;;4.64;12.226105;358.4;13 / 19;214009;2022-10-26 20:52:37:150
-10.6525;-25.8407;8.0297;-0.4173;-9.7752;0.6647;5.4649;5.4021;-3.0677;0.9341;-0.4019;-3.1243;1.0;-24.77;35.53;-0.56;1.74;74.51;89.94;0.0;986.8;54.294;35.95712;-83.924034;825.17;NaN;;4.54;12.226105;346.3;13 / 19;214510;2022-10-26 20:52:37:651
-3.0476;-11.9321;-0.4274;1.9981;-9.5974;0.2593;-0.816;0.236;2.3495;0.1733;1.3051;-2.6991;0.0;-21.06;38.87;-0.13;4.84;83.97;84.24;0.0;986.84;55.12;35.95712;-83.924034;825.17;NaN;;4.54;12.226105;346.3;13 / 19;215009;2022-10-26 20:52:38:150
5.4;-3.5623;-0.382;-2.3787;-9.5091;0.2978;3.3225;3.7293;-1.1043;0.1893;0.4512;-0.4541;0.0;-25.93;34.63;6.83;344.34;83.19;92.87;0.0;986.89;63.206;35.957127;-83.924034;824.25;NaN;;4.46;12.226105;340.9;13 / 19;215509;2022-10-26 20:52:38:650
-1.6041;-10.6179;4.6636;2.1012;-9.53;0.9666;-0.0166;1.095;3.6976;-0.6724;0.4122;-2.1522;1.0;-19.35;40.09;3.28;338.07;85.26;106.57;0.0;987.1;55.944;35.957127;-83.924034;824.25;NaN;;4.46;12.226105;340.9;13 / 19;216009;2022-10-26 20:52:39:150
7.3379;-2.9363;1.8087;-2.444;-9.4931;0.2807;4.6138;2.3651;-2.2918;-0.0703;2.1716;0.7342;0.0;-22.82;36.69;0.77;2.96;75.47;83.45;0.0;986.94;54.336;35.95714;-83.92404;822.59;NaN;;4.03;12.226105;343.9;13 / 19;216510;2022-10-26 20:52:39:651
3.475;-7.7115;2.7138;0.0422;-9.8061;-0.0944;6.3948;1.0426;3.5001;1.845;1.9942;-2.999;0.0;-17.46;41.61;-4.69;63.43;75.31;10.23;0.0;986.94;52.097;35.95714;-83.92404;822.59;NaN;;4.03;12.226105;343.9;13 / 19;217009;2022-10-26 20:52:40:150
5.0025;-3.7098;-0.0646;-2.1431;-9.5413;0.7354;6.1653;5.262;-4.8488;0.368;0.9581;0.5962;0.0;-28.65;34.16;-1.86;18.44;76.64;71.06;0.0;987.11;52.354;35.957153;-83.92405;823.11;NaN;;4.43;12.226105;346.2;13 / 19;217509;2022-10-26 20:52:40:650
-0.8668;-9.8351;4.6265;2.9836;-9.1581;1.8432;-2.7878;-0.026;2.1385;2.0494;1.5532;-2.4949;0.0;-25.61;37.05;-3.79;132.45;69.05;-58.29;0.0;987.36;51.574;35.957153;-83.92405;823.11;NaN;;4.43;12.226105;346.2;13 / 19;218009;2022-10-26 20:52:41:150
5.2214;-2.2624;0.1077;-2.2075;-9.5079;0.9474;6.9103;1.9687;-3.4092;0.0975;0.473;-1.63;0.0;-26.85;33.6;-2.01;21.55;75.82;66.77;0.0;986.88;51.825;35.95716;-83.92406;821.97;NaN;;4.46;12.226105;336.1;14 / 19;218509;2022-10-26 20:52:41:650
-1.1348;-10.4504;-0.4083;0.2445;-9.7923;-0.4713;5.6196;0.2378;3.644;0.5095;-2.8168;-2.0066;0.0;-18.77;39.54;-2.4;254.9;86.9;-152.58;0.0;986.81;49.63;35.95716;-83.92406;821.97;NaN;;4.46;12.226105;336.1;14 / 19;219010;2022-10-26 20:52:42:151
2.3928;-3.0823;0.9637;-2.6989;-9.4208;0.3665;5.5537;4.5638;-5.014;0.0193;0.8008;-0.599;1.0;-24.49;33.77;0.43;5.71;73.88;82.27;0.0;986.97;54.604;35.95717;-83.924065;824.86;NaN;;4.82;12.226105;333.2;14 / 19;219509;2022-10-26 20:52:42:650
3.0523;-9.2701;4.8829;-0.3884;-9.7905;-0.4067;9.3985;-0.9787;2.158;0.5685;-0.3631;-2.2356;0.0;-17.03;40.37;-1.01;60.05;77.93;8.23;0.0;986.96;60.955;35.95717;-83.924065;824.86;NaN;;4.82;12.226105;333.2;14 / 19;220010;2022-10-26 20:52:43:151
-0.213;-4.7474;-0.4836;-2.0182;-9.5765;0.6223;6.8414;1.8343;-2.5871;-0.1036;1.5005;0.4245;0.0;-29.21;33.34;2.55;220.68;86.16;-133.69;0.0;986.89;63.166;35.95718;-83.92408;825.84;NaN;;4.43;12.226105;334.9;14 / 19;220509;2022-10-26 20:52:43:650
-0.5961;-10.698;1.1707;0.053;-9.8063;-0.0651;2.7904;0.8181;1.6654;0.397;1.1394;-2.8312;0.0;-20.21;40.86;0.56;228.75;89.51;-140.85;0.0;986.88;58.153;35.95718;-83.92408;825.84;NaN;;4.43;12.226105;334.9;14 / 19;221009;2022-10-26 20:52:44:150
5.4263;-2.7114;0.6978;-2.1845;-9.5506;0.4291;9.0432;-4.7358;3.1615;0.2968;1.5901;0.564;0.0;-28.99;33.56;6.36;283.13;84.95;160.8;0.0;987.03;56.542;35.95719;-83.92409;826.1;NaN;;4.54;12.226105;340.3;14 / 19;221510;2022-10-26 20:52:44:651
-0.3508;-9.1645;1.8721;-0.7466;-9.778;-0.063;2.128;2.4268;3.3361;1.3629;0.2301;-2.4847;0.0;-22.22;40.61;4.59;344.46;85.62;94.82;0.0;986.92;52.477;35.95719;-83.92409;826.1;NaN;;4.54;12.226105;340.3;14 / 19;222010;2022-10-26 20:52:45:151
5.1233;-2.5738;2.6204;-2.0623;-9.584;0.2517;9.7805;-6.181;3.4735;-0.2511;3.4057;0.9089;0.0;-29.63;34.89;5.18;357.95;77.77;83.04;0.0;987.24;56.803;35.9572;-83.924095;825.1;NaN;;4.61;12.226105;331.5;13 / 19;222510;2022-10-26 20:52:45:651
3.4439;-6.9093;3.9443;0.8537;-9.7693;-0.0556;2.7826;3.6081;3.7749;1.3771;0.4501;-2.7695;0.0;-19.5;42.77;0.13;25.8;78.42;53.21;0.0;987.02;54.291;35.9572;-83.924095;825.1;NaN;;4.61;12.226105;331.5;13 / 19;223009;2022-10-26 20:52:46:150
0.7923;-5.3761;0.6583;-2.2454;-9.5458;0.0793;4.3584;4.987;0.7534;0.8357;0.0557;-2.6487;0.0;-26.49;37.18;0.21;16.25;78.25;69.41;0.0;986.98;54.489;35.957207;-83.9241;826.8;NaN;;4.9;12.226105;330.5;13 / 19;223509;2022-10-26 20:52:46:650
-0.0431;-10.0181;1.2006;2.7484;-9.3813;0.7793;-2.1707;-0.4178;3.5741;1.6068;-0.3128;-2.1736;0.0;-22.61;41.03;-1.74;290.22;88.11;167.9;0.0;986.98;49.232;35.957207;-83.9241;826.8;NaN;;4.9;12.226105;330.5;13 / 19;224009;2022-10-26 20:52:47:150
2.4826;-4.5966;0.3461;-2.212;-9.5502;0.268;6.2498;2.4128;-2.6651;-0.1437;0.441;0.695;0.0;-28.65;35.55;-0.02;5.5;76.87;83.09;0.0;986.98;53.374;35.95722;-83.92411;825.53;NaN;;4.68;12.226105;329.9;13 / 19;224511;2022-10-26 20:52:47:652
-3.8378;-11.7048;-12.9197;-0.2492;-9.7889;-0.5344;6.1371;-1.0457;2.4139;1.2945;-0.9433;-2.3529;0.0;-19.78;41.51;1.91;295.75;86.55;155.0;0.0;987.29;50.537;35.95722;-83.92411;825.53;NaN;;4.68;12.226105;329.9;13 / 19;225009;2022-10-26 20:52:48:150
2.5367;-4.5452;-0.0467;-1.931;-9.5862;0.7387;8.039;1.5404;-2.5807;-0.015;1.549;0.8361;0.0;-28.91;34.61;3.98;173.08;84.38;-91.77;0.0;986.91;49.187;35.957233;-83.92412;827.08;NaN;;5.11;12.226105;341.5;13 / 19;225509;2022-10-26 20:52:48:650
2.8645;-6.7825;5.662;-0.0103;-9.7801;-0.7215;6.2845;0.9104;5.3663;1.771;-1.0493;-2.3062;1.0;-17.08;42.09;4.39;39.96;75.84;15.17;0.0;987.08;51.942;35.957233;-83.92412;827.08;NaN;;5.11;12.226105;341.5;13 / 19;226010;2022-10-26 20:52:49:151
1.9044;-4.0974;-0.2596;-2.281;-9.5377;0.0138;3.0116;5.4687;-0.273;0.0346;1.5473;0.5928;0.0;-24.47;36.69;5.7;351.71;78.71;86.52;0.0;987.04;48.055;35.95724;-83.924126;828.42;NaN;;4.68;12.226105;338.7;13 / 19;226509;2022-10-26 20:52:49:650
0.4143;-10.1988;0.3018;-0.0509;-9.8064;-0.0523;6.0205;2.703;3.5766;1.4463;1.0732;-2.7872;0.0;-16.65;42.77;5.06;32.73;78.64;26.33;0.0;987.25;51.075;35.95724;-83.924126;828.42;NaN;;4.68;12.226105;338.7;13 / 19;227010;2022-10-26 20:52:50:151
1.3107;-5.9507;0.7612;-2.1276;-9.5548;0.5918;6.4075;4.2132;-2.3653;0.4388;-0.0259;-2.3628;0.0;-24.43;36.6;7.18;359.45;76.99;74.46;0.0;987.06;49.882;35.957253;-83.92413;827.4;NaN;;4.54;12.226105;335.0;13 / 19;227509;2022-10-26 20:52:50:650
2.4491;-8.9611;7.8251;2.2492;-9.4396;1.4159;-1.0402;-0.5217;-1.982;1.8241;1.7483;-2.126;0.0;-21.21;40.99;6.08;278.25;87.54;160.38;0.0;986.61;51.018;35.957253;-83.92413;827.4;NaN;;4.54;12.226105;335.0;13 / 19;228009;2022-10-26 20:52:51:150
-10.7877;-22.902;4.6505;-2.564;-9.4629;-0.2233;3.5241;4.3274;0.3759;0.7356;0.5966;-1.7753;0.0;-22.84;38.61;5.57;345.94;74.78;94.98;0.0;986.98;47.455;35.95726;-83.92414;826.99;NaN;;4.82;12.226105;337.7;13 / 19;228509;2022-10-26 20:52:51:650
-0.6284;-9.4436;2.3462;1.9443;-9.555;1.045;0.0016;0.7412;3.959;2.2384;0.7559;-2.2109;0.0;-16.65;43.39;4.91;37.08;78.17;19.54;0.0;986.75;48.057;35.95726;-83.92414;826.99;NaN;;4.82;12.226105;337.7;13 / 19;229009;2022-10-26 20:52:52:150
4.1082;-3.6787;0.0072;-1.0054;-9.7321;0.6684;4.6911;6.1552;-0.6203;0.545;-0.4779;-1.7233;0.0;-25.95;37.22;2.64;14.62;76.63;64.43;0.0;986.94;48.384;35.95727;-83.92414;829.53;NaN;;4.75;12.226105;329.3;13 / 19;229510;2022-10-26 20:52:52:651
-2.8777;-13.7157;2.7185;2.6316;-9.4051;0.8888;-0.7861;0.3877;3.0526;1.559;1.5653;-2.5715;0.0;-20.21;41.12;4.2;77.67;88.92;-1.1;0.0;986.79;48.621;35.95727;-83.92414;829.53;NaN;;4.75;12.226105;329.3;13 / 19;230009;2022-10-26 20:52:53:150
-8.3399;-19.6304;-0.0957;-0.9443;-9.7359;0.7002;4.8061;5.4933;0.3127;-0.0788;1.12;-2.4856;0.0;-22.24;36.38;5.36;20.11;83.11;53.44;0.0;986.97;48.27;35.95728;-83.92415;827.16;NaN;;4.68;12.226105;328.9;13 / 19;230509;2022-10-26 20:52:53:650
-7.6768;-16.3636;-1.6089;4.2089;-8.7936;1.0621;-9.3051;-2.4109;-2.1966;-1.1744;-1.7989;3.6345;0.0;-23.59;36.45;3.77;117.96;75.79;-57.35;0.0;986.95;48.893;35.95728;-83.92415;827.16;NaN;;4.68;12.226105;328.9;13 / 19;231009;2022-10-26 20:52:54:150
-8.0955;-14.8588;1.3908;0.3385;-9.7569;0.9267;4.9341;4.9604;-3.2475;0.9561;-0.1692;-1.1498;0.0;-18.73;38.08;5.33;343.89;75.78;98.49;0.0;986.8;61.761;35.95729;-83.92416;825.37;NaN;;4.79;12.226105;329.9;13 / 19;231509;2022-10-26 20:52:54:650
-7.375;-13.2239;0.0658;3.7476;-9.021;0.8647;-9.4499;-2.4187;0.965;-1.0071;-1.3748;3.558;0.0;-23.53;37.63;3.54;121.89;66.91;-77.01;0.0;987.01;62.16;35.95729;-83.92416;825.37;NaN;;4.79;12.226105;329.9;13 / 19;232009;2022-10-26 20:52:55:150
-8.359;-10.4862;4.2138;0.1676;-9.7742;0.7793;-9.9574;-5.0438;2.0167;0.9929;-0.8398;-2.4653;1.0;-18.51;40.11;6.79;347.35;73.33;89.04;0.0;986.92;61.582;35.957302;-83.92417;825.51;NaN;;4.72;12.226105;338.2;13 / 19;232509;2022-10-26 20:52:55:650
-1.9247;-10.4994;3.5563;3.9101;-8.9598;0.7762;-7.6398;-2.2634;-2.5653;-0.9705;-1.1464;1.8664;0.0;-22.93;37.35;7.26;110.87;66.01;-78.77;0.0;987.69;63.515;35.957302;-83.92417;825.51;NaN;;4.72;12.226105;338.2;13 / 19;233010;2022-10-26 20:52:56:151
-13.2347;-20.3545;5.0946;-1.0253;-9.7525;0.089;5.8391;6.35;-2.0028;0.8663;0.5486;-2.6859;0.0;-16.67;39.64;11.16;339.15;73.7;88.61;0.0;986.95;56.067;35.957314;-83.92418;826.16;NaN;;4.82;12.226105;334.6;13 / 19;233510;2022-10-26 20:52:56:651
-6.4125;-9.9835;3.4247;3.7576;-9.0014;1.0131;-6.0439;-2.285;-7.2148;-0.419;0.3253;-1.1133;0.0;-22.99;38.06;5.23;110.8;66.62;-74.91;0.0;986.79;50.241;35.957314;-83.92418;826.16;NaN;;4.82;12.226105;334.6;13 / 19;234009;2022-10-26 20:52:57:150
-12.757;-23.6022;5.8499;-0.0537;-9.776;0.773;-0.5553;0.5064;-0.6213;0.2647;0.902;-1.0694;1.0;-22.28;37.63;8.16;352.82;75.94;79.81;0.0;986.93;49.27;35.95732;-83.92419;824.91;NaN;;4.82;12.226105;327.5;13 / 19;234509;2022-10-26 20:52:57:650
-2.4706;-10.8583;0.2261;2.1035;-9.5592;0.6062;-0.3452;0.4602;3.4987;-0.0024;1.1532;-1.7387;0.0;-17.33;42.21;7.29;165.02;86.35;-99.58;0.0;986.91;50.83;35.95732;-83.92419;824.91;NaN;;4.82;12.226105;327.5;13 / 19;235009;2022-10-26 20:52:58:150
-8.5983;-13.8858;3.195;-0.2316;-9.7875;0.5668;-1.2092;-1.2343;-1.8935;0.8892;-0.9695;-0.618;0.0;-19.5;39.49;8.1;343.64;74.29;91.27;0.0;986.94;51.17;35.957333;-83.924194;824.71;NaN;;4.79;12.226105;325.5;13 / 19;235510;2022-10-26 20:52:58:651
-2.461;-10.0086;3.5264;3.894;-8.9468;0.9804;-3.3635;-1.8978;0.43;-0.5882;0.1893;-1.5543;0.0;-18.54;41.59;6.94;159.24;82.57;-95.09;0.0;986.8;55.972;35.957333;-83.924194;824.71;NaN;;4.79;12.226105;325.5;13 / 19;236010;2022-10-26 20:52:59:151
5.9626;-1.6077;-0.6476;-3.3847;-9.2004;-0.2582;9.3857;6.0732;1.2625;0.5443;-0.204;-3.0019;0.0;-15.75;39.71;8.76;340.11;69.75;94.36;0.0;987.03;59.639;35.95734;-83.9242;824.56;NaN;;4.64;12.226105;328.2;13 / 19;236509;2022-10-26 20:52:59:650
-3.597;-12.2303;-6.8973;1.7838;-9.6238;0.6092;4.4222;0.5465;1.86;1.1603;0.9572;-3.0589;0.0;-17.62;40.09;3.47;133.01;78.92;-71.14;0.0;987.01;50.738;35.95734;-83.9242;824.56;NaN;;4.64;12.226105;328.2;13 / 19;237009;2022-10-26 20:53:00:150
3.8868;-6.3371;-4.2293;-2.5161;-9.4782;-0.0592;5.8402;6.5934;-2.993;0.1228;-0.3545;-0.4655;0.0;-20.16;36.98;4.29;335.03;84.0;108.13;0.0;986.96;55.027;35.95735;-83.92421;825.53;NaN;;5.04;12.226105;332.9;12 / 19;237509;2022-10-26 20:53:00:650
-1.9765;-9.8638;1.3872;3.4592;-9.0701;1.3922;-1.1425;0.1124;2.7611;-0.1614;0.4408;-2.0802;0.0;-17.87;39.75;5.7;163.47;85.4;-94.71;0.0;986.85;54.956;35.95735;-83.92421;825.53;NaN;;5.04;12.226105;332.9;12 / 19;238009;2022-10-26 20:53:01:150
3.9251;-6.475;-5.0228;-2.449;-9.4959;-0.0364;6.6367;6.244;0.9569;0.4639;0.2882;-2.9292;0.0;-18.58;37.18;8.78;341.35;75.54;90.85;0.0;986.94;55.867;35.95736;-83.92422;826.18;NaN;;4.57;12.226105;334.0;12 / 19;238510;2022-10-26 20:53:01:651
-3.0105;-10.7195;0.8318;1.8724;-9.5421;1.2702;0.2803;0.3908;2.1986;0.2716;1.2535;-1.5464;0.0;-22.22;37.09;7.28;106.44;76.66;-55.85;0.0;986.86;51.253;35.95736;-83.92422;826.18;NaN;;4.57;12.226105;334.0;12 / 19;239009;2022-10-26 20:53:02:150
-14.5813;-22.9798;9.5082;-1.7821;-9.6432;-0.0597;6.9934;6.436;1.6429;0.7471;-0.0516;-1.022;0.0;-22.12;36.43;8.94;348.1;77.73;83.2;0.0;986.96;50.792;35.957367;-83.924225;826.1;NaN;;4.82;12.226105;331.7;12 / 19;239510;2022-10-26 20:53:02:651
-2.2385;-10.7925;-1.6161;1.7019;-9.6566;-0.1543;0.8158;0.9897;5.4245;-0.6242;1.5215;-1.8585;0.0;-19.71;38.94;7.59;155.51;79.96;-95.18;0.0;986.86;51.499;35.957367;-83.924225;826.1;NaN;;4.82;12.226105;331.7;12 / 19;240009;2022-10-26 20:53:03:150
-1.6113;-11.1434;-6.3455;-2.1603;-9.5586;-0.3703;3.2484;5.2348;0.6939;-0.0213;-0.1243;-0.3188;0.0;-19.63;36.28;10.26;332.67;77.09;99.73;0.0;986.97;55.355;35.95738;-83.92423;826.27;NaN;;4.97;12.226105;327.0;12 / 19;240509;2022-10-26 20:53:03:650
-4.2951;-10.6131;-4.3705;3.1613;-9.2813;0.1861;-5.6039;-0.6196;-1.2357;-0.5429;0.213;-1.2251;0.0;-19.67;37.71;12.32;183.82;83.06;-124.0;0.0;987.01;53.205;35.95738;-83.92423;826.27;NaN;;4.97;12.226105;327.0;12 / 19;241009;2022-10-26 20:53:04:150
5.2669;-2.1691;-0.2082;-2.4068;-9.5044;0.2105;4.9087;4.608;0.5846;0.822;0.8925;-1.7032;0.0;-23.03;35.25;14.68;342.35;82.45;77.31;0.0;986.86;51.852;35.95739;-83.92424;825.79;NaN;;4.57;12.226105;329.5;12 / 19;241509;2022-10-26 20:53:04:650
0.5877;-9.1059;0.0311;2.0959;-9.5744;0.3293;-1.2748;2.2926;5.3857;1.7838;1.7442;-2.0542;0.0;-19.33;39.32;5.79;135.33;77.51;-81.07;0.0;987.28;61.36;35.95739;-83.92424;825.79;NaN;;4.57;12.226105;329.5;12 / 19;242009;2022-10-26 20:53:05:150
5.7003;-2.4443;-1.0152;-0.7919;-9.7568;0.5907;6.1212;6.9916;-1.89;0.6919;0.481;-1.6316;0.0;-20.01;36.98;5.96;17.09;84.22;53.28;0.0;987.0;51.928;35.957397;-83.924255;827.14;NaN;;4.79;12.226105;333.9;11 / 19;242509;2022-10-26 20:53:05:650
-2.8585;-10.6442;3.5288;3.8181;-8.9639;1.114;-6.25;-2.2221;-8.1452;-0.4093;0.0513;-2.2275;0.0;-22.99;35.23;7.65;112.37;74.03;-64.57;0.0;986.94;52.928;35.957397;-83.924255;827.14;NaN;;4.79;12.226105;333.9;11 / 19;243009;2022-10-26 20:53:06:150
-11.3049;-22.6194;6.6628;0.1698;-9.7492;1.0465;-7.8999;-8.1378;2.9723;0.7659;0.5873;-1.1547;0.0;-20.01;35.76;10.56;346.43;78.25;78.82;0.0;987.01;50.915;35.957405;-83.92426;827.58;NaN;;5.11;12.226105;327.1;13 / 19;243509;2022-10-26 20:53:06:650
-8.0106;-15.9518;-8.7051;3.6095;-9.0368;1.2155;-9.145;-2.2768;2.1041;-1.0788;0.4534;-2.0426;0.0;-21.67;35.59;6.08;105.26;67.15;-71.39;0.0;987.08;51.431;35.957405;-83.92426;827.58;NaN;;5.11;12.226105;327.1;13 / 19;244009;2022-10-26 20:53:07:150
-6.6891;-12.0688;3.1172;0.147;-9.7317;1.2014;4.3823;4.386;-4.0797;0.9757;0.1549;-3.1732;0.0;-15.64;38.53;9.32;342.4;74.62;87.49;0.0;987.26;50.309;35.957413;-83.92427;826.88;NaN;;4.36;12.226105;323.9;12 / 19;244509;2022-10-26 20:53:07:650
-5.0456;-12.3093;3.4678;3.9779;-8.8538;1.3989;-7.5065;-1.8701;1.4032;-0.5143;-0.2718;-1.9846;0.0;-19.67;37.97;6.17;93.56;73.65;-52.59;0.0;987.02;53.216;35.957413;-83.92427;826.88;NaN;;4.36;12.226105;323.9;12 / 19;245009;2022-10-26 20:53:08:150
-13.4381;-24.9464;4.4507;-1.6069;-9.665;0.4195;6.4598;6.2704;0.1698;0.8131;0.2037;-2.5046;0.0;-18.02;36.96;9.62;348.81;80.25;75.37;0.0;987.16;53.198;35.95742;-83.924286;826.39;NaN;;5.04;12.226105;318.2;12 / 19;245509;2022-10-26 20:53:08:650
-3.699;-10.6466;2.0423;4.2316;-8.7527;1.2864;-8.3323;-1.9808;-2.228;-0.4639;-2.0432;1.7389;0.0;-23.61;35.85;9.11;97.03;63.19;-73.09;0.0;986.98;56.433;35.95742;-83.924286;826.39;NaN;;5.04;12.226105;318.2;12 / 19;246009;2022-10-26 20:53:09:150
-10.6035;-24.2761;3.5874;0.8469;-9.7183;1.0042;-8.3105;-7.3311;0.4885;0.8489;0.5127;-2.9098;0.0;-17.42;38.31;11.53;336.59;77.33;86.88;0.0;987.27;56.291;35.957428;-83.92429;825.95;NaN;;4.72;12.226105;326.3;12 / 19;246509;2022-10-26 20:53:09:650
1.4749;-19.3394;1.0834;5.2154;-8.18;1.4343;-9.7262;-5.0528;-5.3852;-0.5631;-1.6477;2.6101;0.0;-16.39;41.03;10.48;112.57;82.22;-70.64;0.0;986.95;57.088;35.957428;-83.92429;825.95;NaN;;4.72;12.226105;326.3;12 / 19;247009;2022-10-26 20:53:10:150
4.6002;-9.2689;-6.8291;0.2194;-9.7433;1.0907;-6.4695;-4.0014;-0.8072;0.7959;0.7015;-1.8969;0.0;-16.03;39.32;13.41;328.9;82.13;89.47;0.0;986.73;53.311;35.957436;-83.9243;823.61;NaN;;4.64;12.226105;327.8;12 / 19;247510;2022-10-26 20:53:10:651
-4.0507;-11.3635;3.8892;4.0075;-8.9289;0.6207;-6.4243;-0.7776;2.0731;-1.7395;0.254;3.6881;0.0;-21.67;37.07;14.31;98.41;65.57;-81.2;0.0;986.95;54.485;35.957436;-83.9243;823.61;NaN;;4.64;12.226105;327.8;12 / 19;248009;2022-10-26 20:53:11:150
