sep=;
ACCELEROMETER X (m/s²);ACCELEROMETER Y (m/s²);ACCELEROMETER Z (m/s²);GRAVITY X (m/s²);GRAVITY Y (m/s²);GRAVITY Z (m/s²);LINEAR ACCELERATION X (m/s²);LINEAR ACCELERATION Y (m/s²);LINEAR ACCELERATION Z (m/s²);GYROSCOPE X (rad/s);GYROSCOPE Y (rad/s);GYROSCOPE Z (rad/s);LIGHT (lux);MAGNETIC FIELD X (μT);MAGNETIC FIELD Y (μT);MAGNETIC FIELD Z (μT);ORIENTATION Z (azimuth °);ORIENTATION X (pitch °);ORIENTATION Y (roll °);PROXIMITY (i);ATMOSPHERIC PRESSURE (hPa);SOUND LEVEL (dB);LOCATION Latitude : ;LOCATION Longitude : ;LOCATION Altitude ( m);LOCATION Altitude-google ( m);LOCATION Altitude-atmospheric pressure ( m);LOCATION Speed ( Kmh);LOCATION Accuracy ( m);LOCATION ORIENTATION (°);Satellites in range;Time since start in ms ;YYYY-MO-DD HH-MI-SS_SSS
-3.6823;3.536;9.3515;-3.5823;0.5285;9.1136;0.155;0.6499;-0.1974;1.7095;3.2933;-0.3087;15.0;21.45;-18.97;-37.59;198.72;-3.09;21.46;5.0;991.43;45.836;35.95867;-83.924545;791.29;NaN;;;52.112904;;0 / 20;23;2022-10-23 13:37:32:749
5.4814;1.1456;-0.0933;-0.5496;3.2691;9.2294;-1.0871;-1.2556;-2.6847;-0.0047;-4.721;0.0369;10.0;15.94;-17.61;-41.74;258.76;-19.47;3.41;5.0;991.41;55.077;35.95867;-83.924545;791.29;NaN;;;52.112904;;0 / 20;523;2022-10-23 13:37:33:249
10.643;0.5195;-0.9673;8.5198;-2.2237;-4.3173;2.2808;1.2912;6.0968;-0.512;-1.1142;1.0417;7.0;-49.43;-24.0;6.0;206.36;13.11;-116.87;5.0;991.45;58.574;35.95867;-83.924545;791.29;NaN;;;52.112904;;0 / 20;1024;2022-10-23 13:37:33:750
7.5811;-3.2752;-4.3585;8.8935;3.2951;-2.4937;-1.2546;-6.7196;-1.8338;1.8684;-0.3241;-2.3663;7.0;-59.79;-8.96;23.78;123.72;-1.33;-101.75;5.0;991.41;56.986;35.95867;-83.924545;791.29;NaN;;;52.112904;;0 / 20;1524;2022-10-23 13:37:34:250
11.9034;-1.3573;0.5973;8.9517;-2.4476;-3.1695;3.3932;-0.3215;0.0339;-2.9011;0.5497;2.9549;7.0;-56.44;-24.81;28.03;169.02;14.45;-109.5;5.0;991.45;45.642;35.95867;-83.924545;791.29;NaN;;;52.112904;;0 / 20;2023;2022-10-23 13:37:34:749
8.694;-3.8928;-2.2911;9.7905;-0.0445;-0.561;-0.5384;-4.5005;-1.3874;1.6566;0.3044;-2.3187;4.0;-71.57;0.21;21.49;166.18;16.47;-102.27;5.0;991.43;53.514;35.95867;-83.924545;791.29;NaN;;;52.112904;;0 / 20;2523;2022-10-23 13:37:35:249
10.7578;-2.5929;-0.8402;9.0513;-1.8411;-3.2947;2.0497;-2.5885;-0.5514;-0.0586;-0.5479;2.4831;5.0;-52.54;-34.41;14.1;186.5;10.82;-110.0;5.0;991.48;45.849;35.95867;-83.924545;791.29;NaN;;;52.112904;;0 / 20;3024;2022-10-23 13:37:35:750
7.7641;-4.745;-3.5145;9.5788;-0.9961;-1.8507;1.2918;-6.4311;-0.8292;2.0657;-0.44;-3.5119;3.0;-60.36;-4.93;17.53;189.19;30.0;-111.96;5.0;991.43;45.53;35.95867;-83.924545;791.29;NaN;;;52.112904;;0 / 20;3523;2022-10-23 13:37:36:249
10.8452;-3.711;-1.7225;7.9771;-4.9483;-2.8375;3.3086;1.1013;1.5341;-1.1065;-0.8112;3.2257;5.0;-46.84;-25.71;20.96;164.26;6.55;-104.11;5.0;991.48;43.132;35.95867;-83.924545;791.29;NaN;;;52.112904;;0 / 20;4023;2022-10-23 13:37:36:749
9.5728;-6.0835;-1.2473;9.3369;-2.7423;-1.2131;4.6702;-5.4004;0.2873;1.3003;0.5644;-3.621;3.0;-56.18;6.68;15.68;188.29;40.01;-110.53;5.0;991.46;45.958;35.95867;-83.924545;791.29;NaN;;;52.112904;;0 / 20;4524;2022-10-23 13:37:37:250
12.1466;-6.0846;0.6918;8.0182;-4.6725;-3.1697;3.9672;-2.2208;0.3696;-2.5986;-0.2172;4.2439;5.0;-42.66;-25.46;19.05;177.6;28.45;-111.57;5.0;991.46;42.799;35.95867;-83.924545;791.29;NaN;;;52.112904;;0 / 20;5024;2022-10-23 13:37:37:750
8.8582;-7.7163;-1.6759;8.8919;-4.0508;-0.8336;7.4444;-5.3958;2.0586;4.1164;-0.16;-4.049;5.0;-53.31;4.29;11.72;208.21;39.23;-119.84;5.0;991.42;42.065;35.95867;-83.924545;791.29;NaN;;;52.112904;;0 / 20;5525;2022-10-23 13:37:38:251
12.3811;-6.6509;-0.2656;8.9282;-3.5256;-2.0071;3.7698;-4.4929;-1.0974;-1.9789;0.1726;4.0237;6.0;-28.16;-25.65;16.91;163.57;21.07;-102.67;5.0;991.44;47.141;35.95867;-83.924545;791.29;NaN;;;52.112904;;0 / 20;6024;2022-10-23 13:37:38:750
10.7327;-8.5433;-0.4525;6.7693;-6.7444;-2.2045;9.8413;4.2263;2.7266;1.5836;0.0463;-4.1066;3.0;-38.68;-1.18;13.31;179.44;43.45;-108.04;5.0;991.44;45.664;35.95867;-83.924545;791.29;NaN;;;52.112904;;0 / 20;6524;2022-10-23 13:37:39:250
13.6786;-7.5652;-1.6699;9.5462;-1.8976;-1.1997;0.8083;-4.2084;-1.5503;0.8908;-0.9522;3.6901;5.0;-28.01;-20.64;18.34;151.45;11.16;-97.16;5.0;991.44;42.987;35.95867;-83.924545;791.29;NaN;;;52.112904;;0 / 20;7023;2022-10-23 13:37:39:749
14.7512;-11.5277;0.5339;9.3101;-2.7564;-1.3763;5.7142;-8.3228;1.8826;0.1981;1.0886;-4.2505;2.0;-32.12;0.96;22.31;153.64;49.31;-104.36;5.0;991.44;62.49;35.95867;-83.924545;791.29;NaN;;;52.112904;;0 / 20;7523;2022-10-23 13:37:40:249
12.8719;-5.2083;-3.955;9.4242;0.9381;-2.5446;-2.8031;-7.6206;-0.7612;-1.2125;0.4555;3.4186;5.0;-33.9;-14.44;22.11;129.62;-5.49;-105.11;5.0;991.43;56.115;35.95867;-83.924545;791.29;NaN;;;52.112904;;0 / 20;8023;2022-10-23 13:37:40:749
13.9193;-8.5732;-2.0961;8.7832;-3.7935;-2.153;5.9033;-2.3078;0.3559;0.7658;0.5171;-3.7627;3.0;-32.21;8.66;26.93;155.5;43.85;-116.5;5.0;991.46;53.637;35.95867;-83.924545;791.29;NaN;;;52.112904;;0 / 20;8524;2022-10-23 13:37:41:250
7.6361;-1.1336;-4.9175;8.9094;2.3248;-3.3746;-0.9729;-7.4245;-1.4722;-1.1892;0.8311;2.5233;3.0;-51.81;-21.39;30.36;123.4;-13.71;-110.75;5.0;991.44;48.084;35.95867;-83.924545;791.29;NaN;;;52.112904;;0 / 20;9023;2022-10-23 13:37:41:749
14.2639;-6.5324;-1.4844;8.3281;-3.7953;-3.5227;7.9398;2.3856;3.1341;1.3037;0.7025;-1.9648;5.0;-58.13;-13.52;39.24;171.77;24.76;-118.95;5.0;991.41;44.933;35.95867;-83.924545;791.29;NaN;;;52.112904;;0 / 20;9523;2022-10-23 13:37:42:249
8.3243;-3.8737;-3.6353;9.3989;0.2266;-2.7891;-1.0345;-4.4652;-1.3984;-0.6567;-0.062;3.05;8.0;-56.4;-34.87;36.58;120.12;-17.03;-100.14;5.0;991.44;47.278;35.95867;-83.924545;791.29;NaN;;;52.112904;;0 / 20;10023;2022-10-23 13:37:42:749
15.6742;-6.5635;-3.463;6.6887;-5.356;-4.7691;8.9822;5.0121;4.6303;0.7834;1.315;-1.1888;7.0;-58.89;-22.18;56.42;168.14;30.89;-124.58;5.0;991.45;51.776;35.95867;-83.924545;791.29;NaN;;;52.112904;;0 / 20;10523;2022-10-23 13:37:43:249
6.4161;-4.8171;-1.89;9.3578;2.0277;-2.1191;-2.4861;-7.6208;-1.9813;-0.2911;-0.4294;2.7132;6.0;-61.95;-37.39;51.13;120.66;-11.93;-102.76;5.0;991.43;55.408;35.95867;-83.924545;791.29;NaN;;;52.112904;;0 / 20;11024;2022-10-23 13:37:43:750
15.8237;-4.1955;2.0734;7.1495;-5.3911;-3.999;6.237;5.3357;6.8939;0.0679;-0.6757;-0.0141;6.0;-78.32;-25.14;45.34;160.92;28.47;-105.84;5.0;991.49;48.067;35.95867;-83.924545;791.29;NaN;;;52.112904;;0 / 20;11524;2022-10-23 13:37:44:250
2.1691;2.3821;2.965;2.9969;5.2674;7.7099;2.6269;-4.5207;-4.1004;-0.0386;2.8892;-1.1259;6.0;-48.07;-41.74;8.1;122.28;-32.49;-21.24;5.0;991.39;48.683;35.95867;-83.924545;791.29;NaN;;;52.112904;;0 / 20;12025;2022-10-23 13:37:44:751
1.1396;4.2903;14.6662;0.2283;5.3846;8.1929;-0.6191;0.361;-0.5073;-0.6656;-0.2504;0.585;19.0;-5.38;-46.35;-18.06;171.03;-33.3;-1.6;5.0;991.38;41.65;35.95867;-83.924545;791.29;NaN;;;52.112904;;0 / 20;12525;2022-10-23 13:37:45:251
2.1117;3.4104;11.8448;0.3762;5.05;8.398;-0.497;-0.191;0.3035;0.332;-0.0777;0.2843;14.0;-3.71;-43.18;-16.14;173.44;-30.99;-2.56;5.0;991.4;43.334;35.95867;-83.924545;791.29;NaN;;;52.112904;;0 / 20;13024;2022-10-23 13:37:45:750
-0.4753;7.0819;7.1166;0.0099;4.8661;8.5142;-0.3805;0.1607;0.9695;0.1917;0.331;0.1163;11.0;-4.84;-42.49;-15.08;171.68;-28.2;-2.43;5.0;991.4;41.395;35.95867;-83.924545;791.29;NaN;;;52.112904;;0 / 20;13523;2022-10-23 13:37:46:249
0.1053;5.0252;8.1688;0.1982;4.972;8.4505;-0.2252;-0.3155;-1.4371;0.2141;-0.1765;-0.0974;35.0;-7.33;-42.24;-12.94;167.23;-30.46;-1.34;5.0;991.38;41.193;35.95867;-83.924545;791.29;NaN;;;52.112904;;0 / 20;14025;2022-10-23 13:37:46:751
0.0873;3.8868;10.3244;0.6198;3.9445;8.957;0.2209;0.831;-1.0345;-0.3768;0.0325;-0.1355;86.0;-11.04;-40.71;-12.26;161.98;-25.99;-3.82;5.0;991.38;41.048;35.95867;-83.924545;791.29;NaN;;;52.112904;;0 / 20;14523;2022-10-23 13:37:47:249
1.5191;4.483;7.684;1.3536;4.155;8.7792;-0.212;-0.6181;-1.2183;0.0315;-0.4035;-0.0389;47.0;-20.92;-36.6;-16.95;144.04;-25.07;-8.77;5.0;991.38;40.2;35.95867;-83.924545;791.29;NaN;;;52.112904;;0 / 20;15023;2022-10-23 13:37:47:749
1.0642;4.1369;9.8013;2.0308;4.1206;8.6641;-1.331;0.1294;-2.3725;-0.4171;-0.0684;-0.1694;24.0;-26.23;-31.65;-18.94;131.61;-25.17;-13.47;5.0;991.41;43.973;35.95867;-83.924545;791.29;NaN;;;52.112904;;0 / 20;15524;2022-10-23 13:37:48:250
0.5387;3.7708;6.3969;1.5496;4.6753;8.48;-1.0336;-0.936;-1.8552;0.163;-0.49;0.106;16.0;-23.96;-30.34;-26.25;124.42;-26.68;-8.33;5.0;991.38;41.322;35.95867;-83.924545;791.29;NaN;;;52.112904;;0 / 20;16023;2022-10-23 13:37:48:749
1.5215;4.2449;8.9372;2.6952;3.9589;8.5576;-1.0869;0.0611;-1.8942;-0.4412;-0.2444;-0.3025;14.0;-22.93;-34.89;-26.4;141.16;-24.71;-15.75;5.0;991.41;41.647;35.95867;-83.924545;791.29;NaN;;;52.112904;;0 / 20;16523;2022-10-23 13:37:49:249
1.1228;3.3601;6.3084;1.9355;4.6578;8.4101;-0.4487;-1.3736;-1.7288;0.4951;-0.0053;0.3902;40.0;-21.45;-39.36;-31.2;142.7;-28.36;-12.96;5.0;991.38;41.788;35.95867;-83.924545;791.29;NaN;;;52.112904;;0 / 20;17023;2022-10-23 13:37:49:749
1.439;4.0902;7.497;3.5154;3.5693;8.4304;-0.0075;0.6813;-1.1787;0.0153;-0.2541;-0.1531;96.0;-21.19;-43.57;-30.15;161.5;-20.81;-19.86;5.0;991.42;42.605;35.95867;-83.924545;791.29;NaN;;;52.112904;;0 / 20;17523;2022-10-23 13:37:50:249
1.1755;3.5994;6.1277;1.9809;3.8585;8.7954;-0.089;-1.349;-0.6611;0.5601;0.2937;0.4256;69.0;-16.09;-46.46;-33.36;163.51;-23.17;-12.69;5.0;991.4;41.253;35.95867;-83.924545;791.29;NaN;;;52.112904;;0 / 20;18024;2022-10-23 13:37:50:750
2.0746;3.8713;7.0531;3.2219;3.3525;8.6343;0.4835;0.0364;0.6802;-0.2303;-0.1394;-0.1586;16.0;-13.58;-50.36;-27.77;174.77;-19.99;-20.46;5.0;991.42;41.308;35.95867;-83.924545;791.29;NaN;;;52.112904;;0 / 20;18523;2022-10-23 13:37:51:249
1.4498;2.5041;6.9751;2.6959;3.3321;8.8204;0.0477;-0.7005;0.034;-0.0695;0.5353;0.0543;12.0;-11.62;-46.65;-24.19;172.78;-19.86;-17.0;5.0;991.39;39.246;35.95867;-83.924545;791.29;NaN;;;52.112904;;0 / 20;19024;2022-10-23 13:37:51:750
1.3226;2.9901;6.853;3.0042;2.8348;8.8943;2.0297;1.1207;-0.333;-0.0278;0.3764;-0.4359;16.0;-10.35;-43.54;-20.76;173.1;-12.98;-14.14;5.0;991.42;41.44;35.95867;-83.924545;791.29;NaN;;;52.112904;;0 / 20;19525;2022-10-23 13:37:52:251
1.6376;2.5786;8.0321;1.8973;2.8257;9.197;-0.145;-0.4992;-0.2478;-0.5075;0.5404;0.3773;40.0;-10.48;-41.87;-21.41;170.65;-16.75;-11.66;5.0;991.41;43.059;35.95867;-83.924545;791.29;NaN;;;52.112904;;0 / 20;20024;2022-10-23 13:37:52:750
2.1392;2.5499;9.5118;1.8411;2.9773;9.1606;0.5631;-0.1533;-0.3748;-0.1758;0.0066;-0.0499;90.0;-16.14;-44.64;-20.76;161.4;-18.04;-10.41;5.0;991.4;41.817;35.95867;-83.924545;791.29;NaN;;;52.112904;;0 / 20;20524;2022-10-23 13:37:53:250
1.5514;2.4395;6.6138;1.9224;2.3131;9.334;1.3062;-1.3537;5.547;0.5498;-0.0802;0.2503;62.0;-23.44;-49.82;-22.84;157.02;-13.64;-11.64;5.0;991.41;38.515;35.95867;-83.924545;791.29;NaN;;;52.112904;;0 / 20;21024;2022-10-23 13:37:53:750
3.3864;3.4068;7.6421;2.7777;1.6618;9.2571;-0.3673;-1.1607;2.2757;0.2709;-0.4163;0.295;19.0;-27.47;-51.73;-21.24;156.92;-9.76;-16.7;5.0;991.37;39.658;35.95867;-83.924545;791.29;NaN;;;52.112904;;0 / 20;21523;2022-10-23 13:37:54:249
3.0691;1.1396;9.9452;2.4377;1.7474;9.3367;0.5287;-0.5404;0.2211;0.3483;0.2558;0.0882;16.0;-29.51;-54.04;-24.21;155.66;-8.22;-16.14;5.0;991.37;38.361;35.95867;-83.924545;791.29;NaN;;;52.112904;;0 / 20;22023;2022-10-23 13:37:54:749
2.977;2.2708;8.9192;3.0253;1.6756;9.1766;2.144;-2.2202;5.8826;1.0881;0.2182;0.4113;27.0;-34.57;-55.13;-22.84;148.2;-15.03;-14.9;5.0;991.41;42.623;35.95867;-83.924545;791.29;NaN;;;52.112904;;0 / 20;22523;2022-10-23 13:37:55:249
2.7461;2.1009;8.2585;2.1708;1.4397;9.4544;0.6933;-1.0554;1.9946;0.2015;0.2705;0.3975;51.0;-40.89;-49.69;-22.8;142.16;-8.44;-12.93;5.0;991.4;40.206;35.95865;-83.92448;708.55;NaN;;0.0;176.61452;;0 / 20;23024;2022-10-23 13:37:55:750
4.6158;2.8214;8.056;2.7096;2.1167;9.1841;1.3481;0.1374;-0.2548;-1.091;-0.5714;-0.6258;116.0;-44.31;-38.31;-21.81;129.69;-12.47;-16.44;5.0;991.41;39.733;35.95865;-83.92448;708.55;NaN;;0.0;176.61452;;0 / 20;23524;2022-10-23 13:37:56:250
2.3019;1.0427;8.7003;1.8612;0.8775;9.5883;0.8918;-1.282;5.2224;0.8995;0.4135;0.5221;96.0;-33.6;-34.29;-25.03;137.37;-5.13;-10.99;5.0;991.42;40.14;35.95865;-83.92448;708.55;NaN;;0.0;176.61452;;5 / 20;24023;2022-10-23 13:37:56:749
4.6253;2.9411;8.633;1.6395;2.6161;9.308;1.2496;-0.8943;-0.5866;-0.2324;-0.5306;-0.4585;26.0;-28.03;-33.21;-24.41;135.95;-15.47;-9.99;5.0;991.37;41.168;35.95865;-83.92448;708.55;NaN;;0.0;176.61452;;5 / 20;24524;2022-10-23 13:37:57:250
3.1268;0.5794;10.4169;2.0441;0.5174;9.5773;-0.5403;-0.6866;4.7519;1.1296;-0.0691;0.8191;21.0;-19.37;-31.95;-22.05;155.44;-3.02;-12.05;5.0;991.42;42.065;35.95865;-83.92448;708.55;NaN;;0.0;176.61452;;5 / 20;25024;2022-10-23 13:37:57:750
6.719;0.9458;16.3361;4.07;1.9174;8.7137;1.8494;-2.0712;6.1874;0.2309;-0.9794;0.6263;22.0;-20.06;-31.44;-18.24;142.14;-20.21;-8.78;5.0;991.4;43.994;35.95865;-83.92448;708.55;NaN;;0.0;176.61452;;5 / 20;25524;2022-10-23 13:37:58:250
3.5204;0.0514;9.8231;3.7105;0.7316;9.0481;-0.6366;0.9143;2.1758;-0.2005;0.0092;0.3832;41.0;-24.99;-27.39;-14.14;144.79;-4.28;-22.3;5.0;991.44;40.033;35.95865;-83.92448;708.55;NaN;;0.0;176.61452;;5 / 20;26023;2022-10-23 13:37:58:749
3.8928;1.7237;11.1888;2.0651;2.436;9.2721;1.463;-0.1959;-1.4845;-1.2691;-0.8163;-0.3741;97.0;-25.41;-25.8;-15.64;131.04;-17.05;-10.25;5.0;991.37;43.217;35.95865;-83.92448;708.55;NaN;;0.0;176.61452;;5 / 20;26523;2022-10-23 13:37:59:249
3.3362;-0.2827;13.905;2.9365;0.3443;9.3503;-2.5177;-0.0672;3.625;1.2935;0.4054;0.7949;86.0;-28.09;-23.34;-21.22;137.12;-2.01;-17.43;5.0;991.43;43.256;35.95865;-83.92448;708.55;NaN;;0.0;176.61452;;5 / 20;27023;2022-10-23 13:37:59:749
4.4172;2.339;7.0208;2.2276;3.0024;9.0661;1.4704;-1.0995;-1.2586;-0.553;-0.6706;-0.3453;23.0;-29.61;-22.65;-26.63;117.14;-17.04;-10.44;5.0;991.38;42.16;35.95865;-83.92448;708.55;NaN;;0.0;176.61452;;5 / 20;27524;2022-10-23 13:38:00:250
3.821;0.1914;13.1088;3.1065;0.3679;9.2943;0.2316;-0.0712;4.2437;0.8066;0.2896;0.7767;21.0;-30.34;-23.03;-30.45;138.71;-3.37;-19.62;5.0;991.42;41.107;35.95865;-83.92448;708.55;NaN;;0.0;176.61452;;5 / 20;28023;2022-10-23 13:38:00:749
5.8558;0.868;12.6948;1.7288;2.7615;9.2496;1.1694;-0.5784;-2.3352;-0.2672;-0.3839;-0.2664;30.0;-27.13;-20.68;-33.43;118.21;-14.31;-10.12;5.0;991.4;44.303;35.95865;-83.92448;708.55;NaN;;0.0;176.61452;;5 / 20;28524;2022-10-23 13:38:01:250
6.0739;0.6858;16.7432;2.1576;0.8944;9.5245;-1.2587;0.8642;1.9828;-0.1255;-0.1103;0.3003;41.0;-22.12;-17.53;-34.12;136.03;-5.23;-12.76;5.0;991.42;40.131;35.95865;-83.92448;708.55;NaN;;0.0;176.61452;;5 / 20;29024;2022-10-23 13:38:01:750
5.7075;2.5546;7.4109;1.668;2.8793;9.2249;-0.5645;-1.0713;-2.7159;0.0276;-0.376;-0.3146;99.0;-18.58;-15.08;-32.87;116.84;-13.33;-10.84;5.0;991.38;44.329;35.95865;-83.92448;708.55;NaN;;0.0;176.61452;;5 / 20;29524;2022-10-23 13:38:02:250
1.1145;0.3066;12.6446;3.4391;0.5756;9.1658;-2.7595;0.392;0.7337;-0.4932;0.2123;0.284;97.0;-22.14;-7.18;-32.98;117.67;-3.36;-20.57;5.0;991.37;40.687;35.95865;-83.92448;708.55;NaN;;0.0;176.61452;;4 / 20;30024;2022-10-23 13:38:02:750
3.128;1.1539;8.9707;1.8911;1.9321;9.4266;0.7055;0.2021;-3.5884;-0.0016;-0.2973;-0.2442;59.0;-10.29;2.96;-38.32;12.32;-11.36;-11.34;5.0;991.38;42.454;35.95865;-83.92448;708.55;NaN;;0.0;176.61452;;4 / 20;30525;2022-10-23 13:38:03:251
2.977;3.0081;10.3268;3.2124;1.9768;9.0522;-1.3699;0.7164;-1.8398;-0.4904;0.1875;-0.0838;62.0;10.14;-19.22;-43.14;244.97;-11.63;-19.54;5.0;991.42;41.2;35.958633;-83.924484;514.66;NaN;;0.0;91.317375;;5 / 20;31025;2022-10-23 13:38:03:751
0.425;1.3932;7.005;2.2129;2.7062;9.1624;-0.0478;-0.6501;-3.2136;-0.6053;-0.0385;-1.769;84.0;12.64;-33.56;-39.69;224.2;-13.17;-17.86;5.0;991.41;43.708;35.958633;-83.924484;514.66;NaN;;0.0;91.317375;;5 / 20;31525;2022-10-23 13:38:04:251
1.3167;2.8334;8.3674;3.192;2.0777;9.0369;-1.4211;0.1885;-2.2949;-0.5682;-0.0389;-0.6872;79.0;24.79;-31.29;-46.52;239.97;-12.23;-19.45;5.0;991.38;41.445;35.958633;-83.924484;514.66;NaN;;0.0;91.317375;;6 / 20;32024;2022-10-23 13:38:04:750
2.6204;2.9614;5.4072;2.6162;2.8426;9.0136;0.1177;-0.5079;-2.9642;0.3874;0.0341;0.0386;41.0;17.08;-27.15;-49.88;242.09;-12.97;-18.24;5.0;991.39;41.982;35.958633;-83.924484;514.66;NaN;;0.0;91.317375;;6 / 20;32525;2022-10-23 13:38:05:251
1.4016;1.9415;8.2765;4.183;1.8284;8.6793;1.1758;1.2277;-1.9724;-0.7819;0.0684;-0.5555;46.0;7.28;-23.98;-46.93;238.68;-10.75;-25.73;5.0;991.4;41.531;35.958633;-83.924484;514.66;NaN;;0.0;91.317375;;7 / 20;33024;2022-10-23 13:38:05:750
2.2134;1.884;7.0388;2.6383;2.2499;9.1732;-0.1335;-1.0925;0.051;0.8624;0.3944;0.3392;95.0;4.11;-16.48;-47.38;246.76;-9.91;-19.53;5.0;991.41;43.746;35.958633;-83.924484;514.66;NaN;;0.0;91.317375;;7 / 20;33523;2022-10-23 13:38:06:249
1.4593;2.9794;6.3694;2.3541;2.4061;9.2108;-0.8099;0.4413;-2.2004;-0.2449;0.0299;-0.3179;95.0;2.85;-24.53;-41.14;225.71;-15.46;-15.95;5.0;991.39;41.851;35.958633;-83.924484;514.66;NaN;;0.0;91.317375;;8 / 20;34023;2022-10-23 13:38:06:749
-0.0156;1.9729;5.9961;1.9873;2.4648;9.2815;0.5075;-1.0316;1.4611;0.4485;0.4531;-0.1077;25.0;-0.67;-24.77;-42.06;210.24;-11.72;-14.32;5.0;991.42;42.369;35.958633;-83.924484;514.66;NaN;;0.0;91.317375;;8 / 20;34523;2022-10-23 13:38:07:249
1.0965;2.3593;7.0699;2.6006;1.078;9.3939;1.013;0.4519;0.2101;-0.613;-0.1608;-0.3934;28.0;-3.09;-27.69;-41.7;199.64;-6.31;-15.47;5.0;991.43;41.704;35.958633;-83.924484;514.66;NaN;;0.0;91.317375;;9 / 20;35023;2022-10-23 13:38:07:749
1.9956;-0.0622;8.9958;2.0637;1.2158;9.5096;1.8504;-2.3212;4.7515;0.8046;0.75;0.1707;59.0;-5.1;-21.22;-47.46;201.0;-3.18;-14.66;5.0;991.44;43.068;35.958633;-83.924484;514.66;NaN;;0.0;91.317375;;9 / 20;35523;2022-10-23 13:38:08:249
2.1452;1.9705;7.6744;2.233;1.5923;9.4153;1.0007;-1.439;3.0957;0.037;-0.4623;-0.2403;100.0;0.38;-28.41;-42.9;205.47;-9.34;-13.34;5.0;991.41;41.552;35.958626;-83.924484;765.4;NaN;;0.0;70.960915;;8 / 20;36024;2022-10-23 13:38:08:750
1.5969;-0.1759;9.999;2.4275;0.5925;9.483;-0.1311;0.2698;2.6529;0.7995;0.2679;0.5825;80.0;0.47;-23.87;-44.29;207.04;-3.46;-14.36;5.0;991.43;42.947;35.958626;-83.924484;765.4;NaN;;0.0;70.960915;;8 / 20;36525;2022-10-23 13:38:09:251
5.0037;2.8932;9.3993;2.1088;1.3837;9.4767;1.369;-1.365;1.223;-0.5518;-0.2242;-0.0821;33.0;3.45;-24.96;-37.71;209.7;-8.11;-12.55;5.0;991.41;41.153;35.95863;-83.924484;771.42;NaN;;0.0;57.83053;;9 / 20;37024;2022-10-23 13:38:09:750
0.7289;-0.3796;9.513;2.1287;0.8533;9.5347;-0.2529;-1.5274;1.7015;0.3324;0.5756;0.6209;39.0;3.39;-18.06;-39.56;215.95;-2.71;-12.7;5.0;991.44;40.785;35.95863;-83.924484;771.42;NaN;;0.0;57.83053;;9 / 20;37524;2022-10-23 13:38:10:250
3.5994;0.7648;11.517;2.0725;1.1534;9.5155;0.952;-0.4122;-1.2034;-1.4512;-0.6677;-0.3606;52.0;4.28;-19.22;-38.76;229.03;-13.01;-11.37;5.0;991.41;42.5;35.958614;-83.924515;754.52;NaN;;0.0;63.98941;;9 / 20;38023;2022-10-23 13:38:10:749
2.1069;-0.6069;10.7566;2.6667;0.5211;9.4227;1.083;-2.0666;6.6871;0.6097;0.7511;0.3374;106.0;3.04;-14.74;-42.21;227.59;-2.08;-16.55;5.0;991.41;43.22;35.958614;-83.924515;754.52;NaN;;0.0;63.98941;;9 / 20;38525;2022-10-23 13:38:11:251
2.8143;0.0048;12.2542;1.6823;1.8722;9.4781;1.6038;-0.657;-1.2296;-0.1605;-0.7033;-0.2918;121.0;8.01;-16.86;-41.31;238.42;-11.01;-10.06;5.0;991.39;49.515;35.958607;-83.92452;752.96;NaN;;0.0;58.30598;;9 / 20;39023;2022-10-23 13:38:11:749
2.7855;0.1914;8.875;2.7117;0.3172;9.4189;1.4015;-1.1471;6.4896;1.1337;0.5597;0.5185;108.0;8.64;-11.64;-44.06;242.03;-1.29;-16.18;5.0;991.39;41.38;35.958607;-83.92452;752.96;NaN;;0.0;58.30598;;9 / 20;39525;2022-10-23 13:38:12:251
3.4822;0.4633;14.0964;2.5676;1.4843;9.3475;1.5871;-0.7104;3.6609;-0.1924;-0.5284;-0.3036;132.0;17.49;-20.33;-39.82;246.74;-14.46;-10.52;5.0;991.39;43.064;35.958603;-83.924545;839.76;NaN;;0.0;50.3286;;10 / 20;40024;2022-10-23 13:38:12:750
3.1567;1.0726;7.2996;2.7497;0.3338;9.4074;-0.2507;0.511;1.751;0.0415;-0.1288;0.5762;223.0;15.69;-20.78;-39.96;236.03;-3.9;-18.33;5.0;991.41;43.137;35.958603;-83.924545;839.76;NaN;;0.0;50.3286;;10 / 20;40525;2022-10-23 13:38:13:251
2.6097;1.5814;8.9886;2.3684;1.2003;9.4404;1.8149;-0.276;0.4978;-0.7239;-0.0372;-0.2469;248.0;5.66;-27.06;-37.18;213.28;-7.03;-14.08;5.0;991.4;44.044;35.958595;-83.924545;837.03;NaN;;0.0;49.561176;;12 / 20;41024;2022-10-23 13:38:13:750
1.3214;0.6308;7.3774;2.3867;0.2636;9.5081;-2.4702;-0.0366;2.9338;-0.0374;0.3731;1.0165;246.0;1.69;-23.79;-41.42;211.68;-3.39;-16.21;5.0;991.42;42.966;35.958595;-83.924545;837.03;NaN;;0.0;49.561176;;12 / 20;41524;2022-10-23 13:38:14:250
3.1986;1.0546;12.3093;1.2171;1.8197;9.5592;1.2781;-0.6944;-0.3646;-1.2766;-0.8093;-0.2604;238.0;3.6;-29.08;-39.49;202.56;-10.69;-7.26;5.0;991.41;44.156;35.958584;-83.924545;832.04;NaN;;0.0;43.143265;;13 / 20;42024;2022-10-23 13:38:14:750
2.6157;-2.6109;14.2041;2.5066;0.323;9.4754;-2.9036;0.2449;1.6977;0.8423;0.162;0.8765;251.0;0.17;-28.59;-41.16;200.75;-1.89;-14.82;5.0;991.41;44.313;35.958584;-83.924545;832.04;NaN;;0.0;43.143265;;13 / 20;42524;2022-10-23 13:38:15:250
3.2883;1.4282;7.6516;1.4176;1.8782;9.5201;1.4294;-1.0628;-1.3971;-0.5292;-0.348;-0.3493;250.0;-2.18;-29.25;-37.63;192.36;-11.93;-8.88;5.0;991.42;46.488;35.95858;-83.92455;826.92;NaN;;0.0;42.967564;;13 / 20;43024;2022-10-23 13:38:15:750
1.9044;1.0044;11.0513;2.7501;0.5738;9.3957;-1.0067;0.2276;1.9497;0.0819;-0.0081;0.5858;238.0;-2.36;-27.43;-36.02;197.41;-1.6;-16.26;5.0;991.4;42.204;35.95858;-83.92455;826.92;NaN;;0.0;42.967564;;13 / 20;43524;2022-10-23 13:38:16:250
3.6329;2.1272;6.5815;1.6916;2.5963;9.3042;0.8425;-0.8373;-2.4993;0.0282;-0.1367;-0.2837;245.0;-5.17;-26.78;-31.28;182.02;-15.35;-10.3;5.0;991.38;44.347;35.95857;-83.924545;823.6;NaN;;0.0;41.68555;;13 / 20;44023;2022-10-23 13:38:16:749
3.9443;0.7696;12.4505;2.4067;0.4627;9.4955;-2.3341;0.139;2.2198;0.4697;0.1323;0.7226;244.0;-8.53;-20.98;-32.49;179.7;-5.23;-15.55;5.0;991.4;43.773;35.95857;-83.924545;823.6;NaN;;0.0;41.68555;;13 / 20;44524;2022-10-23 13:38:17:250
2.825;1.7022;8.9934;1.4535;2.1852;9.4489;-0.6026;-0.7831;-3.7475;-0.9086;-0.2328;-0.1809;209.0;-10.2;-15.99;-34.89;148.86;-12.88;-8.75;5.0;991.39;44.251;35.958534;-83.924545;823.32;NaN;;0.0;33.390427;;13 / 20;45024;2022-10-23 13:38:17:750
0.6057;0.0479;12.3093;2.7323;0.5316;9.4033;-1.8183;0.385;0.0704;-0.3505;0.2246;-0.0091;134.0;-8.96;-9.96;-37.31;196.12;-6.34;-16.17;5.0;991.4;41.691;35.958534;-83.924545;823.32;NaN;;0.0;33.390427;;13 / 20;45524;2022-10-23 13:38:18:250
2.8262;1.5909;8.1628;1.8899;2.2324;9.3603;0.9009;-0.6054;-1.3219;-0.2829;-0.0708;-0.3984;112.0;-4.78;-5.66;-44.44;310.38;-11.96;-11.46;5.0;991.38;45.807;35.958523;-83.924545;820.5;NaN;;0.0;27.402304;;15 / 20;46024;2022-10-23 13:38:18:750
0.9159;0.0586;12.7522;2.7901;0.4787;9.3892;-2.3643;0.8278;-1.4308;-0.508;-0.0212;-0.0596;69.0;-3.75;-7.09;-49.86;257.26;-5.34;-16.83;5.0;991.42;39.831;35.958523;-83.924545;820.5;NaN;;0.0;27.402304;;15 / 20;46525;2022-10-23 13:38:19:251
3.3458;0.5195;9.7618;1.712;1.9733;9.4523;0.5827;-0.0646;-2.5834;0.0874;-0.1601;-0.2664;64.0;0.92;-9.47;-52.78;278.95;-11.61;-10.27;5.0;991.4;40.397;35.958515;-83.92454;817.56;NaN;;0.0;24.012367;;15 / 20;47023;2022-10-23 13:38:19:749
-0.3879;-0.0132;13.0872;2.3597;0.9597;9.47;-1.5896;1.1223;-3.3618;-0.8017;0.0078;-0.9818;67.0;1.03;-12.97;-49.84;237.83;-5.62;-13.99;5.0;991.4;38.718;35.958515;-83.92454;817.56;NaN;;0.0;24.012367;;15 / 20;47523;2022-10-23 13:38:20:249
2.5977;1.8003;8.4488;1.3612;2.3594;9.4208;0.3797;-0.4382;-3.6016;0.1173;0.0684;-0.1095;64.0;0.69;-12.36;-49.57;271.58;-13.92;-8.22;5.0;991.39;41.791;35.95851;-83.924515;821.96;NaN;;0.0;21.56979;;15 / 20;48023;2022-10-23 13:38:20:749
-1.1695;-0.5459;14.919;1.7177;1.4979;9.5381;-0.7708;0.8384;-3.1317;0.148;0.5207;0.0528;54.0;-0.28;-17.87;-50.02;220.78;-8.79;-10.21;5.0;991.4;40.445;35.95851;-83.924515;821.96;NaN;;0.0;21.56979;;15 / 20;48524;2022-10-23 13:38:21:250
1.2209;2.1703;7.7234;0.2754;2.3825;9.5088;0.488;-0.3656;-3.1252;0.1407;-0.2285;-0.0173;62.0;0.58;-19.28;-47.64;199.41;-14.06;-1.66;5.0;991.4;40.96;35.95851;-83.924515;821.96;NaN;;0.0;21.56979;;15 / 20;49024;2022-10-23 13:38:21:750
-0.5207;1.0905;11.9166;1.1931;1.0233;9.6799;-2.1779;0.0873;0.9151;0.2252;0.2512;0.224;70.0;-4.31;-21.9;-45.47;187.81;-7.33;-7.87;5.0;991.39;41.99;35.95851;-83.924515;821.96;NaN;;0.0;21.56979;;15 / 20;49524;2022-10-23 13:38:22:250
0.6224;1.8697;10.6119;0.1695;2.2597;9.5413;-0.1713;-0.5494;-2.8313;0.4563;0.2284;0.2009;84.0;-4.99;-23.83;-44.74;162.05;-13.32;-1.02;5.0;991.39;42.481;35.958508;-83.92451;826.23;NaN;;0.0;19.782991;;15 / 20;50023;2022-10-23 13:38:22:749
-1.0259;3.1077;9.7223;0.5411;3.0001;9.3208;-0.8147;-0.0443;-0.7742;0.0759;0.2631;0.1546;82.0;-3.58;-27.02;-42.37;176.58;-18.06;-4.34;5.0;991.38;41.549;35.958508;-83.92451;826.23;NaN;;0.0;19.782991;;15 / 20;50524;2022-10-23 13:38:23:250
1.8661;3.1005;8.5708;0.9351;2.9515;9.3051;0.1262;-0.0911;-1.8045;-0.2516;-0.5176;-0.2454;86.0;-4.16;-28.09;-45.41;182.27;-17.52;-5.74;5.0;991.37;41.32;35.958492;-83.92453;826.19;NaN;;1.48;19.083843;303.3;15 / 20;51023;2022-10-23 13:38:23:749
0.0347;1.3705;10.5664;1.9565;1.7198;9.4543;-1.3813;0.4097;-1.7951;-0.4335;-0.1215;-0.5537;105.0;-4.2;-27.04;-48.92;203.64;-12.02;-13.0;5.0;991.4;41.435;35.958492;-83.92453;826.19;NaN;;1.48;19.083843;303.3;15 / 20;51523;2022-10-23 13:38:24:249
2.3246;2.0877;8.4033;1.549;2.7436;9.2867;0.4673;-0.2681;-2.273;0.0632;-0.0158;-0.2163;127.0;5.76;-27.51;-47.08;214.98;-11.72;-8.27;5.0;991.37;43.435;35.958466;-83.92456;827.61;NaN;;0.0;18.083448;;15 / 20;52023;2022-10-23 13:38:24:749
-0.3233;1.3071;10.8643;1.8225;1.442;9.5273;-1.2021;1.1044;-1.7819;-0.3325;0.0244;-0.6176;135.0;10.01;-32.42;-37.65;215.47;-10.83;-12.02;5.0;991.4;41.202;35.958466;-83.92456;827.61;NaN;;0.0;18.083448;;15 / 20;52524;2022-10-23 13:38:25:250
1.7417;1.8661;7.308;1.2631;2.6366;9.3607;0.538;-0.9535;-2.7703;0.1461;0.1021;-0.0809;151.0;15.38;-27.06;-23.03;221.31;-15.6;-7.68;5.0;991.36;40.34;35.95845;-83.924576;828.85;NaN;;0.97;17.89261;225.7;16 / 20;53024;2022-10-23 13:38:25:750
-0.5734;1.057;10.8858;1.8543;1.3644;9.5326;-0.1325;1.0786;-1.8539;-0.4456;-0.1406;-0.9554;156.0;16.24;-21.56;-13.88;222.16;-8.0;-11.01;5.0;991.36;39.561;35.95845;-83.924576;828.85;NaN;;0.97;17.89261;225.7;16 / 20;53524;2022-10-23 13:38:26:250
1.5933;1.8637;7.0074;1.2391;2.414;9.4238;-0.01;-1.1599;-1.9434;0.4736;0.0745;0.3997;162.0;18.6;-10.16;-10.44;246.85;-9.65;-7.46;5.0;991.36;42.594;35.958447;-83.92461;822.58;NaN;;0.65;17.565523;309.3;16 / 20;54024;2022-10-23 13:38:26:750
0.6547;1.6029;9.4711;2.0662;1.5122;9.4665;0.8975;1.3482;-1.0135;-0.1817;0.1095;0.3482;161.0;14.68;-2.51;-10.93;263.96;-8.87;-12.31;5.0;991.4;41.257;35.958447;-83.92461;822.58;NaN;;0.65;17.565523;309.3;16 / 20;54524;2022-10-23 13:38:27:250
0.7253;1.9331;7.1429;1.1045;2.6346;9.3813;0.5629;-1.4975;-0.0117;0.8712;0.5258;0.3819;170.0;15.08;6.3;-20.27;301.7;-15.58;-6.71;5.0;991.4;41.934;35.958447;-83.92461;822.58;NaN;;0.65;17.565523;309.3;16 / 20;55024;2022-10-23 13:38:27:750
0.055;2.9578;8.0237;1.4385;3.0112;9.2214;0.1485;0.473;-0.3134;-0.0411;0.0521;-0.472;148.0;6.13;-4.76;-32.87;296.27;-17.72;-7.18;5.0;991.36;48.695;35.958447;-83.92461;822.58;NaN;;0.65;17.565523;309.3;16 / 20;55524;2022-10-23 13:38:28:250
3.1914;3.1388;9.757;1.62;3.9954;8.8081;1.4392;-1.1706;3.0657;0.3911;0.1937;-0.275;127.0;2.03;-12.73;-38.18;289.94;-24.04;-10.42;5.0;991.36;41.933;35.95844;-83.92461;825.22;NaN;;1.44;16.713688;140.5;16 / 20;56025;2022-10-23 13:38:28:751
2.7221;5.8295;8.7314;1.9185;5.6041;7.8156;0.0269;-0.0317;2.2068;0.7332;-0.4304;-0.1394;93.0;1.88;-18.68;-37.82;295.42;-34.07;-12.41;5.0;991.37;42.709;35.95844;-83.92461;825.22;NaN;;1.44;16.713688;140.5;16 / 20;56524;2022-10-23 13:38:29:250
2.8621;6.2151;8.383;1.8346;5.5469;7.8763;-0.2873;0.0822;0.7366;-0.6659;-0.2154;-0.7819;69.0;0.64;-22.89;-36.47;274.6;-34.45;-13.11;5.0;991.33;52.348;35.95843;-83.92461;828.8;NaN;;0.94;16.55382;174.1;16 / 20;57024;2022-10-23 13:38:29:750
-1.4964;3.3757;8.0668;-0.1613;3.6028;9.1195;-0.8883;0.9957;-0.7662;0.1345;0.2492;0.0945;134.0;4.28;-10.39;-40.01;328.72;-21.55;1.01;5.0;991.29;57.877;35.95843;-83.92461;828.8;NaN;;0.94;16.55382;174.1;16 / 20;57524;2022-10-23 13:38:30:250
-2.4981;2.1655;9.5201;-0.724;3.1582;9.2559;-2.0564;-0.3538;-2.204;-0.083;-0.0183;0.8983;291.0;8.96;-6.26;-39.58;316.83;-16.39;5.17;5.0;991.29;56.489;35.95842;-83.924614;838.27;NaN;;0.97;16.047369;180.6;16 / 20;58024;2022-10-23 13:38:30:750
2.0566;3.6221;7.4982;1.0379;2.134;9.5152;0.5483;0.3697;0.8411;-0.0875;-0.1674;0.7763;435.0;6.86;-8.03;-42.0;293.13;-15.41;-1.33;5.0;991.32;54.762;35.95842;-83.924614;838.27;NaN;;0.97;16.047369;180.6;16 / 20;58524;2022-10-23 13:38:31:250
1.2138;1.2987;8.5026;1.9136;2.6193;9.2546;-1.0063;-1.545;0.3573;0.4054;0.2004;-0.1739;492.0;-0.53;-6.92;-46.87;281.78;-11.0;-12.54;5.0;991.32;53.747;35.95841;-83.92463;838.05;NaN;;0.65;15.014504;227.7;17 / 20;59024;2022-10-23 13:38:31:750
-0.8979;2.7951;6.5145;1.8176;2.893;9.1922;1.5208;-1.2792;3.7076;-0.3979;0.2901;-0.7709;450.0;0.69;-16.61;-47.85;256.82;-17.16;-11.19;5.0;991.33;54.03;35.95841;-83.92463;838.05;NaN;;0.65;15.014504;227.7;17 / 20;59523;2022-10-23 13:38:32:249
1.5586;2.412;7.9196;1.1166;2.6556;9.374;-0.8977;-1.3251;1.4372;0.6049;0.2399;1.2431;449.0;1.99;-15.43;-50.46;265.48;-16.13;-9.07;5.0;991.31;54.705;35.9584;-83.92464;838.03;NaN;;4.82;14.43417;359.0;17 / 20;60023;2022-10-23 13:38:32:749
3.8426;4.8757;7.4312;1.6364;3.1514;9.1412;0.5142;-0.4323;0.5123;-0.548;0.1509;0.3508;478.0;2.31;-27.26;-43.44;218.32;-18.74;-10.15;5.0;991.28;54.372;35.9584;-83.92464;838.03;NaN;;4.82;14.43417;359.0;17 / 20;60523;2022-10-23 13:38:33:249
3.5611;2.0602;8.1461;3.0602;3.0376;8.8079;0.9811;-2.0723;4.1123;0.6635;0.8958;1.4185;599.0;-8.46;-23.79;-42.17;212.65;-18.04;-19.16;5.0;991.31;55.572;35.958397;-83.92466;834.58;NaN;;2.63;13.755585;28.1;18 / 20;61024;2022-10-23 13:38:33:750
1.7321;3.8474;7.4767;1.3662;4.1156;8.7958;-0.3975;-1.5007;0.4046;0.3708;0.118;0.4234;644.0;-6.9;-26.14;-42.56;181.03;-22.82;-9.41;5.0;991.33;56.79;35.958397;-83.92466;834.58;NaN;;2.63;13.755585;28.1;18 / 20;61524;2022-10-23 13:38:34:250
-0.9302;2.3139;12.0171;-0.1445;3.2333;9.2572;-0.4961;1.7194;-1.266;-1.6539;0.2924;-0.1808;637.0;-1.18;-27.39;-43.41;204.16;-24.45;-5.41;5.0;991.34;56.84;35.958385;-83.92466;826.43;NaN;;3.89;13.544733;71.9;18 / 20;62025;2022-10-23 13:38:34:751
18.4466;-6.0954;2.8848;9.7551;-0.0657;1.0025;6.5208;-6.9398;0.8354;-0.5382;-3.3363;4.0966;615.0;-12.96;-23.92;-40.24;232.24;-17.87;-37.08;5.0;991.31;58.941;35.958385;-83.92466;826.43;NaN;;3.89;13.544733;71.9;18 / 20;62524;2022-10-23 13:38:35:250
14.7069;-11.9261;-0.8115;6.0434;-6.8767;-3.5155;7.5689;5.4383;5.7254;2.6324;0.9447;-4.1361;547.0;-48.9;7.44;8.16;212.77;44.53;-120.19;5.0;991.33;57.541;35.95836;-83.92466;829.76;NaN;;5.22;13.240024;126.6;18 / 20;63024;2022-10-23 13:38:35:750
8.377;-6.1983;-2.8645;9.0194;3.2747;-2.0241;-3.7415;-8.8154;-1.7478;-0.3133;-0.85;2.272;499.0;-46.86;-21.06;15.68;121.9;-19.51;-102.65;5.0;991.35;56.522;35.95836;-83.92466;829.76;NaN;;5.22;13.240024;126.6;18 / 20;63524;2022-10-23 13:38:36:250
17.3704;-6.355;-0.2958;8.1109;-4.6557;-2.9508;9.0438;-0.4538;2.9623;2.1531;2.3005;-3.7236;471.0;-48.17;-3.49;26.08;196.64;37.78;-129.55;5.0;991.32;55.594;35.958332;-83.92466;830.49;NaN;;5.87;13.649867;145.9;18 / 20;64023;2022-10-23 13:38:36:749
6.4905;-7.4671;-3.3984;8.8661;3.7517;-1.8675;-4.7373;-8.1005;-0.864;0.1539;-0.616;1.0077;585.0;-44.06;-18.75;10.28;131.94;-18.59;-97.59;5.0;991.36;58.269;35.958332;-83.92466;830.49;NaN;;5.87;13.649867;145.9;18 / 20;64523;2022-10-23 13:38:37:249
18.1101;-4.4411;-2.254;6.3046;-6.4244;-3.8923;9.8688;4.926;3.5383;0.5456;1.2007;-1.8124;520.0;-46.2;-5.76;20.25;195.84;41.69;-125.61;5.0;991.36;56.196;35.958305;-83.92467;828.42;NaN;;4.64;13.187499;153.6;17 / 20;65023;2022-10-23 13:38:37:749
2.8394;-6.2677;-2.1763;7.741;5.5824;-2.2549;-3.7131;-10.2296;-0.6703;0.5925;-1.5544;-2.2748;470.0;-34.35;-24.92;9.47;238.14;-34.7;-106.24;5.0;991.35;59.241;35.958305;-83.92467;828.42;NaN;;4.64;13.187499;153.6;17 / 20;65523;2022-10-23 13:38:38:249
19.0247;-0.0395;-2.6336;7.372;-3.5133;-5.4296;6.8388;4.7546;7.6686;0.7278;0.3489;-0.4395;428.0;-30.28;-25.74;15.69;185.56;21.08;-124.05;5.0;991.39;57.282;35.95828;-83.924675;827.79;NaN;;4.72;13.177086;166.3;17 / 20;66023;2022-10-23 13:38:38:749
9.9476;-1.7907;-4.0424;8.1717;5.235;-1.4105;-1.5917;-8.5645;-2.3845;0.227;-0.6181;2.7433;676.0;-37.16;-22.29;4.16;297.49;-32.26;-99.79;5.0;991.35;56.53;35.95828;-83.924675;827.79;NaN;;4.72;13.177086;166.3;17 / 20;66523;2022-10-23 13:38:39:249
16.9717;0.1041;-4.0328;7.0946;-3.4028;-5.8531;4.9484;5.7204;6.5336;-0.5106;0.6063;0.1525;619.0;-44.47;-15.75;12.32;212.49;20.3;-129.52;5.0;991.39;56.626;35.958252;-83.92468;827.81;NaN;;5.18;13.105374;161.9;16 / 20;67025;2022-10-23 13:38:39:751
5.656;-7.6265;-4.5428;7.6681;5.4344;-2.7995;-3.8701;-9.9238;-1.3422;0.0428;-0.8282;1.3223;681.0;-32.38;-28.93;4.43;190.33;-26.25;-100.94;5.0;991.34;58.022;35.958252;-83.92468;827.81;NaN;;5.18;13.105374;161.9;16 / 20;67524;2022-10-23 13:38:40:250
18.807;-0.1926;-0.7146;7.1893;-4.0765;-5.2789;4.9916;7.488;4.2457;-1.2138;-0.1158;1.0854;486.0;-25.31;-30.0;11.68;178.92;14.61;-114.24;5.0;991.39;57.291;35.958233;-83.92468;827.04;NaN;;4.64;12.944798;157.8;16 / 20;68025;2022-10-23 13:38:40:751
5.857;-7.3834;-3.4403;7.7082;5.3834;-2.788;-3.9152;-9.9618;-0.5508;0.3959;-0.8259;0.946;653.0;-28.86;-27.73;11.12;160.59;-24.73;-102.55;5.0;991.36;59.341;35.958233;-83.92468;827.04;NaN;;4.64;12.944798;157.8;16 / 20;68523;2022-10-23 13:38:41:249
18.4932;-1.7812;-1.4617;6.9173;-4.8185;-5.0104;6.3699;8.901;2.6693;0.3942;1.1223;-2.6369;593.0;-31.29;-20.81;18.47;185.75;29.43;-125.92;5.0;991.43;57.459;35.958206;-83.92468;827.24;NaN;;4.75;13.129467;150.0;15 / 20;69024;2022-10-23 13:38:41:750
6.2569;-5.2609;-4.1692;7.6852;5.2232;-3.1347;-4.1362;-9.7491;-0.0996;0.3745;-0.9073;0.3367;502.0;-24.69;-28.56;11.19;175.75;-32.18;-112.19;5.0;991.36;60.709;35.958206;-83.92468;827.24;NaN;;4.75;13.129467;150.0;15 / 20;69524;2022-10-23 13:38:42:250
15.9553;-3.1675;-2.1165;8.135;-3.8982;-3.8465;8.8712;3.9923;1.2326;0.0327;0.8339;-1.5906;452.0;-26.78;-27.28;12.51;182.54;23.86;-118.83;5.0;991.41;58.64;35.958187;-83.92468;827.58;NaN;;4.64;12.907516;148.9;15 / 20;70024;2022-10-23 13:38:42:750
6.7131;-5.4742;-4.1225;8.5464;4.0832;-2.541;-3.8776;-7.9622;-0.6402;-0.1647;-0.5953;0.1367;456.0;-27.94;-20.61;-1.63;208.31;-14.99;-100.66;5.0;991.4;60.425;35.958187;-83.92468;827.58;NaN;;4.64;12.907516;148.9;15 / 20;70524;2022-10-23 13:38:43:250
17.6985;-2.0554;-2.5101;7.1836;-4.6842;-4.7566;8.0155;4.3962;5.2793;0.7482;0.7287;-1.1179;401.0;-26.72;-5.55;-8.19;236.81;28.03;-122.68;5.0;991.42;57.156;35.958168;-83.92468;828.71;NaN;;5.15;12.730033;152.2;15 / 20;71024;2022-10-23 13:38:43:750
4.9487;-6.2079;-3.2154;7.9932;4.9427;-2.8017;-3.1928;-9.3301;-0.5989;0.6488;-0.7925;-1.1441;544.0;-30.56;-8.7;-4.37;294.2;-30.27;-109.32;5.0;991.37;60.933;35.958168;-83.92468;828.71;NaN;;5.15;12.730033;152.2;15 / 20;71524;2022-10-23 13:38:44:250
16.4127;-4.1883;1.2233;7.3493;-4.2323;-4.924;5.8023;4.9095;6.1738;0.4033;0.2905;-0.5101;481.0;-36.15;-0.62;7.88;216.82;26.54;-122.01;5.0;991.39;57.849;35.958153;-83.92468;826.91;NaN;;4.72;12.664423;149.5;14 / 20;72024;2022-10-23 13:38:44:750
13.4381;-2.077;-3.8833;8.4197;4.6552;-1.8995;-4.8131;-10.3209;-1.4931;-0.9756;-0.7297;3.3909;665.0;-52.27;-4.93;3.28;336.92;-28.34;-102.71;5.0;991.41;60.222;35.958153;-83.92468;826.91;NaN;;4.72;12.664423;149.5;14 / 20;72523;2022-10-23 13:38:45:249
15.8752;-3.2931;-0.4573;7.5431;-4.0306;-4.7986;5.6958;5.9597;5.803;0.631;0.2365;-0.1802;524.0;-70.65;3.71;4.22;237.82;24.27;-122.46;5.0;991.42;58.904;35.95813;-83.92469;827.02;NaN;;4.79;12.600507;150.1;14 / 20;73023;2022-10-23 13:38:45:749
12.7128;-4.0842;-3.0715;8.7084;2.9398;-3.4193;-4.7751;-10.2874;1.3827;-0.7316;0.352;4.1241;533.0;-61.05;-23.68;-11.92;270.54;-23.85;-106.72;5.0;991.41;60.123;35.95813;-83.92469;827.02;NaN;;4.79;12.600507;150.1;14 / 20;73524;2022-10-23 13:38:46:250
18.9159;-8.9276;-0.352;5.5173;-6.1977;-5.2267;8.864;8.1292;8.0055;0.4393;0.5601;-0.7022;379.0;-59.64;-2.51;-8.78;232.74;37.36;-122.36;5.0;991.44;60.457;35.95811;-83.9247;814.22;NaN;;3.56;12.249858;159.9;14 / 20;74023;2022-10-23 13:38:46:749
5.0396;-6.4558;-4.4231;7.9455;4.9534;-2.916;-5.5358;-10.6035;0.6819;0.4407;-0.5531;2.1011;591.0;-51.97;-8.72;-14.49;294.79;-27.55;-106.88;5.0;991.39;59.157;35.95811;-83.9247;814.22;NaN;;3.56;12.249858;159.9;14 / 20;74523;2022-10-23 13:38:47:249
16.6558;-5.0671;1.5383;6.4505;-5.3163;-5.1281;7.3401;5.7351;9.276;2.2782;1.1896;-2.8992;471.0;-55.95;7.2;-10.39;251.22;32.83;-128.48;5.0;991.42;57.918;35.958096;-83.924706;813.43;NaN;;4.25;12.226105;157.9;15 / 20;75024;2022-10-23 13:38:47:750
13.1578;0.2898;-3.5767;7.8283;4.8243;-3.4079;-5.2129;-11.1126;-0.024;-0.0781;-0.9295;1.1065;651.0;-49.74;-10.58;-20.74;282.72;-29.47;-113.52;5.0;991.38;60.32;35.958096;-83.924706;813.43;NaN;;4.25;12.226105;157.9;15 / 20;75524;2022-10-23 13:38:48:250
16.0394;-1.4234;-1.5191;8.8944;-2.6905;-3.1337;7.0714;2.259;2.2755;1.1085;0.4132;-1.2041;455.0;-51.99;-10.61;-17.83;240.64;14.42;-113.12;5.0;991.42;59.317;35.95808;-83.924706;812.78;NaN;;4.21;12.226105;151.9;15 / 20;76024;2022-10-23 13:38:48:750
7.4671;-3.7265;-2.9423;9.2475;2.2838;-2.332;-3.178;-6.2894;-1.4498;-0.4846;-0.5098;0.7165;407.0;-50.49;-1.59;-24.07;279.83;-9.64;-99.91;5.0;991.39;60.2;35.95808;-83.924706;812.78;NaN;;4.21;12.226105;151.9;15 / 20;76524;2022-10-23 13:38:49:250
16.025;-7.4109;-0.1424;8.2069;-3.5993;-3.9828;11.2854;1.2724;5.2042;-0.1895;2.3833;-2.3764;365.0;-50.19;19.03;-14.02;265.82;30.62;-118.46;5.0;991.45;60.671;35.958065;-83.92471;809.25;NaN;;4.54;12.226105;172.0;15 / 20;77024;2022-10-23 13:38:49:750
12.9114;-0.4442;-2.3103;8.6604;4.0783;-2.1297;-5.1763;-8.2676;-1.0836;-0.1554;-0.6627;0.3993;503.0;-44.64;-11.34;-15.77;284.06;-24.57;-103.82;5.0;991.39;60.096;35.958065;-83.92471;809.25;NaN;;4.54;12.226105;172.0;15 / 20;77523;2022-10-23 13:38:50:249
15.7591;-0.984;0.0311;8.4408;-3.145;-3.8771;7.8524;3.4219;4.2677;-0.2897;1.1484;-0.7583;476.0;-45.3;-6.92;-12.52;239.57;19.43;-115.47;5.0;991.43;59.35;35.95805;-83.92471;808.79;NaN;;4.64;12.226105;147.3;16 / 20;78024;2022-10-23 13:38:50:750
6.4822;-3.8641;-3.8007;8.1372;4.8559;-2.5253;-3.5447;-8.1648;-1.4478;-1.4523;-0.0126;3.3817;1040.0;-31.14;-12.79;-9.56;275.78;-29.68;-107.24;5.0;991.38;60.993;35.95805;-83.92471;808.79;NaN;;4.64;12.226105;147.3;16 / 20;78524;2022-10-23 13:38:51:250
14.3492;-4.416;-1.0762;7.6177;-4.4319;-4.3012;7.3529;6.9418;3.4204;0.724;0.4849;-0.9034;1108.0;-31.07;-9.96;-5.16;224.4;26.87;-119.45;5.0;991.42;60.217;35.958035;-83.92471;807.78;NaN;;4.46;12.226105;159.6;16 / 20;79024;2022-10-23 13:38:51:750
6.5982;-5.9124;-4.0615;8.7539;3.3653;-2.8661;-2.474;-8.2984;0.3143;-0.3967;-0.6931;2.1645;1955.0;-18.77;-13.07;4.07;194.73;-21.64;-105.72;5.0;991.41;59.843;35.958035;-83.92471;807.78;NaN;;4.46;12.226105;159.6;16 / 20;79524;2022-10-23 13:38:52:250
16.0191;1.0714;-5.0061;6.6555;-5.6038;-4.5247;5.6277;8.4525;3.8898;0.1417;-0.0676;0.1432;2216.0;-15.66;-5.89;9.58;170.84;26.29;-115.3;5.0;991.44;61.735;35.958015;-83.92471;809.91;NaN;;4.86;12.226105;183.1;16 / 20;80024;2022-10-23 13:38:52:750
4.9475;-5.2633;-3.3577;7.1895;4.4497;-4.9681;-3.2269;-8.9563;1.8912;1.1724;-1.6763;0.5999;2136.0;-17.4;-10.58;12.34;108.4;-23.03;-103.5;5.0;991.41;60.482;35.958015;-83.92471;809.91;NaN;;4.86;12.226105;183.1;16 / 20;80524;2022-10-23 13:38:53:250
18.565;-2.1021;-1.6914;7.5044;-4.7891;-4.1132;5.064;6.8406;2.4278;-0.2033;0.6365;-1.4721;3085.0;-18.24;-6.47;18.53;155.29;29.23;-118.73;5.0;991.43;56.895;35.958;-83.92471;811.02;NaN;;4.46;12.226105;175.6;15 / 20;81023;2022-10-23 13:38:53:749
7.2278;-5.6166;-4.3705;8.2906;4.0731;-3.2934;-4.0373;-8.4305;-0.1079;-0.3467;-0.5563;0.0786;9275.0;-27.97;-15.22;10.67;185.67;-24.54;-111.67;5.0;991.44;58.186;35.958;-83.92471;811.02;NaN;;4.46;12.226105;175.6;15 / 20;81523;2022-10-23 13:38:54:249
17.8995;0.7672;-3.7026;8.8373;-2.2934;-3.5795;5.172;3.0142;2.2137;0.4642;0.0143;-0.0934;5326.0;-34.52;-21.45;10.88;186.4;10.89;-112.28;5.0;991.4;57.592;35.957985;-83.92471;812.75;NaN;;4.43;12.226105;174.9;15 / 20;82023;2022-10-23 13:38:54:749
12.2303;-3.7636;-2.1057;8.7637;2.7297;-3.4521;-2.8658;-6.0696;-0.7385;-0.52;-0.172;0.5766;4683.0;-39.43;-21.58;6.26;188.68;-11.53;-101.78;5.0;991.43;57.383;35.957985;-83.92471;812.75;NaN;;4.43;12.226105;174.9;15 / 20;82524;2022-10-23 13:38:55:250
16.4928;1.5861;-4.2437;7.7089;-4.5324;-4.025;7.9462;4.2271;1.5995;-0.3498;0.4155;-0.7759;3839.0;-44.1;-13.18;4.88;207.67;26.02;-117.18;5.0;991.43;55.799;35.95797;-83.92471;817.4;NaN;;4.9;12.226105;203.3;15 / 20;83024;2022-10-23 13:38:55:750
8.7362;-7.8826;-5.1891;8.8932;3.3642;-2.401;-1.2426;-8.9176;-0.1349;0.0312;-0.329;0.1041;3796.0;-35.1;-27.58;0.56;209.16;-20.06;-105.11;5.0;991.42;58.92;35.95797;-83.92471;817.4;NaN;;4.9;12.226105;203.3;15 / 20;83525;2022-10-23 13:38:56:251
14.1443;-2.2457;-2.0865;6.6798;-6.1635;-3.6827;4.9936;4.7139;0.9601;-0.8531;0.7959;-0.3054;2924.0;-36.13;-21.66;6.28;197.09;39.7;-118.62;5.0;991.42;57.169;35.957947;-83.92471;813.84;NaN;;5.15;12.226105;174.0;15 / 20;84024;2022-10-23 13:38:56:750
5.0396;-5.6608;-1.9235;8.6127;4.3668;-1.7094;-1.998;-11.3547;-0.9054;-0.0341;-0.5837;2.6744;4160.0;-33.17;-22.82;9.84;147.5;-26.44;-101.23;5.0;991.38;57.73;35.957947;-83.92471;813.84;NaN;;5.15;12.226105;174.0;15 / 20;84524;2022-10-23 13:38:57:250
15.9218;2.3653;-3.9275;7.1752;-5.2328;-4.1599;4.9583;5.2974;2.395;-0.4457;-0.0221;0.8091;3772.0;-37.12;-22.93;15.09;187.84;32.25;-120.1;5.0;991.39;59.229;35.957935;-83.924706;817.96;NaN;;4.64;12.226105;156.9;15 / 20;85024;2022-10-23 13:38:57:750
8.074;-4.5727;-1.445;9.3615;2.9013;-0.3406;-1.6079;-7.234;-1.4959;1.135;-0.5937;0.1581;3913.0;-37.07;-27.77;5.93;163.54;-17.21;-92.08;5.0;991.39;57.404;35.957935;-83.924706;817.96;NaN;;4.64;12.226105;156.9;15 / 20;85523;2022-10-23 13:38:58:249
16.0286;1.2281;-5.6584;8.4641;-3.7885;-3.19;1.2478;1.8929;1.5391;1.3158;-1.319;1.9234;3920.0;-34.39;-32.93;8.98;180.24;7.26;-105.08;5.0;991.36;57.537;35.95792;-83.9247;816.99;NaN;;4.5;12.226105;150.2;15 / 20;86023;2022-10-23 13:38:58:749
6.8243;-5.5639;-1.6914;9.0806;3.6697;-0.4957;-2.1923;-9.3974;-1.3507;1.3491;0.4478;-2.6079;3794.0;-39.56;-15.81;16.39;153.04;4.48;-98.68;5.0;991.39;58.489;35.95792;-83.9247;816.99;NaN;;4.5;12.226105;150.2;15 / 20;86524;2022-10-23 13:38:59:250
13.7121;1.8852;0.7588;9.0551;-2.5;-2.8153;3.0825;1.7051;1.6336;-0.4574;-0.4527;1.5828;3818.0;-22.99;-32.25;15.41;168.75;14.77;-107.27;5.0;991.36;59.655;35.95791;-83.92468;816.75;NaN;;4.28;12.226105;149.3;15 / 20;87024;2022-10-23 13:38:59:750
3.5324;-5.7864;-2.5654;9.0198;3.4305;-1.7452;-1.9484;-8.2252;-1.8991;0.9335;-0.3932;-2.4952;3842.0;-32.76;-22.41;9.68;157.6;-20.48;-100.95;5.0;991.36;57.829;35.95791;-83.92468;816.75;NaN;;4.28;12.226105;149.3;15 / 20;87525;2022-10-23 13:39:00:251
13.3639;2.0614;0.0562;6.8344;-5.183;-4.7537;6.2858;7.3511;3.6689;-0.7202;-0.2111;0.9495;3794.0;-31.88;-21.79;13.91;190.44;31.91;-124.82;5.0;991.35;59.007;35.957897;-83.924675;822.49;NaN;;4.39;12.226105;147.9;15 / 20;88023;2022-10-23 13:39:00:749
4.3262;-4.3705;-3.0571;8.6624;3.9396;-2.3693;-1.8996;-8.8982;-0.6432;1.7576;-0.6987;-2.8029;4045.0;-36.07;-17.18;12.13;157.51;1.68;-97.06;5.0;991.35;57.938;35.957897;-83.924675;822.49;NaN;;4.39;12.226105;147.9;15 / 20;88524;2022-10-23 13:39:01:250
14.9943;1.3418;0.5662;6.9799;-5.0308;-4.7055;6.295;5.5323;4.076;-1.0861;-0.77;1.7764;4075.0;-29.59;-24.92;19.07;167.0;16.84;-109.59;5.0;991.37;57.817;35.957886;-83.92466;830.14;NaN;;4.39;12.226105;141.2;14 / 20;89023;2022-10-23 13:39:01:749
3.4271;-6.3191;-2.9806;9.2926;2.5461;-1.8263;0.9476;-8.4404;-1.4083;1.5435;-0.188;-3.4617;4240.0;-38.46;-18.21;14.55;133.25;-15.05;-101.12;5.0;991.36;58.551;35.957886;-83.92466;830.14;NaN;;4.39;12.226105;141.2;14 / 20;89523;2022-10-23 13:39:02:249
13.9684;2.2887;0.7361;6.5343;-5.6147;-4.6849;8.2106;6.0907;2.873;-1.7171;-0.1662;2.2426;3862.0;-31.63;-27.71;20.63;167.76;17.13;-110.91;5.0;991.35;57.46;35.957874;-83.92464;827.21;NaN;;4.46;12.226105;140.8;14 / 20;90023;2022-10-23 13:39:02:749
4.9056;-5.7087;-3.1029;9.1507;2.9517;-1.9295;0.8045;-9.0447;-1.8035;-0.1156;-0.3653;-0.2128;4063.0;-41.18;-16.59;16.65;110.65;-17.52;-101.91;5.0;991.37;59.124;35.957874;-83.92464;827.21;NaN;;4.46;12.226105;140.8;14 / 20;90524;2022-10-23 13:39:03:250
15.1008;1.6579;0.5518;7.0865;-5.4006;-4.0969;7.4888;5.5705;1.5083;-1.2787;-0.522;2.3817;3606.0;-34.16;-26.32;21.83;177.36;33.42;-120.03;5.0;991.35;59.133;35.957867;-83.92462;827.2;NaN;;4.46;12.226105;136.3;15 / 19;91024;2022-10-23 13:39:03:750
6.6329;-4.8864;-2.5678;7.9315;5.4307;-1.9413;-2.5647;-9.9733;-0.6383;0.501;-0.1944;-1.4631;3383.0;-38.1;-24.02;15.49;66.29;-33.63;-103.75;5.0;991.36;59.722;35.957867;-83.92462;827.2;NaN;;4.46;12.226105;136.3;15 / 19;91525;2022-10-23 13:39:04:251
15.6538;0.4454;3.5504;8.5636;-2.6134;-4.0007;4.8641;4.2763;2.1789;-2.7085;-0.8344;2.9524;3532.0;-25.72;-37.44;18.04;165.02;-5.07;-107.88;5.0;991.35;58.872;35.95786;-83.92461;827.72;NaN;;4.39;12.226105;129.1;15 / 20;92025;2022-10-23 13:39:04:751
3.2118;-4.1704;-3.7373;7.2695;5.9596;-2.7942;-1.4381;-10.7369;-0.7654;1.722;-0.7277;-2.3518;2720.0;-39.45;-23.66;6.66;159.94;-11.99;-92.06;5.0;991.31;58.236;35.95786;-83.92461;827.72;NaN;;4.39;12.226105;129.1;15 / 20;92523;2022-10-23 13:39:05:249
13.1112;3.4092;0.6799;8.3872;-2.9451;-4.1415;5.9422;2.2513;1.6115;-1.0516;0.2354;0.8291;2774.0;-25.22;-26.87;21.15;167.59;17.48;-116.28;5.0;991.35;59.733;35.957848;-83.92459;828.96;NaN;;5.04;12.226105;151.3;15 / 20;93023;2022-10-23 13:39:05:749
2.2612;-5.7087;-4.4841;8.4318;4.6111;-1.9529;0.5738;-10.1466;-1.4707;2.0722;-0.7407;-3.1883;1749.0;-37.46;-20.85;13.91;91.08;-28.05;-103.04;5.0;991.34;58.503;35.957848;-83.92459;828.96;NaN;;5.04;12.226105;151.3;15 / 20;93523;2022-10-23 13:39:06:249
14.7918;5.1461;-2.2576;6.6587;-5.761;-4.3178;8.7946;9.2912;3.7823;1.3635;-0.2604;0.3328;1707.0;-24.36;-30.88;22.86;164.9;17.23;-115.35;5.0;991.36;58.168;35.95784;-83.92458;826.27;NaN;;4.72;12.226105;134.8;16 / 20;94023;2022-10-23 13:39:06:749
6.9488;-0.5542;-2.7449;7.8634;5.1076;-2.8721;6.0513;-7.9002;0.4228;-0.283;0.7694;-4.4614;871.0;-35.62;-15.3;24.02;142.57;-0.78;-108.9;5.0;991.36;58.247;35.95784;-83.92458;826.27;NaN;;4.72;12.226105;134.8;16 / 20;94525;2022-10-23 13:39:07:251
0.874;4.8051;8.1194;1.2662;4.3227;8.711;-1.309;0.1129;-1.2705;0.0866;0.1711;0.3702;1713.0;-9.15;-42.73;-10.71;168.39;-26.98;-11.16;5.0;991.31;58.878;35.957832;-83.92457;825.25;NaN;;4.79;12.226105;150.6;16 / 20;95025;2022-10-23 13:39:07:751
0.0586;4.3394;7.8706;1.2539;3.7501;8.9741;-0.3587;-0.3334;-1.781;0.193;-0.059;0.1913;2915.0;-10.87;-40.86;-25.28;165.04;-22.48;-7.95;5.0;991.31;58.043;35.957832;-83.92457;825.25;NaN;;4.79;12.226105;150.6;16 / 20;95523;2022-10-23 13:39:08:249
2.7604;4.0938;5.6596;4.7146;4.421;7.3755;-2.4626;0.977;-3.1532;-2.1161;-1.0772;-0.7559;2635.0;-12.34;-42.39;-20.66;175.15;-28.42;-24.62;5.0;991.29;56.792;35.95782;-83.92455;823.57;NaN;;4.54;12.226105;144.6;16 / 20;96023;2022-10-23 13:39:08:749
-2.5172;-0.6751;-4.4853;6.2733;6.2875;4.1573;4.1648;-2.262;-2.1151;4.2191;-0.2767;-0.2821;2214.0;-10.14;-36.62;-20.61;217.5;-39.88;-56.47;5.0;991.28;58.619;35.95782;-83.92455;823.57;NaN;;4.54;12.226105;144.6;16 / 20;96524;2022-10-23 13:39:09:250
13.6116;-0.3054;4.5308;8.7473;-1.5235;-4.1634;8.1826;-1.0371;3.7849;-4.4376;-0.9315;3.8444;1809.0;-4.44;-26.7;16.18;155.79;8.94;-115.45;5.0;991.38;59.257;35.957813;-83.92454;825.33;NaN;;4.46;12.226105;146.0;16 / 20;97023;2022-10-23 13:39:09:749
7.4791;-4.1369;-4.2401;9.2111;3.3511;0.3099;-0.9479;-7.8075;-4.6779;1.7218;0.1324;-2.666;886.0;-34.69;-13.13;-2.04;253.65;-19.98;-88.07;5.0;991.31;58.938;35.957813;-83.92454;825.33;NaN;;4.46;12.226105;146.0;16 / 20;97525;2022-10-23 13:39:10:251
12.6132;-0.3808;0.8067;9.2682;-1.6005;-2.7764;3.0234;-0.2184;1.4835;-2.9411;-0.665;3.0797;887.0;-27.79;-28.18;7.01;174.47;-13.77;-100.13;5.0;991.36;59.622;35.957806;-83.92452;829.79;NaN;;4.39;12.226105;154.2;15 / 20;98023;2022-10-23 13:39:10:749
6.2031;-3.2572;-3.5838;9.2784;2.8074;-1.4833;0.3435;-7.1683;-2.2582;1.1118;0.7403;-3.1702;589.0;-41.12;-9.99;9.28;185.23;9.79;-104.5;5.0;991.32;58.989;35.957806;-83.92452;829.79;NaN;;4.39;12.226105;154.2;15 / 20;98523;2022-10-23 13:39:11:249
12.5522;-0.9948;0.1424;9.1167;-1.0375;-3.4613;3.5884;-3.1059;-0.7407;-1.9828;-0.697;2.4403;458.0;-30.97;-30.71;17.53;170.44;6.07;-110.79;5.0;991.36;57.572;35.957794;-83.924515;828.97;NaN;;4.25;12.226105;141.7;15 / 20;99024;2022-10-23 13:39:11:750
8.231;-5.9794;-3.408;9.6741;1.1158;-1.1564;2.5161;-8.4877;-1.8325;3.1675;0.4318;-4.1157;397.0;-43.27;-15.34;11.38;149.55;-6.53;-96.82;5.0;991.32;58.102;35.957794;-83.924515;828.97;NaN;;4.25;12.226105;141.7;15 / 20;99524;2022-10-23 13:39:12:250
11.8926;-2.4861;-2.2074;8.3015;-3.8278;-3.5501;3.6778;1.2095;1.5242;-2.7374;0.0409;3.0313;462.0;-26.64;-34.97;17.1;169.87;3.01;-110.37;5.0;991.35;58.843;35.957783;-83.92451;829.9;NaN;;4.25;12.226105;146.9;15 / 20;100024;2022-10-23 13:39:12:750
8.4847;-5.5364;-2.9614;9.6181;-1.0961;-1.5685;4.7405;-5.4016;-0.0246;2.9244;1.1525;-4.0695;383.0;-43.69;-11.66;10.35;170.67;6.42;-99.26;5.0;991.33;58.879;35.957783;-83.92451;829.9;NaN;;4.25;12.226105;146.9;15 / 20;100523;2022-10-23 13:39:13:249
15.527;-1.2269;-0.6105;8.6669;-3.0789;-3.4022;2.5521;-0.1971;0.9327;-2.6667;0.3035;4.1802;445.0;-24.56;-29.19;17.64;160.64;-7.24;-109.15;5.0;991.32;59.59;35.957775;-83.9245;831.04;NaN;;4.25;12.226105;145.9;15 / 20;101024;2022-10-23 13:39:13:750
7.034;-4.416;-1.9693;9.3969;-1.1676;-2.5507;6.0529;-4.9159;0.0205;1.0117;0.8595;-3.8655;337.0;-35.96;-11.74;15.88;160.04;6.84;-105.19;5.0;991.33;57.701;35.957775;-83.9245;831.04;NaN;;4.25;12.226105;145.9;15 / 20;101524;2022-10-23 13:39:14:250
13.6762;-3.5001;-1.7955;8.8716;-2.4502;-3.3855;3.1473;-2.239;-0.6627;-2.7638;0.1226;4.3299;534.0;-26.94;-26.66;17.68;156.88;-12.25;-108.64;5.0;991.34;57.372;35.957767;-83.92448;832.79;NaN;;4.21;12.226105;149.2;15 / 20;102024;2022-10-23 13:39:14:750
8.7613;-5.7924;-2.5534;9.7286;0.2691;-1.2054;0.9344;-6.8677;-1.3201;1.8378;1.0742;-3.7995;570.0;-39.71;-3.49;15.06;184.52;23.73;-112.67;5.0;991.33;57.913;35.957767;-83.92448;832.79;NaN;;4.21;12.226105;149.2;15 / 20;102524;2022-10-23 13:39:15:250
11.1661;-2.3462;-2.7784;9.3761;-1.0809;-2.663;0.9704;-3.8113;-2.048;-1.4379;0.4375;3.8398;1329.0;-34.99;-26.94;15.08;171.08;6.33;-105.86;5.0;991.3;57.606;35.95776;-83.92447;835.92;NaN;;4.25;12.226105;148.6;16 / 20;103024;2022-10-23 13:39:15:750
13.159;-7.3582;-0.437;9.6809;-1.5098;-0.414;3.6174;-5.7715;0.0785;3.0155;1.4437;-3.1556;1206.0;-45.47;-3.84;12.41;137.42;8.86;-92.45;5.0;991.3;57.788;35.95776;-83.92447;835.92;NaN;;4.25;12.226105;148.6;16 / 20;103523;2022-10-23 13:39:16:249
10.2742;-1.6747;-1.3418;9.4859;-0.9049;-2.317;0.9209;-2.9317;-1.6202;-1.1718;0.159;3.3139;1983.0;-37.86;-23.55;13.58;179.97;-16.77;-110.22;5.0;991.29;58.762;35.957752;-83.92446;837.08;NaN;;4.72;12.226105;149.3;16 / 20;104024;2022-10-23 13:39:16:750
12.0398;-6.9224;-1.7118;9.055;-3.1392;-2.0791;6.3853;-1.1697;1.0225;1.7907;1.246;-3.3684;2375.0;-45.45;-4.74;15.53;195.46;32.03;-119.31;5.0;991.29;58.988;35.957752;-83.92446;837.08;NaN;;4.72;12.226105;149.3;16 / 20;104524;2022-10-23 13:39:17:250
12.7307;-4.0065;-5.2202;9.3633;0.9895;-2.7424;-1.1477;-5.9996;-3.0824;-2.8547;0.0807;3.1796;3159.0;-39.26;-26.14;13.89;173.5;-5.79;-106.32;5.0;991.31;57.387;35.957745;-83.92445;837.44;NaN;;4.36;12.226105;149.6;16 / 20;105023;2022-10-23 13:39:17:749
13.523;-6.8387;-0.8318;8.2795;-3.9762;-3.4367;6.2577;1.7615;4.1504;1.7724;1.8139;-2.218;6145.0;-47.83;-6.56;12.96;193.62;23.92;-112.54;5.0;991.28;56.994;35.957745;-83.92445;837.44;NaN;;4.36;12.226105;149.6;16 / 20;105524;2022-10-23 13:39:18:250
11.1111;-3.2285;-2.3354;9.3334;-1.6192;-2.537;2.2023;-2.7831;-1.8365;-1.2285;-0.6189;3.3707;5273.0;-39.69;-24.11;12.34;177.66;-13.0;-105.92;5.0;991.25;58.65;35.957733;-83.924446;839.28;NaN;;4.86;12.226105;161.9;16 / 20;106023;2022-10-23 13:39:18:749
13.1375;-7.0675;-1.2592;7.5758;-4.9432;-3.7871;7.3417;3.0423;3.1155;0.1943;1.4125;-1.7793;4957.0;-44.87;-8.33;17.29;198.4;33.67;-123.74;5.0;991.24;58.899;35.957733;-83.924446;839.28;NaN;;4.86;12.226105;161.9;16 / 20;106523;2022-10-23 13:39:19:249
13.7013;-4.4363;-6.2019;9.554;0.8431;-2.0445;-0.815;-4.0344;-0.134;-0.2827;-0.4946;3.0368;6049.0;-36.23;-27.04;13.61;156.87;-23.59;-105.31;5.0;991.26;58.276;35.95772;-83.924446;840.22;NaN;;4.79;12.226105;159.4;16 / 20;107023;2022-10-23 13:39:19:749
15.8477;-3.2333;-4.0627;6.2908;-5.8997;-4.6679;10.8999;6.1891;2.161;0.3129;-0.0929;-1.4915;4512.0;-40.54;-6.58;25.01;187.22;36.98;-126.58;5.0;991.26;59.198;35.95772;-83.924446;840.22;NaN;;4.79;12.226105;159.4;16 / 20;107523;2022-10-23 13:39:20:249
10.8547;-3.122;-6.5145;9.2197;1.5643;-2.953;-2.7357;-5.4353;0.7037;0.3007;0.7707;2.886;7485.0;-32.06;-27.11;20.46;155.96;-9.18;-107.76;5.0;991.23;57.156;35.957706;-83.92444;840.73;NaN;;4.36;12.226105;152.2;16 / 20;108025;2022-10-23 13:39:20:751
14.72;-6.7406;-2.959;9.1903;-2.4322;-2.4068;7.2815;-3.3496;0.6012;1.0016;1.5574;-3.4715;5781.0;-40.03;-10.82;19.43;186.9;32.76;-120.6;5.0;991.24;58.01;35.957706;-83.92444;840.73;NaN;;4.36;12.226105;152.2;16 / 20;108524;2022-10-23 13:39:21:250
12.769;-7.5066;-3.6054;8.9989;2.291;-3.153;-2.0868;-9.3972;-0.4508;-2.1688;1.0362;3.7808;7676.0;-32.61;-25.84;17.25;162.91;-13.51;-109.31;5.0;991.22;58.022;35.957695;-83.92442;840.53;NaN;;4.28;12.226105;143.3;16 / 20;109023;2022-10-23 13:39:21:749
18.516;-7.4874;-3.3039;7.6739;-4.4092;-4.2239;9.9864;0.0387;1.4701;1.6108;1.6207;-4.3049;6319.0;-38.32;-0.49;23.93;172.37;26.72;-118.83;5.0;991.24;57.148;35.957695;-83.92442;840.53;NaN;;4.28;12.226105;143.3;16 / 20;109524;2022-10-23 13:39:22:250
13.911;-7.0579;-5.6333;8.1924;3.6723;-3.9459;-3.9798;-9.8071;0.7329;-0.4311;0.0144;2.564;7541.0;-31.91;-21.53;18.51;128.09;-24.69;-111.55;5.0;991.21;57.972;35.957687;-83.924416;840.67;NaN;;4.39;12.226105;153.9;15 / 20;110025;2022-10-23 13:39:22:751
18.5112;-6.7609;0.2297;7.8005;-4.3558;-4.0433;8.9494;2.3108;4.7234;2.0381;2.2927;-2.853;6290.0;-39.73;-8.66;15.92;210.59;32.63;-135.17;5.0;991.24;57.934;35.957687;-83.924416;840.67;NaN;;4.39;12.226105;153.9;15 / 20;110524;2022-10-23 13:39:23:250
14.7224;-4.4028;-3.8186;7.9601;4.2524;-3.8373;-4.7159;-10.6771;0.2685;-1.8535;0.1729;4.8129;7085.0;-31.84;-23.7;12.43;204.2;-25.7;-115.74;5.0;991.23;56.957;35.957676;-83.92441;839.0;NaN;;4.21;12.226105;161.8;15 / 20;111024;2022-10-23 13:39:23:750
17.2711;-10.1593;-2.1858;7.8976;-4.1699;-4.0511;8.7093;2.0462;6.7148;2.3295;2.8327;-2.3417;6686.0;-40.73;-4.29;12.06;200.53;25.16;-117.16;5.0;991.23;58.367;35.957676;-83.92441;839.0;NaN;;4.21;12.226105;161.8;15 / 20;111524;2022-10-23 13:39:24:250
14.4377;-4.6241;-5.5388;9.4891;0.4718;-2.4298;2.1973;-4.4568;-0.3151;-0.694;-0.144;3.7538;6488.0;-35.83;-22.71;13.14;179.57;-26.55;-109.82;5.0;991.22;57.482;35.957664;-83.92441;839.01;NaN;;4.28;12.226105;161.7;15 / 20;112024;2022-10-23 13:39:24:750
13.6176;-4.8721;-0.3999;7.0496;-5.4919;-4.0388;9.5774;4.1289;1.7929;-0.6087;1.1402;-1.5944;4664.0;-44.23;-7.46;20.06;187.86;34.06;-119.81;5.0;991.24;54.927;35.957664;-83.92441;839.01;NaN;;4.28;12.226105;161.7;15 / 20;112523;2022-10-23 13:39:25:249
10.8236;-4.7318;-5.9028;9.4042;1.001;-2.5941;-3.3862;-5.4543;0.0506;-0.7648;0.8231;2.8549;5664.0;-40.69;-25.11;13.33;159.7;-17.62;-102.23;5.0;991.19;58.69;35.957653;-83.9244;835.49;NaN;;4.36;12.226105;169.2;15 / 20;113024;2022-10-23 13:39:25:750
16.5577;-5.7529;0.2058;6.3367;-5.8444;-4.6755;9.6653;5.1594;3.4009;-1.5266;1.2409;-0.1372;4678.0;-46.2;-6.39;13.82;206.75;36.58;-126.42;5.0;991.25;57.622;35.957653;-83.9244;835.49;NaN;;4.36;12.226105;169.2;15 / 20;113524;2022-10-23 13:39:26:250
8.4942;-3.6473;-4.0783;8.8446;2.7316;-3.2375;-3.6906;-8.4333;0.1121;-0.2176;-0.1394;3.0329;5825.0;-33.0;-29.32;9.11;188.95;-16.17;-110.1;5.0;991.21;57.36;35.95764;-83.92439;837.22;NaN;;4.43;12.226105;164.4;15 / 20;114025;2022-10-23 13:39:26:751
17.2543;-8.2202;-0.3437;8.4841;-3.6334;-3.3149;8.0042;0.3246;3.4656;2.8198;1.5759;-3.1949;6036.0;-41.44;-8.55;7.48;220.79;25.46;-129.14;5.0;991.23;57.233;35.95764;-83.92439;837.22;NaN;;4.43;12.226105;164.4;15 / 20;114524;2022-10-23 13:39:27:250
8.4248;-3.9694;-3.8533;7.6188;4.3381;-4.3938;-4.4615;-10.1997;0.2414;0.2853;-0.2463;2.1366;6106.0;-31.28;-21.13;4.14;243.21;-26.25;-119.97;5.0;991.19;57.754;35.957626;-83.924385;836.96;NaN;;4.39;12.226105;157.6;15 / 20;115024;2022-10-23 13:39:27:750
16.1626;0.2429;-1.014;7.4358;-4.5383;-4.5036;9.1467;2.6881;5.6858;1.5586;1.0988;-2.1318;5679.0;-38.32;-3.43;8.46;213.21;27.57;-121.2;5.0;991.23;56.934;35.957626;-83.924385;836.96;NaN;;4.39;12.226105;157.6;15 / 20;115525;2022-10-23 13:39:28:251
8.7147;-5.3219;-2.461;7.7442;4.5687;-3.9146;-3.7676;-10.6649;0.4816;0.3582;-0.4237;0.1544;5871.0;-34.86;-13.76;10.54;115.22;-19.18;-103.47;5.0;991.18;56.968;35.957615;-83.92438;836.39;NaN;;4.46;12.226105;149.8;16 / 20;116024;2022-10-23 13:39:28:750
15.1702;-0.6284;-4.1154;6.7184;-6.0555;-3.7899;9.8461;5.0703;0.6375;-0.1727;1.1987;-2.321;4304.0;-36.17;-5.53;22.14;188.87;40.25;-128.15;5.0;991.22;56.259;35.957615;-83.92438;836.39;NaN;;4.46;12.226105;149.8;16 / 20;116524;2022-10-23 13:39:29:250
9.3826;-3.9311;-4.0089;7.7491;4.5115;-3.971;-6.1943;-11.3084;0.8125;-2.7498;0.2863;4.3144;5911.0;-36.64;-22.87;20.01;139.35;-27.39;-117.13;5.0;991.19;57.332;35.957603;-83.92437;834.71;NaN;;4.43;12.226105;147.8;16 / 20;117024;2022-10-23 13:39:29:750
15.8273;-6.6855;0.0167;6.8753;-4.9863;-4.9028;8.7763;2.7217;6.3301;0.4605;1.161;-0.6573;5391.0;-49.14;-8.04;11.87;211.3;30.56;-125.49;5.0;991.21;58.083;35.957603;-83.92437;834.71;NaN;;4.43;12.226105;147.8;16 / 20;117523;2022-10-23 13:39:30:249
6.9392;-4.7294;-3.5348;8.8577;2.4526;-3.4201;-2.8525;-7.6449;-0.3847;-0.5005;-0.19;2.704;5636.0;-41.38;-18.88;8.21;246.24;-22.03;-107.41;5.0;991.2;56.931;35.957592;-83.92436;834.92;NaN;;4.46;12.226105;153.3;16 / 20;118023;2022-10-23 13:39:30:749
15.5222;0.3425;1.3286;6.1843;-5.4566;-5.3057;7.402;5.9873;4.6161;-1.7328;0.7328;0.6369;4957.0;-39.99;-12.97;13.18;193.74;30.19;-118.73;5.0;991.2;55.854;35.957592;-83.92436;834.92;NaN;;4.46;12.226105;153.3;16 / 20;118523;2022-10-23 13:39:31:249
8.6151;-3.5192;-3.0248;8.4617;3.7897;-3.1951;-3.6236;-9.2304;-0.0013;0.1592;-0.2997;1.6984;5533.0;-37.05;-19.52;11.72;140.85;-22.02;-103.16;5.0;991.17;56.405;35.957584;-83.924355;837.29;NaN;;4.43;12.226105;160.8;16 / 20;119023;2022-10-23 13:39:31:749
14.9752;0.5698;-1.7907;5.8049;-6.1694;-4.9408;9.3032;7.6919;3.0497;-0.8888;-0.2607;0.7371;4579.0;-41.08;-8.68;21.6;195.42;38.98;-130.4;5.0;991.21;56.291;35.957584;-83.924355;837.29;NaN;;4.43;12.226105;160.8;16 / 20;119523;2022-10-23 13:39:32:249
11.0465;-4.2891;-2.1069;7.8259;4.2394;-4.1174;-5.2306;-10.6966;0.2531;0.4459;-0.9386;0.8603;5327.0;-32.79;-25.13;17.55;174.88;-25.61;-117.75;5.0;991.14;58.919;35.957573;-83.92435;838.94;NaN;;4.5;12.226105;153.1;16 / 20;120025;2022-10-23 13:39:32:751
20.1153;-3.7445;-3.4008;5.5419;-6.5722;-4.7184;8.5333;6.7362;1.538;0.5433;1.5719;-2.9828;4525.0;-35.38;-14.06;17.74;193.99;42.08;-130.41;5.0;991.19;55.528;35.957573;-83.92435;838.94;NaN;;4.5;12.226105;153.1;16 / 20;120524;2022-10-23 13:39:33:250
3.2979;-7.806;-2.4718;6.6264;6.0562;-3.9476;-5.0381;-11.8378;1.1144;0.2208;-0.3977;0.2072;5492.0;-28.57;-21.21;18.08;7.76;-38.14;-120.78;5.0;991.16;56.936;35.957565;-83.92434;841.54;NaN;;4.36;12.226105;148.5;16 / 20;121025;2022-10-23 13:39:33:751
14.342;0.9864;0.7134;7.3903;-4.1242;-4.9543;6.7004;4.8554;5.7541;0.6788;0.8165;-0.8021;5084.0;-37.01;-15.79;23.03;182.61;24.87;-123.84;5.0;991.22;56.536;35.957565;-83.92434;841.54;NaN;;4.36;12.226105;148.5;16 / 20;121524;2022-10-23 13:39:34:250
8.3698;-4.2365;-5.9279;8.5931;4.4203;-1.6704;-2.7536;-8.6637;-1.7973;1.1883;-0.3208;-1.2213;4537.0;-38.64;-23.06;15.09;144.83;-9.13;-95.05;5.0;991.17;56.689;35.957554;-83.92433;842.13;NaN;;4.39;12.226105;150.8;16 / 20;122024;2022-10-23 13:39:34:750
16.3708;2.6575;-2.9985;6.3244;-5.4283;-5.1677;11.1063;7.3924;5.268;0.2005;1.1176;-0.5388;4214.0;-31.63;-27.04;15.04;183.42;24.92;-118.93;5.0;991.19;55.958;35.957554;-83.92433;842.13;NaN;;4.39;12.226105;150.8;16 / 20;122525;2022-10-23 13:39:35:251
6.0141;-5.0731;-4.453;8.6463;4.1826;-1.9792;-1.7329;-9.1589;-0.809;-2.2499;0.9444;2.7845;3257.0;-28.46;-23.62;12.88;143.96;-25.25;-102.89;5.0;991.18;58.045;35.957542;-83.92432;843.31;NaN;;4.54;12.226105;141.3;16 / 20;123024;2022-10-23 13:39:35:750
16.8377;-6.3251;1.1157;6.12;-5.5039;-5.3313;10.2424;5.1762;4.4481;-2.7134;2.7642;1.0929;1796.0;-34.78;-11.77;14.1;202.58;34.14;-131.06;5.0;991.18;56.156;35.957542;-83.92432;843.31;NaN;;4.54;12.226105;141.3;16 / 20;123523;2022-10-23 13:39:36:249
8.4595;-4.7533;-1.2353;9.2916;2.716;-1.5684;-4.0519;-8.7764;-2.1888;-0.6047;-0.0647;2.8622;996.0;-37.63;-16.5;9.75;92.68;-22.0;-96.73;5.0;991.17;56.465;35.95753;-83.92431;844.41;NaN;;4.57;12.226105;149.9;16 / 20;124025;2022-10-23 13:39:36:751
12.9281;0.0849;1.6771;6.03;-5.2123;-5.7133;9.6841;5.8149;5.9163;-2.4648;2.3257;0.5435;449.0;-40.48;-14.49;16.35;191.45;29.88;-120.82;5.0;991.2;54.116;35.95753;-83.92431;844.41;NaN;;4.57;12.226105;149.9;16 / 20;124524;2022-10-23 13:39:37:250
9.4125;-2.9662;-2.5666;8.577;4.0677;-2.4616;-4.6294;-10.0937;-1.1029;-0.3694;-0.2498;2.5765;321.0;-37.44;-23.81;8.33;168.76;-25.17;-100.51;5.0;991.14;59.418;35.957523;-83.9243;842.53;NaN;;4.61;12.226105;154.8;16 / 20;125024;2022-10-23 13:39:37:750
14.5621;-0.8776;1.148;6.632;-5.6366;-4.5184;6.2681;5.406;3.8935;-0.8737;-0.2541;0.9701;306.0;-43.78;-10.03;14.44;201.45;35.08;-124.27;5.0;991.15;64.436;35.957523;-83.9243;842.53;NaN;;4.61;12.226105;154.8;16 / 20;125524;2022-10-23 13:39:38:250
5.2119;-4.6744;-3.9168;9.2665;3.062;-0.9622;-1.5532;-8.0402;-3.1864;1.3214;-1.5614;-0.6429;548.0;-42.28;-23.36;6.23;169.28;-18.19;-95.93;5.0;991.1;64.977;35.95751;-83.92429;842.93;NaN;;4.28;12.226105;137.4;16 / 20;126024;2022-10-23 13:39:38:750
14.039;-0.2572;1.1994;7.0093;-4.7781;-4.9203;8.7967;0.8071;8.2281;2.0983;-1.082;-0.6961;829.0;-43.78;-18.71;9.06;204.12;27.7;-122.77;5.0;991.16;60.095;35.95751;-83.92429;842.93;NaN;;4.28;12.226105;137.4;16 / 20;126524;2022-10-23 13:39:39:250
5.4443;-3.6281;-0.2815;9.1643;2.8381;-2.0326;-2.1464;-8.8126;-1.6207;0.0096;-0.3199;-1.1424;969.0;-45.26;-16.01;7.61;222.64;-16.82;-102.51;5.0;991.16;66.765;35.957504;-83.924286;843.76;NaN;;4.5;12.226105;141.3;16 / 20;127024;2022-10-23 13:39:39:750
17.0854;-3.8294;-4.4985;6.3866;-6.3585;-3.8667;10.1739;6.166;1.0614;0.582;0.4823;-1.857;865.0;-44.96;-12.39;15.11;194.98;40.42;-121.19;5.0;991.16;59.826;35.957504;-83.924286;843.76;NaN;;4.5;12.226105;141.3;16 / 20;127524;2022-10-23 13:39:40:250
7.4671;-3.1842;-5.0874;8.8404;3.8429;-1.8026;-3.9592;-9.1141;-0.5974;1.3985;-0.7682;-0.9913;636.0;-40.93;-16.61;14.59;131.12;-8.11;-93.43;5.0;991.13;66.816;35.957497;-83.924286;843.88;NaN;;4.5;12.226105;148.8;16 / 20;128023;2022-10-23 13:39:40:749
14.2017;0.6452;0.9039;6.7248;-5.2856;-4.7969;6.8745;5.4667;4.8347;-1.333;0.8934;0.6002;1751.0;-37.07;-19.86;20.06;176.3;27.93;-115.1;5.0;991.16;60.005;35.957497;-83.924286;843.88;NaN;;4.5;12.226105;148.8;16 / 20;128525;2022-10-23 13:39:41:251
5.8391;-4.733;-3.0811;8.7428;3.7885;-2.3196;-2.0163;-8.5677;-0.4783;0.3502;-0.5034;1.8271;2559.0;-37.12;-20.59;13.05;144.2;-22.73;-104.86;5.0;991.14;64.422;35.957485;-83.92428;843.8;NaN;;4.5;12.226105;142.8;17 / 20;129024;2022-10-23 13:39:41:750
14.5633;0.8501;0.1783;6.5822;-4.9636;-5.3111;7.1115;5.2807;5.4541;-1.5313;0.4549;0.9734;3223.0;-38.31;-14.66;17.42;197.7;30.41;-128.9;5.0;991.15;60.806;35.957485;-83.92428;843.8;NaN;;4.5;12.226105;142.8;17 / 20;129523;2022-10-23 13:39:42:249
5.1544;-5.6369;-3.2512;8.5103;3.8923;-2.9317;-3.798;-10.4399;-0.0377;-0.0323;-0.2462;1.4699;4355.0;-41.1;-13.48;10.76;79.46;-17.86;-100.61;5.0;991.1;68.162;35.957474;-83.92427;844.33;NaN;;4.43;12.226105;150.7;17 / 20;130024;2022-10-23 13:39:42:750
16.6774;-1.4581;-0.947;6.4425;-6.0437;-4.2588;6.7141;7.5013;1.3745;-0.7355;-0.0173;1.0873;3484.0;-36.98;-16.63;19.22;173.53;24.3;-112.09;5.0;991.11;61.925;35.957474;-83.92427;844.33;NaN;;4.43;12.226105;150.7;17 / 20;130524;2022-10-23 13:39:43:250
4.9068;-7.6158;-3.6018;8.2897;4.7087;-2.2977;-4.0931;-10.9781;-0.288;0.7098;-0.5097;0.3495;4690.0;-37.97;-18.64;16.31;120.76;-17.3;-97.98;5.0;991.11;66.057;35.95746;-83.92426;842.63;NaN;;4.64;12.226105;153.9;17 / 20;131025;2022-10-23 13:39:43:751
17.0124;-3.0775;1.2341;5.6452;-6.6377;-4.4993;10.3273;6.6804;2.6653;0.607;0.8165;-1.7706;4386.0;-39.02;-10.26;21.11;192.07;42.6;-128.55;5.0;991.14;55.718;35.95746;-83.92426;842.63;NaN;;4.64;12.226105;153.9;17 / 20;131525;2022-10-23 13:39:44:251
4.617;-9.9739;-1.6316;8.2967;4.674;-2.3427;-3.1331;-11.4768;0.0556;1.6131;-0.4973;-0.9438;4987.0;-41.06;-11.25;15.15;99.39;-11.95;-92.99;5.0;991.11;57.857;35.957447;-83.924255;842.1;NaN;;4.32;12.226105;139.5;18 / 20;132025;2022-10-23 13:39:44:751
21.5767;2.2277;-0.9458;8.2451;-4.5582;-2.7223;9.4844;7.2308;2.2058;1.0646;-0.5395;-2.4141;3655.0;-37.74;-17.33;21.47;169.26;25.92;-110.37;5.0;991.17;51.379;35.957447;-83.924255;842.1;NaN;;4.32;12.226105;139.5;18 / 20;132525;2022-10-23 13:39:45:251
6.7119;-3.0416;-3.8713;7.751;5.4102;-2.6119;-1.8136;-10.2186;-0.235;2.1464;-1.4401;0.0262;4404.0;-34.91;-23.83;15.39;73.09;-33.48;-108.62;5.0;991.11;53.949;35.957436;-83.92425;841.29;NaN;;4.86;12.226105;141.8;18 / 20;133025;2022-10-23 13:39:45:751
15.9135;-0.7361;1.7309;6.5737;-4.435;-5.7695;11.7871;5.4434;5.3642;-1.926;0.488;0.1648;4658.0;-38.38;-14.96;21.11;195.91;26.89;-131.27;5.0;991.13;56.483;35.957436;-83.92425;841.29;NaN;;4.86;12.226105;141.8;18 / 20;133524;2022-10-23 13:39:46:250
7.3534;-3.7851;-1.1587;8.3862;4.3376;-2.6511;-1.5703;-8.4605;-1.5256;0.5083;-0.415;-1.1598;5297.0;-40.37;-16.87;14.14;142.82;-9.68;-99.25;5.0;991.1;58.342;35.957424;-83.92424;841.37;NaN;;4.61;12.226105;152.8;18 / 20;134025;2022-10-23 13:39:46:751
14.6243;0.3066;-1.64;7.0549;-5.2173;-4.3794;6.949;7.2209;1.8851;-1.3452;1.0297;-0.2023;4093.0;-36.66;-17.19;19.29;178.71;29.96;-116.08;5.0;991.12;58.399;35.957424;-83.92424;841.37;NaN;;4.61;12.226105;152.8;18 / 20;134524;2022-10-23 13:39:47:250
5.4215;-7.7797;-3.7074;8.7272;4.0683;-1.8588;-1.8489;-8.6901;-0.9632;-0.5935;-0.1971;3.1699;4629.0;-36.41;-21.47;14.78;114.08;-24.51;-102.02;5.0;991.1;62.827;35.957417;-83.924225;842.31;NaN;;4.68;12.226105;138.5;18 / 20;135023;2022-10-23 13:39:47:749
16.1746;-3.195;0.0491;6.5401;-5.4709;-4.8442;6.8938;7.6932;4.2273;-1.4014;0.7756;0.4933;4396.0;-38.34;-11.25;19.39;192.75;33.91;-126.53;5.0;991.12;54.659;35.957417;-83.924225;842.31;NaN;;4.68;12.226105;138.5;18 / 20;135523;2022-10-23 13:39:48:249
3.6607;-5.1006;-3.469;8.463;4.0179;-2.899;-4.1009;-9.7066;-0.3516;-0.5031;-0.161;1.9313;4529.0;-38.89;-14.51;13.43;68.36;-22.4;-102.42;5.0;991.09;60.814;35.9574;-83.92422;839.52;NaN;;4.68;12.226105;151.1;18 / 20;136024;2022-10-23 13:39:48:750
17.4099;0.0227;0.2716;6.3695;-5.8585;-4.6128;7.2164;6.8199;3.0188;-1.6728;5.0E-4;1.6353;3966.0;-35.64;-15.19;19.24;170.45;24.08;-110.66;5.0;991.11;51.494;35.9574;-83.92422;839.52;NaN;;4.68;12.226105;151.1;18 / 20;136524;2022-10-23 13:39:49:250
2.5726;-6.0153;-3.603;7.3361;5.1619;-3.9632;-3.8246;-10.4546;0.4498;0.045;-0.5681;0.4558;4778.0;-35.48;-18.3;15.15;110.48;-21.71;-101.26;5.0;991.09;67.727;35.957394;-83.9242;838.82;NaN;;4.1;12.226105;136.0;18 / 20;137024;2022-10-23 13:39:49:750
14.5561;-0.2512;3.463;7.1422;-5.1783;-4.2832;5.8689;2.1782;4.527;0.393;0.3947;-0.3875;4732.0;-38.51;-13.84;16.88;189.11;31.87;-120.95;5.0;991.11;49.571;35.957394;-83.9242;838.82;NaN;;4.1;12.226105;136.0;18 / 20;137525;2022-10-23 13:39:50:251
5.0432;-6.4376;-3.2847;9.0988;3.3572;-1.453;-2.1801;-9.2005;-0.4312;1.8384;-0.6286;-2.1067;4998.0;-43.57;-7.46;8.55;137.77;0.51;-92.97;5.0;991.08;68.003;35.957382;-83.924194;838.75;NaN;;4.43;12.226105;144.2;18 / 20;138023;2022-10-23 13:39:50:749
17.7954;-3.3697;3.3996;5.7279;-6.1228;-5.0864;8.5786;6.7381;6.1829;-1.6123;0.6928;0.6688;4330.0;-36.45;-18.99;14.94;182.11;33.32;-114.64;5.0;991.1;59.927;35.957382;-83.924194;838.75;NaN;;4.43;12.226105;144.2;18 / 20;138524;2022-10-23 13:39:51:250
4.3944;-6.3251;-3.6102;8.5916;4.0396;-2.457;-1.0444;-11.3854;-0.9859;1.4541;-1.0646;-2.608;5022.0;-38.57;-11.36;10.84;358.74;-24.33;-105.96;5.0;991.08;68.771;35.95737;-83.92418;838.48;NaN;;4.79;12.226105;139.8;18 / 20;139024;2022-10-23 13:39:51:750
15.5773;1.0499;0.8668;6.9868;-3.8938;-5.6739;8.0616;4.8041;5.8675;-2.1503;0.636;1.3287;4987.0;-33.77;-20.98;16.88;193.61;23.39;-129.08;5.0;991.12;57.411;35.95737;-83.92418;838.48;NaN;;4.79;12.226105;139.8;18 / 20;139523;2022-10-23 13:39:52:249
7.9316;-4.8649;-4.0017;9.1326;3.3734;-1.1774;-2.4333;-7.8683;-1.3098;1.4938;0.5586;-2.0695;5402.0;-42.06;-12.52;7.93;173.93;1.37;-98.79;5.0;991.06;65.562;35.95736;-83.92417;838.68;NaN;;4.61;12.226105;149.4;18 / 20;140024;2022-10-23 13:39:52:750
12.32;-0.0479;0.0407;6.6183;-5.4496;-4.7614;6.0675;4.2873;4.4815;-1.4466;-0.1172;1.6975;4296.0;-36.86;-18.84;14.81;179.58;22.75;-111.72;5.0;991.1;65.886;35.95736;-83.92417;838.68;NaN;;4.61;12.226105;149.4;18 / 20;140524;2022-10-23 13:39:53:250
7.6481;-6.2234;-3.5432;9.7403;1.0619;-0.4121;-0.1832;-7.6119;-1.5022;1.2697;-0.6025;-0.9325;5388.0;-42.97;-7.63;9.56;111.72;-6.22;-92.42;5.0;991.05;69.45;35.957348;-83.92416;838.57;NaN;;5.11;12.226105;148.6;18 / 20;141024;2022-10-23 13:39:53:750
14.3527;-0.1292;0.1974;7.5009;-5.0612;-3.7802;4.8791;1.886;2.6595;-1.3446;-0.8017;2.7867;4507.0;-39.0;-16.59;16.95;183.72;31.07;-116.75;5.0;991.12;60.174;35.957348;-83.92416;838.57;NaN;;5.11;12.226105;148.6;18 / 20;141524;2022-10-23 13:39:54:250
6.0117;-6.463;-3.0945;9.0619;3.2784;-1.8176;-2.2131;-9.5697;-1.1785;0.9525;-0.8227;-1.8435;5152.0;-45.32;-1.67;11.27;113.6;1.72;-94.16;5.0;991.06;66.93;35.957336;-83.92414;837.35;NaN;;4.57;12.226105;142.6;18 / 20;142023;2022-10-23 13:39:54:749
12.0446;-0.0598;-1.0427;6.7819;-6.2343;-3.3631;6.1328;4.0837;0.8506;-1.4396;0.3834;2.5178;3673.0;-40.11;-17.76;15.62;168.29;14.83;-103.97;5.0;991.08;61.378;35.957336;-83.92414;837.35;NaN;;4.57;12.226105;142.6;18 / 20;142525;2022-10-23 13:39:55:251
-0.3485;-8.729;-2.3234;8.5389;4.3376;-2.1077;-0.8965;-12.6374;-0.5893;1.3404;-0.9183;-3.1332;4632.0;-43.57;-5.36;12.88;123.04;3.54;-91.46;5.0;991.03;68.166;35.957325;-83.92413;838.23;NaN;;5.04;12.226105;143.8;17 / 20;143024;2022-10-23 13:39:55:750
16.3875;-0.5806;1.0295;8.5236;-4.4059;-2.0264;4.1682;3.2501;2.2853;-1.0064;0.6864;0.2686;3414.0;-38.64;-18.88;15.17;171.1;26.7;-103.37;5.0;991.07;51.343;35.957325;-83.92413;838.23;NaN;;5.04;12.226105;143.8;17 / 20;143523;2022-10-23 13:39:56:249
4.1477;-5.1604;-2.3737;9.2668;3.1574;-0.5719;-3.0236;-7.9641;-2.321;0.8902;-0.4214;-1.6274;4146.0;-46.57;-7.16;6.19;137.91;1.89;-87.91;5.0;991.08;63.856;35.957314;-83.924126;836.4;NaN;;4.57;12.226105;147.6;16 / 20;144023;2022-10-23 13:39:56:749
13.0549;0.3736;-0.711;7.2526;-5.9441;-2.87;6.0734;7.2174;2.4553;-0.8302;0.1682;0.5352;2920.0;-41.57;-21.39;8.01;183.09;26.32;-103.52;5.0;991.04;53.797;35.957314;-83.924126;836.4;NaN;;4.57;12.226105;147.6;16 / 20;144523;2022-10-23 13:39:57:249
4.975;-4.9355;-2.8669;9.3599;2.9199;-0.194;-3.1295;-6.7701;-1.8922;1.1079;-0.1472;-1.7439;4166.0;-43.57;-13.76;3.51;94.49;-17.32;-91.19;5.0;991.06;58.133;35.957302;-83.92412;835.96;NaN;;4.54;12.226105;147.1;16 / 20;145023;2022-10-23 13:39:57:749
12.1358;0.1304;0.0132;7.4568;-5.348;-3.4592;3.6588;5.501;2.6924;-1.0163;0.1498;0.8378;3269.0;-42.32;-16.12;5.81;198.98;33.05;-114.89;5.0;991.07;53.438;35.957302;-83.92412;835.96;NaN;;4.54;12.226105;147.1;16 / 20;145524;2022-10-23 13:39:58:250
6.0488;-4.2796;-2.6815;9.7929;0.5192;-0.0169;-1.113;-5.082;-1.7616;1.486;0.5321;-2.0946;4254.0;-45.49;-9.39;1.89;163.77;-3.03;-90.1;5.0;991.03;64.838;35.957294;-83.92411;836.93;NaN;;4.68;12.226105;147.4;17 / 20;146023;2022-10-23 13:39:58:749
11.9871;0.486;0.0873;7.8502;-5.012;-3.0701;3.9785;3.4273;2.0362;-0.9506;-0.6474;2.0731;3579.0;-42.11;-19.03;2.46;200.11;30.74;-111.36;5.0;991.06;52.558;35.957294;-83.92411;836.93;NaN;;4.68;12.226105;147.4;17 / 20;146524;2022-10-23 13:39:59:250
6.5396;-4.392;-2.217;9.7956;-0.4313;-0.177;1.1854;-5.9628;-1.2933;1.1948;-0.087;-1.4852;4268.0;-46.07;-3.58;2.74;160.19;2.52;-91.04;5.0;991.02;65.371;35.957283;-83.9241;836.74;NaN;;4.79;12.226105;156.8;17 / 20;147023;2022-10-23 13:39:59:749
13.4788;1.6507;-1.0367;8.5252;-4.1379;-2.5238;1.9516;1.8111;1.0831;-1.2712;-0.5111;2.8443;3694.0;-39.11;-24.86;4.43;183.77;4.92;-98.58;5.0;991.07;50.083;35.957283;-83.9241;836.74;NaN;;4.79;12.226105;156.8;17 / 20;147524;2022-10-23 13:40:00:250
5.0061;-4.7174;-2.1272;9.2173;2.4994;-2.228;-2.9832;-7.3381;-0.0264;-0.0231;0.2178;-1.8148;3979.0;-44.49;-5.48;10.22;183.28;6.46;-103.53;5.0;991.07;65.271;35.95727;-83.924095;835.95;NaN;;4.68;12.226105;157.5;17 / 20;148024;2022-10-23 13:40:00:750
12.2662;1.5251;0.0802;8.5977;-3.3584;-3.3121;2.4894;2.0534;1.775;-1.9705;-0.3673;3.2109;4489.0;-37.31;-21.53;15.49;178.84;20.03;-111.07;5.0;991.08;49.852;35.95727;-83.924095;835.95;NaN;;4.68;12.226105;157.5;17 / 20;148523;2022-10-23 13:40:01:249
4.8386;-4.392;-3.5133;9.221;2.5046;-2.207;-2.3865;-7.6487;-1.0448;1.4096;-0.6705;-1.9095;4925.0;-45.47;-7.59;10.44;165.06;4.21;-98.76;5.0;991.02;63.98;35.95726;-83.92409;835.39;NaN;;4.43;12.226105;164.5;17 / 20;149023;2022-10-23 13:40:01:749
14.7655;-1.6149;0.6428;9.411;-1.7834;-2.1033;0.7604;3.0063;2.1484;-0.2666;0.2716;0.8711;5042.0;-36.92;-27.49;11.93;173.81;10.48;-102.6;5.0;991.08;52.646;35.95726;-83.92409;835.39;NaN;;4.43;12.226105;164.5;17 / 20;149523;2022-10-23 13:40:02:249
7.3307;-4.4447;-2.6755;9.6276;1.6954;-0.7776;-2.5033;-5.4931;-2.7613;0.7706;-0.6053;-1.1331;5296.0;-45.19;-16.26;0.0;204.35;-9.96;-94.62;5.0;991.05;59.933;35.95725;-83.92408;835.45;NaN;;4.82;12.226105;160.2;17 / 20;150024;2022-10-23 13:40:02:750
16.2284;-1.445;-1.8817;7.679;-5.1157;-3.3216;5.9679;4.7506;3.0269;0.8346;-0.0227;-0.2036;5077.0;-44.46;-15.28;3.54;200.8;26.6;-111.38;5.0;991.06;53.379;35.95725;-83.92408;835.45;NaN;;4.82;12.226105;160.2;17 / 20;150524;2022-10-23 13:40:03:250
9.2868;-9.0532;-2.4562;9.5187;2.0651;-1.14;-2.7274;-6.8287;-1.5078;0.269;-0.2349;-0.8576;5620.0;-45.39;-11.17;2.94;180.23;1.86;-93.88;5.0;991.08;64.35;35.95724;-83.92408;833.87;NaN;;4.32;12.226105;159.2;17 / 20;151023;2022-10-23 13:40:03:749
14.6387;-0.3867;-1.7752;7.9385;-4.689;-3.3412;5.9976;3.3239;2.3574;-0.564;0.5297;0.1359;4842.0;-42.37;-17.72;4.56;195.63;24.75;-109.63;5.0;991.07;61.589;35.95724;-83.92408;833.87;NaN;;4.32;12.226105;159.2;17 / 20;151523;2022-10-23 13:40:04:249
11.2834;-4.6325;-1.7991;9.7459;0.8781;-0.6458;-2.766;-3.6597;-0.5536;0.3002;0.0328;-0.504;5849.0;-44.36;-13.97;-0.26;196.2;-5.14;-93.79;5.0;991.06;65.441;35.95723;-83.92407;833.77;NaN;;4.64;12.226105;165.1;16 / 20;152024;2022-10-23 13:40:04:750
12.4852;-1.3633;-2.2205;8.1691;-4.8681;-2.3953;2.9042;2.4046;0.3693;0.5033;-0.4653;1.1477;4013.0;-44.61;-13.37;3.28;196.45;29.76;-106.34;5.0;991.03;57.109;35.95723;-83.92407;833.77;NaN;;4.64;12.226105;165.1;16 / 20;152523;2022-10-23 13:40:05:249
8.3411;-4.1776;-1.914;9.7679;-0.7767;-0.3944;-3.7561;-3.4666;-0.1223;-0.027;-0.0516;-0.8366;5039.0;-45.51;-5.72;5.12;161.95;4.54;-92.31;5.0;991.09;66.307;35.957214;-83.92407;832.68;NaN;;4.68;12.226105;164.8;16 / 20;153023;2022-10-23 13:40:05:749
11.9895;-0.9673;-0.425;8.6685;-3.966;-2.3019;0.0174;1.8247;1.1402;-0.6027;-0.9715;2.0489;5012.0;-42.73;-21.28;-0.36;190.08;8.93;-96.5;5.0;991.03;57.817;35.957214;-83.92407;832.68;NaN;;4.68;12.226105;164.8;16 / 20;153523;2022-10-23 13:40:06:249
5.8152;-4.1907;-3.0129;9.5212;2.2859;-0.5399;-3.2423;-6.6352;-2.2348;0.9037;-0.1063;-1.7324;6197.0;-46.01;-6.96;1.09;183.62;7.31;-92.25;5.0;991.04;68.314;35.9572;-83.924065;831.18;NaN;;5.0;12.226105;153.8;17 / 20;154024;2022-10-23 13:40:06:750
11.2475;-0.6846;0.1101;8.5645;-3.6755;-3.0514;2.275;2.7212;1.4998;-1.8115;-0.3607;1.9711;6277.0;-43.18;-21.0;-0.53;204.0;22.01;-109.61;5.0;991.06;56.17;35.9572;-83.924065;831.18;NaN;;5.0;12.226105;153.8;17 / 20;154525;2022-10-23 13:40:07:251
6.8148;-4.4614;-2.0818;9.7369;1.1662;0.0612;-1.4815;-5.252;-3.5954;1.4159;0.0024;-2.0763;7123.0;-45.84;-10.42;-2.72;211.31;-6.83;-89.64;5.0;991.03;62.074;35.95719;-83.924065;830.94;NaN;;4.72;12.226105;160.7;17 / 20;155023;2022-10-23 13:40:07:749
10.9038;-0.8608;-1.4306;8.8113;-3.362;-2.6886;2.132;1.6256;0.6758;-0.2057;-0.4374;1.2774;5517.0;-40.82;-25.2;-1.63;200.7;20.05;-106.97;5.0;991.04;49.242;35.95719;-83.924065;830.94;NaN;;4.72;12.226105;160.7;17 / 20;155523;2022-10-23 13:40:08:249
6.725;-4.7812;-1.3633;9.7749;0.1992;-0.7634;-2.0258;-4.1275;-0.5308;1.6367;0.129;-2.4797;5744.0;-45.9;-9.04;4.78;170.12;-1.16;-94.47;5.0;991.07;57.176;35.95718;-83.92406;830.31;NaN;;4.61;12.226105;151.8;17 / 20;156023;2022-10-23 13:40:08:749
12.909;-1.0941;-0.9362;7.9069;-4.4123;-3.7661;2.5075;2.1982;2.3325;-1.5554;-0.5541;2.2271;5998.0;-41.51;-21.73;2.49;192.73;14.78;-102.57;5.0;991.07;49.026;35.95718;-83.92406;830.31;NaN;;4.61;12.226105;151.8;17 / 20;156525;2022-10-23 13:40:09:251
6.8435;-5.4921;-3.9802;9.7872;-0.3749;0.49;-1.005;-4.6278;-3.1734;2.845;0.4396;-2.7335;8417.0;-45.77;-4.54;-1.07;207.85;22.47;-103.15;5.0;991.0;58.966;35.95717;-83.92405;828.48;NaN;;4.61;12.226105;153.2;17 / 20;157025;2022-10-23 13:40:09:751
12.2542;-0.6416;0.6332;8.7467;-3.539;-2.6723;2.5722;2.9196;2.8947;-0.4923;-0.7446;1.5631;5860.0;-37.86;-25.46;-5.01;199.25;8.82;-98.56;5.0;991.03;50.794;35.95717;-83.92405;828.48;NaN;;4.61;12.226105;153.2;17 / 20;157524;2022-10-23 13:40:10:250
9.3598;-7.2553;-1.8159;9.7957;-0.2852;-0.3643;-2.5955;-3.4901;-1.3709;2.1724;-0.4421;-1.802;6204.0;-44.16;-12.0;-1.22;191.23;1.67;-92.13;5.0;991.02;63.617;35.957157;-83.92405;828.75;NaN;;4.43;12.226105;155.8;17 / 20;158024;2022-10-23 13:40:10:750
14.106;0.0467;0.1675;7.8528;-5.1393;-2.8446;3.815;4.7036;2.1255;-1.3255;0.7414;1.3882;4803.0;-43.48;-14.79;2.63;198.92;31.61;-109.91;5.0;991.04;54.16;35.957157;-83.92405;828.75;NaN;;4.43;12.226105;155.8;17 / 20;158524;2022-10-23 13:40:11:250
6.6497;-2.2026;-2.3545;9.769;0.7771;-0.3642;-1.9336;-5.7526;-1.9379;-0.5651;-0.6887;1.32;5453.0;-44.34;-10.54;0.77;184.89;-4.55;-92.13;5.0;991.06;61.457;35.957146;-83.92404;828.24;NaN;;4.03;12.226105;173.5;17 / 20;159024;2022-10-23 13:40:11:750
13.0334;-0.7014;0.3808;8.8248;-2.8401;-3.198;3.5336;3.644;1.7071;-0.4395;0.3996;0.1302;5469.0;-41.7;-19.65;4.46;197.8;12.91;-108.06;5.0;991.03;51.965;35.957146;-83.92404;828.24;NaN;;4.03;12.226105;173.5;17 / 20;159523;2022-10-23 13:40:12:249
9.0209;-2.3785;-2.4036;9.6559;-0.4001;-1.6655;-1.4785;-3.2801;-1.9064;-1.1443;-0.1116;1.785;5459.0;-41.27;-20.94;9.15;170.45;-5.55;-98.51;5.0;991.03;54.04;35.95713;-83.92404;827.76;NaN;;3.92;12.226105;164.0;15 / 20;160024;2022-10-23 13:40:12:750
13.3065;-0.3114;-0.0766;7.8632;-4.6873;-3.517;5.8269;2.9151;2.9559;-0.6899;0.66;0.1826;5517.0;-45.19;-9.02;6.53;202.52;28.55;-114.1;5.0;991.04;56.718;35.95713;-83.92404;827.76;NaN;;3.92;12.226105;164.0;15 / 20;160523;2022-10-23 13:40:13:249
10.6837;-3.7684;-2.7843;9.7084;-0.503;-1.2903;-1.2877;-3.8871;-1.0423;-0.7899;-0.5073;1.9975;5661.0;-42.49;-16.63;-1.42;193.74;-7.03;-92.56;5.0;991.04;59.107;35.957123;-83.924034;827.81;NaN;;4.14;12.226105;165.2;15 / 20;161023;2022-10-23 13:40:13:749
11.9644;-3.6775;-1.9546;7.912;-4.7912;-3.2581;6.0989;3.6227;-0.1468;-0.0256;0.7871;-1.7285;5016.0;-44.89;-9.73;4.76;202.65;29.25;-112.38;5.0;991.02;55.131;35.957123;-83.924034;827.81;NaN;;4.14;12.226105;165.2;15 / 20;161523;2022-10-23 13:40:14:249
11.5505;-3.0631;-2.9554;9.5522;-0.8983;-2.0295;-0.2007;-4.3988;-1.9393;-0.8815;-0.3334;1.7974;5535.0;-43.26;-18.84;1.33;199.25;5.26;-101.99;5.0;991.02;65.148;35.95711;-83.924034;826.8;NaN;;4.43;12.226105;165.8;15 / 20;162023;2022-10-23 13:40:14:749
16.0765;-2.563;-1.5778;8.1027;-4.7246;-2.8626;6.0205;2.8878;1.1699;-0.3214;0.5314;-0.9879;4942.0;-46.56;-5.16;2.53;208.83;30.15;-111.9;5.0;991.0;62.752;35.95711;-83.924034;826.8;NaN;;4.43;12.226105;165.8;15 / 20;162524;2022-10-23 13:40:15:250
7.107;-2.8932;-2.0052;9.6679;1.0907;1.2297;-1.9345;-5.4221;-2.8957;-0.1073;-0.8967;0.406;10009.0;-43.86;-11.55;-7.8;211.45;-4.15;-86.57;5.0;990.99;62.99;35.9571;-83.92403;826.12;NaN;;4.03;12.226105;161.8;16 / 20;163023;2022-10-23 13:40:15:749
12.9676;-0.0837;0.2381;8.0197;-4.7659;-3.0233;8.5105;1.8257;2.9666;-0.3434;0.9752;-0.6612;8493.0;-45.97;-9.45;-9.94;223.77;26.89;-109.78;5.0;991.01;53.207;35.9571;-83.92403;826.12;NaN;;4.03;12.226105;161.8;16 / 20;163524;2022-10-23 13:40:16:250
13.4405;-1.3753;-4.1584;9.6962;1.4218;0.3638;-3.3378;-6.1603;-2.6223;-0.3283;-0.4823;0.1469;7701.0;-42.52;-14.53;-9.96;224.4;-8.34;-87.85;5.0;991.0;68.025;35.957092;-83.92403;827.21;NaN;;4.14;12.226105;169.7;16 / 20;164024;2022-10-23 13:40:16:750
13.5434;0.6655;-1.8147;8.048;-4.5802;-3.2283;5.1652;2.7098;3.3957;-0.0512;0.9826;0.4179;5420.0;-45.92;-7.24;-0.69;214.82;27.84;-111.86;5.0;991.02;56.203;35.957092;-83.92403;827.21;NaN;;4.14;12.226105;169.7;16 / 20;164524;2022-10-23 13:40:17:250
10.3053;-6.4989;-2.953;9.6015;1.9012;-0.6065;-2.7449;-5.4767;-2.4276;-1.1179;-0.6994;1.3055;7354.0;-44.4;-10.01;-5.61;261.11;-11.18;-93.61;5.0;990.97;58.043;35.957085;-83.92403;827.52;NaN;;4.54;12.226105;180.8;16 / 20;165025;2022-10-23 13:40:17:751
16.2894;0.3724;-0.3066;7.5191;-4.466;-4.4371;2.9922;4.4819;2.9277;-0.6997;-0.1749;1.3245;6672.0;-43.35;-15.22;-3.38;215.47;18.36;-111.94;5.0;990.98;58.341;35.957085;-83.92403;827.52;NaN;;4.54;12.226105;180.8;16 / 20;165523;2022-10-23 13:40:18:249
7.0962;-3.8701;-3.1866;9.2986;3.1039;-0.2675;-2.5627;-7.2011;-2.3064;-0.6049;-0.6993;0.8645;9121.0;-39.94;-16.8;-7.61;237.13;-15.61;-91.07;5.0;990.99;51.761;35.957073;-83.92403;827.18;NaN;;4.39;12.226105;181.3;17 / 20;166024;2022-10-23 13:40:18:750
14.033;-0.5171;0.9805;8.0803;-4.3252;-3.4888;3.8437;4.8402;4.0923;-0.6478;-0.098;0.9075;7444.0;-41.46;-13.84;-6.21;217.74;26.17;-113.35;5.0;990.99;52.992;35.957073;-83.92403;827.18;NaN;;4.39;12.226105;181.3;17 / 20;166524;2022-10-23 13:40:19:250
9.7283;-6.0069;-3.0308;9.6018;1.957;-0.3826;-3.7502;-5.3909;-1.4442;2.3538;-0.6179;0.8018;9586.0;-41.55;-10.41;-9.34;229.9;-5.91;-86.77;5.0;990.95;54.001;35.957066;-83.92403;827.56;NaN;;4.57;12.226105;183.3;17 / 20;167023;2022-10-23 13:40:19:749
9.8734;-1.0917;-1.1252;8.0994;-4.3501;-3.4128;0.5841;2.7888;3.2659;-1.322;0.7325;0.8708;6587.0;-42.13;-13.16;-0.79;211.03;26.33;-112.85;5.0;990.99;51.498;35.957066;-83.92403;827.56;NaN;;4.57;12.226105;183.3;17 / 20;167524;2022-10-23 13:40:20:250
5.1891;-4.0424;-2.2947;9.1071;3.1407;-1.8349;-3.3867;-5.6786;-1.373;0.2994;-0.0625;-1.8683;6600.0;-40.97;-8.49;-0.9;299.95;-18.68;-101.39;5.0;990.96;53.191;35.95705;-83.92403;826.32;NaN;;4.39;12.226105;179.5;17 / 20;168024;2022-10-23 13:40:20:750
12.4373;0.3425;0.0251;8.4597;-3.9803;-2.96;2.0761;3.4995;1.0063;-1.2464;-0.2003;1.5527;5499.0;-40.11;-19.87;1.37;199.98;23.95;-109.28;5.0;990.98;60.736;35.95705;-83.92403;826.32;NaN;;4.39;12.226105;179.5;17 / 20;168523;2022-10-23 13:40:21:249
4.526;-3.2321;-2.1858;9.4658;2.2038;-1.3083;-3.832;-5.6787;-1.1297;2.1016;-0.2101;-2.7224;7328.0;-46.48;-2.91;-1.01;216.04;6.21;-95.95;5.0;990.96;55.699;35.95704;-83.924034;825.25;NaN;;4.79;12.226105;196.7;17 / 20;169024;2022-10-23 13:40:21:750
10.2251;0.8031;-1.6472;9.1497;-2.2888;-2.686;1.6482;3.0794;-0.8689;-0.3544;-0.1282;1.2183;5385.0;-37.67;-25.78;-2.03;200.49;-2.24;-100.93;5.0;990.96;54.105;35.95704;-83.924034;825.25;NaN;;4.79;12.226105;196.7;17 / 20;169524;2022-10-23 13:40:22:250
6.7107;-3.0715;-1.1599;9.761;-0.5443;-0.7732;-1.6233;-2.555;0.1349;-0.032;1.1542;-1.8722;5383.0;-44.91;-9.77;-0.06;203.4;16.88;-102.4;5.0;990.95;53.022;35.957027;-83.924034;823.53;NaN;;5.08;12.226105;169.3;17 / 20;170023;2022-10-23 13:40:22:749
7.9531;-2.0662;0.6236;9.4935;-1.6937;-1.7821;2.4447;-0.044;-0.9526;-1.3946;0.1169;1.215;7149.0;-37.37;-19.74;-7.84;209.73;9.95;-100.63;5.0;990.96;53.723;35.957027;-83.924034;823.53;NaN;;5.08;12.226105;169.3;17 / 20;170523;2022-10-23 13:40:23:249
8.6773;-2.7676;-1.9164;9.6104;-1.813;-0.724;2.1452;-2.13;0.1435;2.1614;-0.8031;-2.9391;9394.0;-39.56;-0.83;-8.83;232.98;23.14;-106.35;5.0;990.97;54.782;35.957016;-83.924034;821.64;NaN;;4.68;12.226105;177.8;17 / 20;171024;2022-10-23 13:40:23:750
8.4715;0.687;-2.0375;9.1837;-1.5236;-3.0836;-1.172;2.5684;0.0959;-1.189;0.2181;1.4207;5883.0;-43.14;-19.74;-5.64;221.47;0.97;-106.94;5.0;990.96;54.646;35.957016;-83.924034;821.64;NaN;;4.68;12.226105;177.8;17 / 20;171524;2022-10-23 13:40:24:250
6.725;-1.5993;-1.6125;9.5471;-1.6744;-1.4896;3.6042;-0.8524;0.9172;1.319;0.1766;-1.7211;6612.0;-50.34;-6.47;-4.56;221.66;9.83;-98.87;5.0;990.96;53.595;35.95701;-83.924034;820.21;NaN;;4.75;12.226105;190.6;17 / 20;172024;2022-10-23 13:40:24:750
10.1043;-1.1372;-1.4246;9.2329;-2.137;-2.5215;3.077;-1.2885;-1.0239;-0.7413;-0.3323;2.3099;10795.0;-45.04;-20.33;-10.95;218.4;12.59;-105.27;5.0;990.94;52.729;35.95701;-83.924034;820.21;NaN;;4.75;12.226105;190.6;17 / 20;172524;2022-10-23 13:40:25:250
9.58;-6.3179;-1.5861;8.347;-4.1206;-3.0852;9.0993;2.2476;2.6119;3.09;1.2824;-3.2473;8341.0;-47.74;3.19;-6.34;235.47;24.85;-110.29;5.0;990.97;54.227;35.956993;-83.92404;821.34;NaN;;5.33;12.226105;201.0;17 / 20;173025;2022-10-23 13:40:25:751
8.9587;0.6559;-1.0798;9.5146;-1.0188;-2.1459;4.2106;-0.7354;-0.6373;-0.4228;-0.9438;0.7939;11683.0;-40.5;-19.16;-10.44;240.41;-11.92;-104.22;5.0;990.98;57.319;35.956993;-83.92404;821.34;NaN;;5.33;12.226105;201.0;17 / 20;173524;2022-10-23 13:40:26:250
8.4356;-2.3641;-1.6149;8.7955;-2.3184;-3.6654;5.5724;2.2688;2.1554;1.1223;1.3984;-1.7741;13073.0;-44.83;0.39;-8.91;250.64;13.67;-112.62;5.0;990.9;59.596;35.956985;-83.92405;820.79;NaN;;5.58;12.226105;205.9;17 / 20;174023;2022-10-23 13:40:26:749
7.8012;-0.0502;-2.3581;9.4929;-0.585;-2.3903;1.7592;-1.0619;-0.4285;0.3278;-0.8227;0.9925;14736.0;-42.45;-12.71;-12.77;236.35;3.42;-104.13;5.0;990.93;55.0;35.956985;-83.92405;820.79;NaN;;5.58;12.226105;205.9;17 / 20;174523;2022-10-23 13:40:27:249
7.7402;-1.9836;-1.8386;9.7007;-0.2061;-1.423;0.0835;-1.5873;-0.2528;0.4603;1.6649;-1.9274;11528.0;-45.0;0.66;-8.31;247.04;14.99;-111.31;5.0;990.99;62.109;35.95697;-83.92406;819.41;NaN;;5.11;12.226105;209.4;17 / 20;175024;2022-10-23 13:40:27:750
12.3715;-0.8584;-2.3904;9.5737;-0.0951;-2.1226;-1.4977;-1.3892;-0.0808;-0.3254;-0.9444;1.8386;20669.0;-44.23;-11.55;-14.29;256.34;-9.72;-97.53;5.0;990.95;60.032;35.95697;-83.92406;819.41;NaN;;5.11;12.226105;209.4;17 / 20;175524;2022-10-23 13:40:28:250
10.8799;-5.2633;-1.8482;9.4424;-1.537;-2.156;7.2035;-1.1671;0.5387;0.099;0.8466;-1.8998;10194.0;-48.56;6.21;-6.04;247.85;21.75;-113.49;5.0;990.94;61.801;35.956963;-83.924065;820.4;NaN;;4.75;12.226105;211.7;17 / 20;176023;2022-10-23 13:40:28:749
13.2933;-0.25;-2.5666;9.1249;3.4785;-0.8976;-1.0131;-7.453;-2.6241;-0.9845;-0.722;3.1808;16438.0;-39.07;-26.06;-15.88;240.66;-20.78;-95.62;5.0;990.95;60.494;35.956963;-83.924065;820.4;NaN;;4.75;12.226105;211.7;17 / 20;176524;2022-10-23 13:40:29:250
14.8134;-3.3745;-0.7899;8.7287;-2.9967;-3.3166;6.015;2.0021;3.6841;1.286;1.9217;-1.9846;12929.0;-47.38;-2.59;-9.3;241.16;21.08;-117.41;5.0;990.92;50.305;35.95695;-83.92407;818.88;NaN;;5.22;12.226105;206.8;17 / 20;177023;2022-10-23 13:40:29:749
12.521;-2.4024;-4.5703;9.6263;0.57;-1.7831;-0.4052;-3.7012;-1.5026;-0.3525;-1.4722;1.7474;33089.0;-42.75;-11.16;-18.92;274.58;-16.51;-90.96;5.0;990.92;50.981;35.95695;-83.92407;818.88;NaN;;5.22;12.226105;206.8;17 / 20;177523;2022-10-23 13:40:30:249
15.1319;-4.7581;-2.1918;8.1433;-3.1661;-4.4535;8.3911;1.4163;5.7338;2.4799;2.0946;-2.3076;11047.0;-47.4;6.19;-7.37;257.14;18.84;-118.67;5.0;990.92;50.785;35.956944;-83.92408;816.91;NaN;;4.93;12.226105;209.4;17 / 20;178023;2022-10-23 13:40:30:749
10.9229;-3.2082;-2.9794;9.4156;2.3265;-1.4507;-2.9687;-5.2775;-1.1503;-0.5236;-0.7303;1.6406;20246.0;-39.84;-18.43;-16.14;248.37;-13.72;-98.76;5.0;990.94;54.136;35.956944;-83.92408;816.91;NaN;;4.93;12.226105;209.4;17 / 20;178524;2022-10-23 13:40:31:250
15.478;-1.4545;0.5447;7.7724;-4.1317;-4.3231;5.7065;5.0025;4.0699;0.3525;0.9029;-1.4598;9685.0;-43.74;-3.69;-8.96;238.42;24.92;-119.08;5.0;990.95;50.586;35.956932;-83.92409;818.49;NaN;;5.76;12.226105;207.3;16 / 20;179025;2022-10-23 13:40:31:751
8.5935;-1.2126;-1.2389;9.3061;2.8306;-1.247;-0.9769;-7.3495;-2.3822;-0.104;-0.6431;1.7712;18662.0;-40.57;-10.5;-14.04;284.28;-18.67;-90.34;5.0;990.95;52.688;35.956932;-83.92409;818.49;NaN;;5.76;12.226105;207.3;16 / 20;179523;2022-10-23 13:40:32:249
15.6503;0.8512;0.1986;9.0942;-2.499;-2.6873;2.0863;4.5603;3.6003;0.5181;-0.0444;-0.1418;17979.0;-44.29;-6.21;-11.74;236.8;14.76;-106.46;5.0;990.91;50.816;35.956924;-83.924095;817.99;NaN;;5.44;12.226105;198.8;16 / 20;180024;2022-10-23 13:40:32:750
12.1525;-2.3031;-3.9168;9.4475;1.9112;-1.8065;-0.4875;-6.4765;-1.4029;-1.2257;-0.0348;2.1641;17708.0;-42.32;-14.55;-13.89;251.63;-11.24;-100.82;5.0;990.94;52.209;35.956924;-83.924095;817.99;NaN;;5.44;12.226105;198.8;16 / 20;180523;2022-10-23 13:40:33:249
17.38;-4.6409;-1.343;8.4748;-3.1871;-3.7672;8.6115;2.926;4.2404;-0.6549;0.8453;-0.5592;10453.0;-45.07;-2.12;-8.21;239.91;26.9;-120.94;5.0;990.93;52.688;35.956913;-83.9241;817.28;NaN;;5.26;12.226105;209.8;16 / 20;181024;2022-10-23 13:40:33:750
8.6749;-1.9813;-1.512;8.7585;3.6377;-2.4954;-2.1112;-7.6925;-0.9387;-0.8392;0.1178;2.877;13084.0;-40.84;-13.97;-10.86;271.33;-21.77;-105.9;5.0;990.93;52.828;35.956913;-83.9241;817.28;NaN;;5.26;12.226105;209.8;16 / 20;181524;2022-10-23 13:40:34:250
15.1008;-0.9625;-0.2273;8.2188;-3.373;-4.1526;6.8263;1.5863;5.876;-1.4857;1.412;0.0743;9124.0;-43.43;2.06;-4.99;245.13;26.68;-123.78;5.0;990.92;50.031;35.956905;-83.92411;818.41;NaN;;4.93;12.226105;214.7;16 / 20;182025;2022-10-23 13:40:34:751
8.1401;-2.4263;-2.7413;8.7959;3.6037;-2.4117;-2.5243;-7.3481;-1.3386;-0.1915;-0.2475;2.0757;12861.0;-39.73;-15.36;-11.17;267.72;-21.56;-105.33;5.0;990.95;54.721;35.956905;-83.92411;818.41;NaN;;4.93;12.226105;214.7;16 / 20;182524;2022-10-23 13:40:35:250
15.1104;0.4167;-0.9159;7.6316;-4.1321;-4.5667;8.3149;3.5628;3.9707;0.2415;2.0464;-2.1973;9359.0;-42.54;-6.13;-5.66;232.53;24.33;-118.63;5.0;990.94;50.26;35.956898;-83.92412;818.85;NaN;;4.97;12.226105;217.5;16 / 20;183023;2022-10-23 13:40:35:749
12.399;-3.9526;-3.2249;9.2404;1.5274;-2.9072;-1.8033;-5.453;-0.3713;-0.7875;-0.0163;1.7515;11270.0;-40.69;-10.01;-7.44;278.2;-20.09;-110.24;5.0;990.91;57.842;35.956898;-83.92412;818.85;NaN;;4.97;12.226105;217.5;16 / 20;183523;2022-10-23 13:40:36:249
16.2129;-1.6496;-1.9463;7.5256;-4.1496;-4.7241;6.9031;4.304;2.7964;0.2531;0.7597;-2.4761;7054.0;-44.72;1.59;-2.68;242.73;25.03;-122.12;5.0;990.93;59.834;35.956886;-83.924126;819.9;NaN;;5.04;12.226105;220.4;16 / 20;184023;2022-10-23 13:40:36:749
2.2409;1.3537;4.7812;2.0819;4.6949;8.3543;3.0326;-3.4246;-3.913;-2.4697;6.633;0.3687;25454.0;-25.61;-21.17;-16.52;109.62;-28.6;-13.99;5.0;990.91;61.006;35.956886;-83.924126;819.9;NaN;;5.04;12.226105;220.4;16 / 20;184524;2022-10-23 13:40:37:250
-2.4778;8.0166;3.6918;0.749;7.435;6.3506;0.9597;-0.4165;2.9887;0.8169;0.3038;-1.1831;13197.0;12.11;-28.89;-31.13;243.88;-33.53;-10.39;5.0;990.88;50.637;35.95688;-83.92413;824.14;NaN;;5.54;12.226105;205.6;16 / 20;185023;2022-10-23 13:40:37:749
-0.0802;6.7454;7.5006;0.0765;7.79;5.9566;-0.0463;1.3701;1.5169;-0.3737;0.0961;-0.1445;6611.0;21.83;-36.0;-12.64;256.67;-61.99;0.76;5.0;990.86;51.118;35.95688;-83.92413;824.14;NaN;;5.54;12.226105;205.6;16 / 20;185524;2022-10-23 13:40:38:250
-0.9673;6.1481;10.4336;-0.1081;6.7423;7.1204;-0.7722;0.3667;0.1314;-0.6632;0.2075;0.0557;9634.0;21.19;-31.13;-23.92;254.32;-43.43;0.87;5.0;990.86;50.989;35.956867;-83.92414;823.99;NaN;;5.04;12.226105;211.2;16 / 20;186023;2022-10-23 13:40:38:749
1.0247;6.8399;8.8726;0.7727;6.5204;7.2841;0.3225;0.1303;0.4652;-0.6402;-0.0246;0.0876;10887.0;20.27;-29.91;-26.23;253.69;-41.67;-6.06;5.0;990.88;49.883;35.956867;-83.92414;823.99;NaN;;5.04;12.226105;211.2;16 / 20;186523;2022-10-23 13:40:39:249
0.498;5.4419;8.2202;0.425;5.2704;8.2591;0.6338;0.7165;3.4433;-0.1703;0.1134;0.1632;19912.0;17.21;-27.15;-30.97;252.82;-33.85;-5.74;5.0;990.88;49.193;35.956856;-83.92415;825.75;NaN;;5.18;12.226105;217.6;16 / 20;187024;2022-10-23 13:40:39:750
1.6771;0.9003;16.7121;0.4798;5.3458;8.2075;-1.7881;-0.5766;-1.8202;-2.9333;-0.6451;-0.0748;23889.0;20.98;-23.32;-30.82;262.3;-33.03;-3.35;5.0;990.89;48.079;35.956856;-83.92415;825.75;NaN;;5.18;12.226105;217.6;16 / 20;187524;2022-10-23 13:40:40:250
3.1448;1.4725;12.527;1.8833;2.5383;9.2834;-0.18;0.8995;1.4408;-0.4382;0.3334;0.1742;75524.0;13.39;-13.18;-39.62;271.24;-20.69;-13.7;5.0;990.89;51.156;35.95685;-83.92416;827.13;NaN;;5.29;12.226105;204.6;16 / 20;188023;2022-10-23 13:40:40:749
2.6432;-1.0259;16.4677;2.2105;3.4225;8.9202;-0.348;-0.1899;-2.9861;-2.7261;-0.8958;-0.2468;77112.0;13.35;-8.89;-40.95;280.98;-20.43;-13.92;5.0;990.88;50.199;35.95685;-83.92416;827.13;NaN;;5.29;12.226105;204.6;16 / 20;188523;2022-10-23 13:40:41:249
6.2785;-1.6998;17.0435;2.7319;0.47;9.4067;-0.783;-0.3181;1.7746;1.0223;0.1002;0.5021;107459.99;8.34;-3.0;-43.87;273.86;-6.73;-20.25;5.0;990.91;50.092;35.956837;-83.92417;826.7;NaN;;5.0;12.226105;209.5;16 / 20;189023;2022-10-23 13:40:41:749
5.5603;3.189;7.6086;3.5054;2.3291;8.8576;1.0479;-0.2946;2.4915;-0.3153;-0.7318;1.5114;74446.0;12.68;-10.2;-41.51;277.58;-19.24;-13.63;5.0;990.87;49.04;35.956837;-83.92417;826.7;NaN;;5.0;12.226105;209.5;16 / 20;189524;2022-10-23 13:40:42:250
2.083;3.5169;10.2586;2.3594;4.8464;8.1925;-0.0694;0.1888;0.5915;-0.3673;-0.1959;0.2792;32246.0;6.39;-27.21;-34.61;243.6;-29.62;-16.07;5.0;990.9;54.998;35.956825;-83.92418;825.64;NaN;;5.29;12.226105;208.8;16 / 20;190024;2022-10-23 13:40:42:750
4.8613;1.7824;12.7128;4.1521;3.6881;8.0826;1.0687;0.8464;0.0905;-0.8843;-0.8827;0.1377;16310.0;5.89;-33.21;-28.89;220.31;-22.09;-27.19;5.0;990.88;53.486;35.956825;-83.92418;825.64;NaN;;5.29;12.226105;208.8;16 / 20;190524;2022-10-23 13:40:43:250
8.3578;1.4222;17.4601;4.1328;3.2151;8.2917;-1.4946;0.664;0.783;-0.9049;-1.3702;0.6567;60240.0;1.76;-28.31;-32.81;223.98;-18.01;-28.07;5.0;990.9;55.526;35.956818;-83.92418;822.07;NaN;;5.26;12.226105;211.9;16 / 20;191024;2022-10-23 13:40:43:750
6.8327;0.9709;14.0593;4.8385;3.8674;7.6028;0.0645;-0.6837;0.1969;-0.8659;0.2255;-0.1724;24198.0;1.26;-28.31;-28.74;227.97;-26.0;-32.01;5.0;990.85;53.416;35.956818;-83.92418;822.07;NaN;;5.26;12.226105;211.9;16 / 20;191524;2022-10-23 13:40:44:250
4.8422;2.8059;14.0151;2.1452;2.1491;9.3247;0.3774;1.3459;-1.6249;0.5504;-0.5343;0.2445;61857.996;4.11;-23.04;-30.88;214.11;-12.66;-12.96;5.0;990.87;56.39;35.956802;-83.92419;819.85;NaN;;5.33;12.226105;209.5;15 / 20;192024;2022-10-23 13:40:44:750
14.3145;-3.4558;7.666;4.7204;3.8699;7.6754;-1.3861;-3.914;-3.9299;-1.9539;-5.4597;1.8093;71762.0;2.76;-19.39;-29.76;246.37;-23.24;-31.59;5.0;990.88;57.563;35.956802;-83.92419;819.85;NaN;;5.33;12.226105;209.5;15 / 20;192524;2022-10-23 13:40:45:250
14.4832;-2.0698;2.715;8.9156;-3.8403;-1.3907;3.8113;2.663;4.6823;-0.1196;-0.5666;0.4615;82110.0;-26.92;-2.03;-17.53;242.14;20.01;-94.5;5.0;990.89;57.586;35.95679;-83.924194;818.14;NaN;;5.51;12.226105;210.6;16 / 20;193024;2022-10-23 13:40:45:750
12.629;-6.5216;-2.4431;9.6141;1.7346;0.8542;-4.0293;-4.1927;-2.6783;-0.7479;-1.0029;0.469;73741.0;-35.21;4.91;-17.27;309.37;-10.19;-84.92;5.0;990.91;54.711;35.95679;-83.924194;818.14;NaN;;5.51;12.226105;210.6;16 / 20;193524;2022-10-23 13:40:46:250
15.5988;-0.8282;1.3167;9.157;-2.3252;-2.6292;2.7048;4.7194;3.0909;-0.2537;-0.3867;0.4167;35831.0;-40.46;3.28;-14.63;259.03;12.2;-103.05;5.0;990.92;51.453;35.956783;-83.9242;816.56;NaN;;5.4;12.226105;210.8;15 / 20;194023;2022-10-23 13:40:46:749
7.9795;-1.5802;-2.3474;9.0755;3.7009;0.3312;-2.5816;-5.2283;-2.5932;0.0015;-0.4578;0.2255;67980.0;-38.93;-5.1;-19.56;299.15;-22.17;-87.91;5.0;990.9;54.74;35.956783;-83.9242;816.56;NaN;;5.4;12.226105;210.8;15 / 20;194523;2022-10-23 13:40:47:249
10.905;2.5558;0.6296;8.9154;-2.7201;-3.0475;0.8786;5.1732;3.324;0.0309;0.3541;0.0314;29339.002;-41.1;-5.7;-16.65;245.67;9.87;-104.22;5.0;990.91;51.768;35.95677;-83.92421;815.33;NaN;;5.4;12.226105;213.4;15 / 20;195023;2022-10-23 13:40:47:749
9.4244;-6.026;-2.7221;8.7512;4.3031;-1.0351;-2.8805;-6.5527;-1.742;0.4222;-0.1172;-0.734;42433.0;-40.28;-2.16;-15.99;304.04;-21.3;-93.23;5.0;990.91;57.431;35.95677;-83.92421;815.33;NaN;;5.4;12.226105;213.4;15 / 20;195524;2022-10-23 13:40:48:250
13.3053;2.3701;0.5794;8.5455;-3.4719;-3.3304;2.1385;5.2445;2.8563;-0.8275;0.4331;0.4859;22574.0;-41.21;-5.42;-13.82;239.58;20.73;-111.29;5.0;990.92;49.742;35.95676;-83.924225;813.33;NaN;;8.21;12.226105;207.8;15 / 20;196024;2022-10-23 13:40:48:750
4.7354;-2.5726;-3.0296;8.6066;4.4486;-1.5191;-3.8317;-6.5287;-1.8973;1.5903;-0.3944;-1.4204;43761.0;-39.06;-3.34;-16.33;300.9;-26.98;-100.01;5.0;990.89;57.312;35.95676;-83.924225;813.33;NaN;;8.21;12.226105;207.8;15 / 20;196524;2022-10-23 13:40:49:250
12.5103;0.0323;2.3139;8.5849;-3.5449;-3.1471;1.214;3.8278;2.9614;-0.8791;0.0049;0.7437;23386.0;-40.54;-7.74;-14.77;235.32;21.19;-110.13;5.0;990.91;47.346;35.95675;-83.92423;812.29;NaN;;4.75;12.226105;211.7;15 / 20;197024;2022-10-23 13:40:49:750
5.091;-3.6942;-2.1787;8.8624;3.9012;-1.5519;-2.1372;-7.5651;-0.8921;-0.1026;-0.583;-0.3089;28859.002;-39.68;6.47;-12.94;301.37;-5.51;-94.24;5.0;990.93;57.406;35.95675;-83.92423;812.29;NaN;;4.75;12.226105;211.7;15 / 20;197524;2022-10-23 13:40:50:250
12.9712;1.9104;1.0199;8.9622;-3.4379;-2.0076;2.8795;3.9477;0.8521;-0.9002;-0.1367;1.363;25529.0;-40.73;-6.26;-14.57;231.91;20.52;-102.63;5.0;990.92;48.695;35.95674;-83.92424;814.13;NaN;;5.51;12.226105;214.0;15 / 20;198024;2022-10-23 13:40:50:750
5.1628;-3.9144;-1.774;9.0684;3.4545;-1.4147;-3.3356;-6.3156;-1.2888;-0.6055;-0.1173;0.0376;38306.0;-40.71;-0.71;-17.46;298.23;-20.63;-98.87;5.0;990.91;61.459;35.95674;-83.92424;814.13;NaN;;5.51;12.226105;214.0;15 / 20;198524;2022-10-23 13:40:51:250
11.6055;2.1643;0.9601;8.0401;-4.5502;-3.2897;3.3415;5.6638;3.5774;-1.5554;-0.1907;1.7982;24651.0;-40.82;-10.41;-16.82;231.61;19.38;-104.53;5.0;990.94;50.709;35.956734;-83.92425;813.68;NaN;;4.82;12.226105;221.9;15 / 20;199025;2022-10-23 13:40:51:751
4.0017;-3.341;-2.4562;9.2048;3.226;-1.0174;-1.7843;-6.9818;-1.4448;0.3719;-0.2677;-1.2888;40529.0;-38.93;6.92;-16.24;312.94;-19.21;-96.31;5.0;990.88;59.537;35.956734;-83.92425;813.68;NaN;;4.82;12.226105;221.9;15 / 20;199525;2022-10-23 13:40:52:251
11.0907;1.3023;-0.5315;8.7504;-3.2837;-2.9697;2.35;4.2084;1.596;-1.0329;-0.2528;2.0632;23974.0;-40.03;-9.54;-14.74;239.14;7.17;-103.6;5.0;990.93;48.462;35.95673;-83.924255;814.0;NaN;;5.18;12.226105;222.3;15 / 20;200024;2022-10-23 13:40:52:750
6.2474;-2.8202;-2.4957;9.743;1.0014;-0.4919;-0.6766;-4.3695;-1.0785;1.2829;0.108;-1.7309;44255.0;-40.05;4.26;-15.88;293.9;-5.86;-92.89;5.0;990.91;54.406;35.95673;-83.924255;814.0;NaN;;5.18;12.226105;222.3;15 / 20;200525;2022-10-23 13:40:53:251
10.9723;2.6683;-0.9984;8.62;-3.4262;-3.1824;2.0157;4.2356;0.533;-0.3602;-0.0288;0.8623;22669.0;-41.23;-10.86;-16.78;241.57;5.42;-104.06;5.0;990.92;48.595;35.95672;-83.92427;812.84;NaN;;5.36;12.226105;217.7;15 / 20;201024;2022-10-23 13:40:53:750
4.8864;-3.0619;-2.2397;9.0377;3.6944;-0.9174;-2.5586;-6.9832;-1.5298;2.184;0.0482;-2.4865;24259.0;-41.4;4.07;-13.44;296.29;-4.32;-91.77;5.0;990.9;57.311;35.95672;-83.92427;812.84;NaN;;5.36;12.226105;217.7;15 / 20;201523;2022-10-23 13:40:54:249
10.7327;2.3079;-1.4258;8.9146;-3.0597;-2.7091;2.2925;3.7952;-0.4265;-0.6207;0.0704;1.332;10034.0;-39.36;-15.99;-12.19;221.54;18.18;-106.9;5.0;990.92;49.363;35.95671;-83.92428;812.48;NaN;;4.82;12.226105;214.2;15 / 20;202023;2022-10-23 13:40:54:749
6.2569;-3.4152;-2.0889;9.6957;1.4564;-0.2045;-0.9927;-4.9373;-0.2957;0.9493;1.258;-2.526;9645.0;-42.64;-0.32;-12.84;294.53;-8.54;-91.21;5.0;990.91;53.683;35.95671;-83.92428;812.48;NaN;;4.82;12.226105;214.2;15 / 20;202523;2022-10-23 13:40:55:249
10.5449;1.2365;-3.9431;9.3018;-2.1215;-2.2686;4.4997;-0.2405;-2.4707;-0.5214;-0.6499;2.1749;1819.0;-38.61;-18.69;-14.7;237.67;-9.5;-97.63;5.0;990.95;48.946;35.956703;-83.924286;811.39;NaN;;4.61;12.226105;196.8;15 / 20;203024;2022-10-23 13:40:55:750
7.5437;-4.3214;-3.6449;9.7639;0.8618;-0.3059;3.3753;-6.0634;-0.7408;2.4377;-0.1152;-3.2011;974.0;-44.32;2.66;-7.67;243.51;19.02;-106.77;5.0;990.94;49.026;35.956703;-83.924286;811.39;NaN;;4.61;12.226105;196.8;15 / 20;203524;2022-10-23 13:40:56:250
12.399;-3.3147;-1.9104;9.4707;0.2017;-2.5369;4.1868;-5.9472;-0.4946;-1.1784;-0.2408;4.2261;1084.0;-34.61;-25.89;-7.86;213.52;-1.18;-105.0;5.0;990.92;50.589;35.956696;-83.924286;812.81;NaN;;5.22;12.226105;198.1;15 / 20;204024;2022-10-23 13:40:56:750
8.499;-6.2701;-3.1424;9.7902;0.2608;-0.5048;4.8472;-9.0424;-0.7878;2.4965;-0.3018;-3.9394;1904.0;-41.7;2.63;-6.94;294.15;-1.52;-92.95;5.0;990.9;61.173;35.956696;-83.924286;812.81;NaN;;5.22;12.226105;198.1;15 / 20;204524;2022-10-23 13:40:57:250
14.2352;-1.0092;-3.2441;8.6468;-3.8535;-2.56;4.3845;1.8493;-0.2588;-0.5348;-0.0732;4.0493;1737.0;-32.1;-29.25;-7.44;208.03;-7.3;-101.6;5.0;990.93;50.488;35.956688;-83.92429;810.0;NaN;;4.36;12.226105;203.4;15 / 20;205023;2022-10-23 13:40:57:749
9.8877;-5.7577;-2.2528;9.7472;-0.8364;-0.6808;6.5237;-6.9245;-0.3978;3.2055;-0.4855;-4.0098;5084.0;-43.65;3.3;-6.47;265.46;4.89;-94.0;5.0;990.93;60.374;35.956688;-83.92429;810.0;NaN;;4.36;12.226105;203.4;15 / 20;205524;2022-10-23 13:40:58:250
14.4006;-0.0335;-1.1157;9.0215;-2.2943;-3.0854;3.1927;1.1959;-0.954;-0.7074;-0.1985;3.8937;2028.0;-33.24;-29.19;-2.03;209.67;-13.6;-107.68;5.0;990.91;51.172;35.956676;-83.9243;811.69;NaN;;5.36;12.226105;189.7;15 / 20;206024;2022-10-23 13:40:58:750
6.7693;-5.0145;-4.0316;9.7108;-1.0038;-0.9291;7.7096;-5.8801;-0.1462;4.0204;0.1635;-4.0598;8064.0;-42.77;1.33;-8.34;254.66;5.87;-95.47;5.0;990.93;55.815;35.956676;-83.9243;811.69;NaN;;5.36;12.226105;189.7;15 / 20;206523;2022-10-23 13:40:59:249
12.2207;0.3497;-0.7038;9.3107;-1.1582;-2.8531;3.6046;1.5601;-0.0015;-2.6438;0.1102;3.233;2602.0;-35.27;-23.08;-7.89;214.03;6.78;-107.04;5.0;990.95;52.242;35.956665;-83.9243;810.87;NaN;;4.75;12.226105;201.8;15 / 20;207024;2022-10-23 13:40:59:750
8.3913;-4.3765;-3.591;9.4889;2.3824;-0.6752;0.2438;-7.0372;-2.3365;3.0569;0.6837;-3.3511;13767.0;-43.2;7.16;-11.62;269.5;9.97;-98.57;5.0;990.93;59.388;35.956665;-83.9243;810.87;NaN;;4.75;12.226105;201.8;15 / 20;207524;2022-10-23 13:41:00:250
13.4824;1.5156;0.8788;9.1928;-2.189;-2.6213;3.7844;-1.242;-0.1099;-2.2953;-0.1605;3.3687;8902.0;-38.34;-19.63;-14.17;221.71;12.9;-105.92;5.0;990.95;52.925;35.95666;-83.92431;807.52;NaN;;4.39;12.226105;208.7;15 / 20;208024;2022-10-23 13:41:00:750
8.0453;-4.8302;-2.2708;9.4622;2.5566;-0.3186;2.0817;-9.7594;-1.0654;2.5019;1.3041;-4.6445;10261.0;-39.58;9.34;-12.75;322.95;-15.11;-91.93;5.0;990.91;62.518;35.95666;-83.92431;807.52;NaN;;4.39;12.226105;208.7;15 / 20;208523;2022-10-23 13:41:01:249
11.6785;-1.264;-2.3713;9.4406;-0.2224;-2.6448;5.7521;-1.6878;-2.2836;-2.3632;0.4617;2.9354;10128.0;-33.73;-25.54;-15.41;248.04;-27.96;-104.69;5.0;990.92;56.66;35.956654;-83.92432;806.2;NaN;;4.86;12.226105;221.4;15 / 20;209024;2022-10-23 13:41:01:750
11.718;-4.4961;-1.622;8.8129;-3.1221;-2.959;6.8246;2.4308;1.471;1.6622;1.136;-2.8248;15266.0;-42.34;10.95;-10.26;263.25;22.41;-113.19;5.0;990.94;48.012;35.956654;-83.92432;806.2;NaN;;4.86;12.226105;221.4;15 / 20;209525;2022-10-23 13:41:02:251
11.4245;-3.475;-3.05;9.0643;2.7477;-2.5414;-1.7963;-6.2381;-0.7767;-1.1834;-0.081;2.2704;17281.0;-40.16;-14.17;-13.35;261.15;-16.27;-105.66;5.0;990.92;49.281;35.956642;-83.92432;804.3;NaN;;4.9;12.226105;201.8;15 / 20;210024;2022-10-23 13:41:02:750
16.2081;-0.7181;-1.1456;8.0238;-4.3321;-3.6086;9.0829;4.1544;4.655;0.7975;1.9492;-3.3208;14933.0;-40.87;9.86;-10.2;257.53;26.22;-114.22;5.0;990.97;47.561;35.956642;-83.92432;804.3;NaN;;4.9;12.226105;201.8;15 / 20;210523;2022-10-23 13:41:03:249
11.1446;-3.28;-3.5731;8.1953;3.5046;-4.0896;-1.0027;-9.2992;1.1529;-0.3115;-1.4961;0.6332;24546.0;-37.54;-9.62;-12.56;283.81;-28.41;-109.65;5.0;990.92;47.913;35.956635;-83.92433;804.01;NaN;;4.75;12.226105;218.8;15 / 20;211024;2022-10-23 13:41:03:750
16.7695;-3.9215;0.4896;7.242;-4.065;-5.2153;4.7051;7.036;6.4052;0.0182;1.8813;-1.606;13080.0;-41.06;1.22;-4.24;246.35;24.49;-125.76;5.0;990.95;51.133;35.956635;-83.92433;804.01;NaN;;4.75;12.226105;218.8;15 / 20;211523;2022-10-23 13:41:04:249
5.8331;-3.9072;-2.9303;7.8591;4.882;-3.2513;-1.4332;-9.2495;-0.2524;0.0425;-0.3255;-0.4855;19928.0;-37.67;-10.86;-9.86;284.49;-27.04;-107.16;5.0;990.93;53.37;35.95663;-83.92434;803.72;NaN;;4.0;12.226105;227.6;16 / 20;212024;2022-10-23 13:41:04:750
17.2005;-0.6009;-0.0479;7.3088;-4.8098;-4.4291;6.4027;8.0633;4.4574;-0.272;0.9389;-0.7882;13450.0;-40.93;3.75;-7.57;247.43;29.37;-121.22;5.0;990.95;48.623;35.95663;-83.92434;803.72;NaN;;4.0;12.226105;227.6;16 / 20;212523;2022-10-23 13:41:05:249
6.7502;-2.0363;-4.6002;7.9258;5.0064;-2.8787;-3.077;-8.2266;-1.1207;-0.1335;-1.3625;1.3243;25467.0;-39.19;-1.2;-11.21;305.98;-22.77;-100.73;5.0;990.92;57.988;35.956627;-83.924355;805.12;NaN;;4.46;12.226105;234.4;17 / 20;213023;2022-10-23 13:41:05:749
17.9725;3.7863;-0.5913;7.3034;-3.8868;-5.2652;8.2136;5.2979;5.6963;-0.1402;-0.6414;1.0116;14508.0;-39.43;-4.8;-6.34;239.68;18.0;-119.61;5.0;990.96;60.525;35.956627;-83.924355;805.12;NaN;;4.46;12.226105;234.4;17 / 20;213523;2022-10-23 13:41:06:249
6.7334;0.2273;2.831;6.3432;3.3948;6.664;5.9609;-6.6262;-3.3197;1.3956;1.8647;-0.296;37392.0;-32.18;0.92;-18.3;39.44;-20.25;-43.59;5.0;990.9;63.71;35.956623;-83.92436;805.87;NaN;;4.43;12.226105;239.0;18 / 20;214023;2022-10-23 13:41:06:749
1.118;5.9877;9.5955;2.0967;5.8032;7.6221;-0.9103;0.3974;1.1119;0.1158;0.1778;0.1169;90882.0;9.62;-20.38;-35.08;276.86;-36.28;-15.38;5.0;990.9;48.121;35.956623;-83.92436;805.87;NaN;;4.43;12.226105;239.0;18 / 20;214523;2022-10-23 13:41:07:249
4.028;2.6515;6.8016;0.5371;4.1528;8.8677;0.3052;-0.3384;-3.3718;-0.9164;-1.7046;-0.8488;36186.0;16.65;-20.91;-32.76;256.91;-26.81;-5.76;5.0;990.89;48.1;35.956615;-83.92437;808.48;NaN;;4.72;12.226105;239.5;18 / 20;215023;2022-10-23 13:41:07:749
1.063;-4.2568;11.4664;4.9843;-1.8732;8.2352;-3.3172;-0.3034;1.6487;-0.027;0.2389;0.213;106952.0;5.66;6.28;-39.0;275.0;7.06;-28.04;5.0;990.9;50.149;35.956615;-83.92437;808.48;NaN;;4.72;12.226105;239.5;18 / 20;215524;2022-10-23 13:41:08:250
6.6796;1.7082;2.8334;1.2527;0.9563;9.6792;3.254;-0.6967;-4.6536;1.3087;0.1802;-0.026;86760.0;4.65;15.69;-36.17;333.65;-5.6;-7.37;5.0;990.9;56.359;35.956615;-83.924385;806.74;NaN;;4.75;12.226105;268.1;18 / 20;216025;2022-10-23 13:41:08:751
2.2648;-6.3311;12.9461;7.8129;-2.2739;5.4734;-3.3382;-1.7073;2.195;-0.7223;-0.2596;-0.3456;83360.0;-7.65;18.84;-30.47;302.99;13.41;-54.99;5.0;990.92;50.652;35.956615;-83.924385;806.74;NaN;;4.75;12.226105;268.1;18 / 20;216524;2022-10-23 13:41:09:250
6.2928;1.433;-0.0431;3.0691;1.6772;9.1618;2.9684;-0.8162;-8.3775;2.8096;0.3874;0.6141;24557.0;-12.73;24.43;-25.28;8.18;9.08;-21.83;5.0;990.89;56.216;35.95661;-83.92439;806.36;NaN;;4.1;12.226105;242.7;18 / 20;217024;2022-10-23 13:41:09:750
7.2745;-5.7446;9.987;9.4682;-2.0076;1.5786;-0.6398;-1.7392;4.071;-2.8085;-0.6614;-0.5038;111498.0;-11.25;10.29;-29.72;283.28;11.81;-80.53;5.0;990.92;47.376;35.95661;-83.92439;806.36;NaN;;4.1;12.226105;242.7;18 / 20;217523;2022-10-23 13:41:10:249
7.7378;-2.1595;-1.6962;8.5219;1.4252;4.6385;-0.5927;-4.1903;-6.0723;3.1563;1.1681;-1.0001;28172.998;-26.49;19.41;-14.72;339.11;8.32;-70.67;5.0;990.91;56.024;35.95661;-83.92441;805.35;NaN;;5.08;12.226105;260.6;18 / 20;218024;2022-10-23 13:41:10:750
11.263;-0.4813;3.3171;9.5256;-2.1264;-0.9551;2.0016;0.682;2.8558;-1.3986;-1.2917;1.6271;66379.0;-29.74;5.78;-24.32;269.79;12.52;-95.73;5.0;990.94;50.575;35.95661;-83.92441;805.35;NaN;;5.08;12.226105;260.6;18 / 20;218524;2022-10-23 13:41:11:250
6.8399;-3.0846;-1.3023;9.3811;2.0109;2.0301;2.1001;-7.3358;-2.8553;-0.2333;2.2644;-1.5018;8395.0;-33.84;19.16;-12.54;308.43;12.38;-92.3;5.0;990.87;53.51;35.956608;-83.92442;806.47;NaN;;4.93;12.226105;259.8;18 / 20;219023;2022-10-23 13:41:11:749
14.8481;-1.6687;2.4718;7.2247;-5.7926;-3.228;7.3652;2.3008;4.7764;-1.6479;-1.589;3.3906;109330.99;-29.17;-3.69;-28.88;251.43;13.37;-93.0;5.0;990.94;50.803;35.956608;-83.92442;806.47;NaN;;4.93;12.226105;259.8;18 / 20;219523;2022-10-23 13:41:12:249
5.7553;-5.4359;-1.6627;9.7603;0.3664;0.8786;1.128;-8.3605;-1.927;1.879;-0.7684;-2.6108;6941.0;-29.32;19.67;-14.33;331.75;-2.14;-84.86;5.0;990.91;59.698;35.956608;-83.92443;808.57;NaN;;5.0;12.226105;251.7;17 / 20;220023;2022-10-23 13:41:12:749
14.0689;-3.3553;1.3071;7.1632;-6.0527;-2.8678;6.7892;2.2157;3.3833;-1.7894;-0.9269;3.5735;44723.0;-33.9;-0.56;-19.72;243.32;38.11;-111.82;5.0;990.96;59.913;35.956608;-83.92443;808.57;NaN;;5.0;12.226105;251.7;17 / 20;220523;2022-10-23 13:41:13:249
10.4276;-7.7414;-1.0702;9.7246;-1.1606;0.5064;4.0217;-9.3967;-1.5648;2.7267;-0.4604;-3.4215;6310.0;-27.67;28.91;-14.51;296.78;34.28;-107.75;5.0;990.89;58.483;35.9566;-83.924446;809.85;NaN;;5.54;12.226105;243.7;17 / 20;221024;2022-10-23 13:41:13:750
13.0621;-1.7919;2.7018;8.2514;-4.8305;-2.1796;6.7133;0.6424;1.2901;-3.3085;0.337;2.7679;34707.0;-37.37;-7.09;-17.87;255.06;-0.93;-100.12;5.0;990.94;58.094;35.9566;-83.924446;809.85;NaN;;5.54;12.226105;243.7;17 / 20;221524;2022-10-23 13:41:14:250
7.1489;-6.6556;-3.2429;9.4926;2.4531;-0.2064;7.7389;-7.995;1.4543;4.3539;0.6846;-4.0738;8188.0;-27.6;31.09;-5.44;339.93;15.71;-96.65;5.0;990.88;63.129;35.956596;-83.92445;810.35;NaN;;5.26;12.226105;240.7;17 / 20;222024;2022-10-23 13:41:14:750
15.3592;-4.2676;0.4466;9.3708;-2.4234;-1.5766;5.0331;-4.1755;-0.7524;-1.7568;-1.1334;3.9469;27267.002;-39.73;-7.37;-16.03;234.69;14.31;-99.55;5.0;990.93;46.959;35.956596;-83.92445;810.35;NaN;;5.26;12.226105;240.7;17 / 20;222523;2022-10-23 13:41:15:249
7.8622;-7.1106;-0.8501;9.8035;0.1789;-0.1699;1.2837;-10.3993;-0.5602;1.8814;1.371;-4.4163;5931.0;-30.62;30.0;-11.42;302.02;30.86;-106.52;5.0;990.9;60.601;35.956593;-83.92447;809.87;NaN;;5.29;12.226105;246.0;17 / 20;223024;2022-10-23 13:41:15:750
14.7045;-5.3809;1.2939;9.6966;-0.6489;-1.3136;2.2359;-5.158;0.1914;-2.163;-1.0059;4.4111;35748.0;-38.68;-9.41;-18.22;243.75;3.79;-97.71;5.0;990.93;46.328;35.956593;-83.92447;809.87;NaN;;5.29;12.226105;246.0;17 / 20;223524;2022-10-23 13:41:16:250
11.2714;-8.9276;-1.5323;9.3574;-2.9013;-0.4378;4.4046;-8.1032;0.1294;3.2921;0.8278;-4.0464;8797.0;-28.41;29.18;-8.31;292.09;40.68;-116.33;5.0;990.88;61.685;35.95659;-83.924484;809.4;NaN;;6.01;12.226105;252.6;17 / 20;224025;2022-10-23 13:41:16:751
12.4708;-3.9227;-2.4538;9.37;1.1618;-2.6502;-3.3501;-5.7998;1.5788;-1.6684;0.2385;4.1997;22330.0;-40.07;-12.64;-14.27;250.14;-6.8;-105.79;5.0;990.93;53.129;35.95659;-83.924484;809.4;NaN;;6.01;12.226105;252.6;17 / 20;224523;2022-10-23 13:41:17:249
7.29;-5.0982;-1.2975;9.6433;-1.6712;0.6197;3.9481;-6.1618;-0.7613;3.815;-0.631;-2.958;19865.0;-35.93;19.31;-11.44;276.97;27.09;-105.67;5.0;990.88;64.848;35.956585;-83.92451;812.03;NaN;;6.05;12.226105;248.0;17 / 20;225023;2022-10-23 13:41:17:749
12.2626;-3.7576;-0.9769;8.3475;-4.6832;-2.1347;3.9519;0.7204;0.7842;-1.5881;-0.3547;3.8473;5116.0;-39.39;-8.74;-17.42;245.71;1.35;-97.33;5.0;990.94;49.933;35.956585;-83.92451;812.03;NaN;;6.05;12.226105;248.0;17 / 20;225525;2022-10-23 13:41:18:251
6.9655;-5.8881;-3.0727;9.5651;-1.6146;-1.4396;8.0626;-7.643;-0.3803;3.6544;0.4531;-4.405;6851.0;-34.31;23.21;-7.33;325.33;9.48;-98.56;5.0;990.89;62.042;35.95658;-83.924515;811.96;NaN;;5.47;12.226105;248.5;17 / 20;226024;2022-10-23 13:41:18:750
15.2181;-4.1764;-0.8079;8.9171;-3.2285;-2.4966;5.9337;-2.4546;-1.3815;-2.0079;0.359;4.9411;17626.0;-38.08;-15.38;-11.4;219.55;19.22;-105.64;5.0;990.94;54.786;35.95658;-83.924515;811.96;NaN;;5.47;12.226105;248.5;17 / 20;226524;2022-10-23 13:41:19:250
10.3017;-7.8658;-3.3984;9.2124;-3.263;-0.8087;10.2521;-7.7427;2.1768;6.096;-0.7983;-4.1;10421.0;-31.63;25.84;-3.39;295.87;30.25;-130.45;5.0;990.89;64.556;35.956577;-83.92453;811.82;NaN;;5.65;12.226105;243.6;17 / 20;227025;2022-10-23 13:41:19:751
12.909;-4.5428;-0.8584;9.5007;-2.0742;-1.2664;3.29;-3.0008;-1.7075;-1.5674;-0.4775;4.0886;29391.002;-39.19;-12.32;-15.81;266.07;-16.55;-102.62;5.0;990.96;62.602;35.956577;-83.92453;811.82;NaN;;5.65;12.226105;243.6;17 / 20;227525;2022-10-23 13:41:20:251
9.1525;-7.6349;-2.3665;9.8006;-0.3351;-0.0745;2.698;-8.8851;-1.9817;3.7297;0.3987;-4.1127;6402.0;-31.01;27.62;-10.56;298.62;30.85;-104.64;5.0;990.94;61.015;35.956573;-83.924545;811.91;NaN;;5.33;12.226105;253.5;17 / 20;228024;2022-10-23 13:41:20:750
16.3995;-2.9076;-1.0774;9.553;-1.5168;-1.6153;4.1094;-5.6725;-0.679;-3.6481;0.6846;4.4025;37467.0;-39.26;-9.96;-16.99;236.52;8.9;-99.6;5.0;990.96;55.614;35.956573;-83.924545;811.91;NaN;;5.33;12.226105;253.5;17 / 20;228523;2022-10-23 13:41:21:249
10.2574;-6.8566;-1.2987;9.7661;-0.8265;0.3316;0.7058;-7.1416;-1.5748;4.2977;-0.5148;-3.0766;7167.0;-29.06;25.24;-8.36;302.17;30.17;-99.14;5.0;990.92;63.037;35.956573;-83.92455;812.32;NaN;;5.26;12.226105;247.5;17 / 20;229023;2022-10-23 13:41:21:749
12.2806;-1.276;0.5865;9.535;-2.1066;-0.9035;3.7252;-1.9397;-0.9362;-2.0583;0.5079;2.7903;13853.0;-36.58;-5.89;-20.92;241.32;12.4;-95.41;5.0;990.94;56.726;35.956573;-83.92455;812.32;NaN;;5.26;12.226105;247.5;17 / 20;229523;2022-10-23 13:41:22:249
6.4654;-4.9092;-2.016;9.7222;-1.0578;0.728;-1.4682;-5.5094;-1.7602;3.6361;0.1165;-2.5341;5545.0;-28.78;21.71;-17.66;289.14;27.17;-96.47;5.0;990.92;57.405;35.95657;-83.92457;812.59;NaN;;5.22;12.226105;244.6;17 / 20;230024;2022-10-23 13:41:22:750
11.6521;-4.9594;0.3999;8.9875;-3.7463;-1.1663;4.3364;-4.1132;-1.2901;-2.0928;0.5637;3.1598;50644.0;-33.69;1.28;-20.74;246.56;22.46;-97.39;5.0;990.94;61.456;35.95657;-83.92457;812.59;NaN;;5.22;12.226105;244.6;17 / 20;230524;2022-10-23 13:41:23:250
7.9938;-8.2155;-0.9254;9.458;-2.5659;0.3657;3.1392;-8.7846;0.3158;3.2444;-0.6176;-3.1613;4388.0;-24.47;28.86;-13.91;294.27;42.5;-112.09;5.0;990.93;59.966;35.956566;-83.92458;812.37;NaN;;5.08;12.226105;259.6;17 / 20;231024;2022-10-23 13:41:23:750
12.8468;-4.4183;0.3413;7.8194;-5.4788;-2.2383;6.2375;-0.2025;2.0181;-1.8758;-0.4814;4.3124;4708.0;-36.06;-7.29;-19.44;248.42;3.87;-97.18;5.0;990.93;50.465;35.956566;-83.92458;812.37;NaN;;5.08;12.226105;259.6;17 / 20;231524;2022-10-23 13:41:24:250
10.2945;-9.8231;-1.4821;8.633;-4.5748;-0.8446;9.408;-7.1724;2.1176;3.7289;0.4013;-3.7711;1762.0;-23.85;30.02;-11.79;318.14;27.81;-95.59;5.0;990.9;55.39;35.95656;-83.9246;812.65;NaN;;5.72;12.226105;241.9;17 / 20;232024;2022-10-23 13:41:24:750
14.1658;-5.8558;-3.7122;9.3894;-2.3797;-1.5318;5.8993;-3.5131;-1.0679;-1.1197;0.3996;4.1;1910.0;-35.01;-8.51;-19.87;237.23;14.04;-99.27;5.0;990.94;51.697;35.95656;-83.9246;812.65;NaN;;5.72;12.226105;241.9;17 / 20;232525;2022-10-23 13:41:25:251
10.7267;-9.2689;-2.4072;8.1905;-4.6103;-2.7984;7.9846;-1.8722;7.8428;6.1583;0.078;-3.7414;1733.0;-26.83;25.13;-8.48;293.42;38.41;-131.68;5.0;990.94;63.124;35.956554;-83.92461;814.48;NaN;;5.33;12.226105;242.5;17 / 20;233024;2022-10-23 13:41:25:750
13.8823;0.146;-2.9483;9.4813;0.2109;-2.4963;3.8105;-5.3514;-0.2068;-1.2928;-0.5674;2.4544;1901.0;-36.62;-12.51;-14.63;275.57;-26.69;-106.43;5.0;990.92;51.601;35.956554;-83.92461;814.48;NaN;;5.33;12.226105;242.5;17 / 20;233524;2022-10-23 13:41:26:250
14.5334;-6.2677;-1.5538;9.6097;0.6846;-1.8319;13.134;6.2116;1.7693;0.5607;1.4794;-4.3222;1206.0;-41.14;10.63;-9.64;259.18;26.81;-114.97;5.0;990.96;53.745;35.95655;-83.92463;813.27;NaN;;6.16;12.226105;250.5;17 / 20;234024;2022-10-23 13:41:26:750
15.8022;0.7863;-7.5341;7.3315;4.8611;-4.3347;2.7467;-8.4958;-0.0797;-0.9318;-0.1911;4.2188;1109.0;-34.33;-27.26;-10.97;246.36;-29.72;-120.59;5.0;990.94;46.723;35.95655;-83.92463;813.27;NaN;;6.16;12.226105;250.5;17 / 20;234524;2022-10-23 13:41:27:250
14.8253;-6.3299;-4.5488;9.1145;-1.3661;-3.3512;12.6931;-0.9402;1.8113;1.4386;1.4;-1.8842;815.0;-41.91;-1.2;1.03;248.44;15.58;-128.31;5.0;990.96;60.922;35.956543;-83.92464;812.96;NaN;;5.72;12.226105;246.2;17 / 20;235023;2022-10-23 13:41:27:749
14.1981;-2.898;-3.9885;6.7475;6.1253;-3.6226;-3.2635;-11.5027;1.0675;-0.7914;0.3702;4.5589;868.0;-33.99;-22.82;-7.74;266.01;-38.65;-118.23;5.0;990.97;51.479;35.956543;-83.92464;812.96;NaN;;5.72;12.226105;246.2;17 / 20;235523;2022-10-23 13:41:28:249
17.2137;-6.8136;-1.3525;8.3594;-3.2149;-3.9945;12.7534;3.48;0.9542;-0.1762;0.9053;-1.2495;814.0;-41.81;4.16;-4.63;245.7;31.63;-125.8;5.0;990.96;52.725;35.956535;-83.92466;813.06;NaN;;5.98;12.226105;234.0;17 / 20;236024;2022-10-23 13:41:28:750
15.2001;-0.2827;-5.1855;5.2499;6.9359;-4.528;-4.4928;-12.5556;0.9963;-1.3258;0.1974;4.8465;654.0;-33.43;-25.03;-8.79;261.66;-45.01;-130.78;5.0;990.94;52.906;35.956535;-83.92466;813.06;NaN;;5.98;12.226105;234.0;17 / 20;236524;2022-10-23 13:41:29:250
12.3906;-3.5575;-1.6017;8.9116;-1.5435;-3.791;12.0975;5.3294;-1.1039;0.6225;1.6219;-3.1554;570.0;-41.7;-7.05;-5.25;233.84;17.51;-117.11;5.0;991.01;59.877;35.956528;-83.924675;812.19;NaN;;5.9;12.226105;242.3;17 / 20;237023;2022-10-23 13:41:29:749
13.8559;-1.1001;-3.2752;9.5369;0.7106;-2.1712;5.5372;-2.9097;-0.8557;-2.5154;1.2575;3.6746;547.0;-38.36;-18.79;-11.38;262.08;-27.24;-117.55;5.0;990.97;52.753;35.956528;-83.924675;812.19;NaN;;5.9;12.226105;242.3;17 / 20;237523;2022-10-23 13:41:30:249
17.502;-6.1875;1.0893;8.5683;-3.6309;-3.0937;10.23;3.6107;3.446;1.3859;1.2608;-3.8376;576.0;-40.35;9.43;-10.69;260.08;21.73;-109.85;5.0;991.01;55.26;35.95652;-83.92469;812.21;NaN;;5.22;12.226105;240.1;17 / 20;238023;2022-10-23 13:41:30:749
5.802;4.8458;5.2119;3.2502;4.3601;8.1606;1.3309;-1.2741;-3.3983;-0.9447;2.2705;0.4084;624.0;-13.14;-22.48;-26.21;160.21;-26.4;-21.72;5.0;990.97;52.402;35.95652;-83.92469;812.21;NaN;;5.22;12.226105;240.1;17 / 20;238524;2022-10-23 13:41:31:250
5.2226;2.9638;7.0603;3.4015;3.7852;8.3828;0.0997;0.6788;4.3947;0.3959;-1.0839;0.5327;5967.0;10.14;-23.91;-30.92;239.36;-23.74;-18.29;5.0;990.96;48.636;35.956512;-83.9247;813.19;NaN;;6.26;12.226105;240.6;18 / 20;239023;2022-10-23 13:41:31:749
8.7446;-1.5263;3.6882;7.9651;-0.4608;5.7022;4.9874;-1.6602;7.5638;-2.0156;-1.8811;-1.0438;2620.0;-5.34;-18.71;-32.57;236.84;-13.6;-41.64;5.0;990.98;51.352;35.956512;-83.9247;813.19;NaN;;6.26;12.226105;240.6;18 / 20;239524;2022-10-23 13:41:32:250
11.3169;-2.6623;2.321;8.7879;-1.4824;4.0921;3.2477;-1.0335;9.1164;4.2943;-0.18;-0.7086;3927.0;-19.8;11.19;-30.47;288.35;8.69;-65.03;5.0;990.93;52.907;35.956505;-83.92471;813.08;NaN;;5.72;12.226105;237.4;18 / 20;240024;2022-10-23 13:41:32:750
8.4009;3.3123;-0.7612;9.5728;2.0866;0.4215;4.5538;-0.9736;-0.2352;-2.0541;-0.5307;0.6338;1276.0;-30.13;-19.33;-21.32;238.62;-12.29;-87.48;5.0;991.03;61.129;35.956505;-83.92471;813.08;NaN;;5.72;12.226105;237.4;18 / 20;240523;2022-10-23 13:41:33:249
7.4169;-0.0455;1.2664;8.3222;3.5439;3.7885;3.4689;-3.0134;-0.3464;1.5016;1.9199;-1.6888;740.0;-33.66;-6.11;-25.97;265.17;-6.55;-77.98;5.0;990.94;60.123;35.956493;-83.92472;813.57;NaN;;5.51;12.226105;238.2;18 / 20;241024;2022-10-23 13:41:33:750
13.4572;-1.2915;1.3382;9.6317;1.8055;-0.3763;6.3376;-3.7743;0.5934;-4.6208;-0.409;2.8695;927.0;-26.19;-16.33;-30.66;250.76;-10.61;-92.24;5.0;991.0;60.519;35.956493;-83.92472;813.57;NaN;;5.51;12.226105;238.2;18 / 20;241525;2022-10-23 13:41:34:251
14.0222;-5.0492;-0.4143;9.7745;-0.2957;-0.7358;6.2509;-4.5411;0.6955;3.037;1.249;-3.382;1141.0;-36.58;21.28;-7.67;291.18;21.35;-110.99;5.0;990.97;63.187;35.95649;-83.924736;813.47;NaN;;5.29;12.226105;249.1;18 / 20;242023;2022-10-23 13:41:34:749
10.826;2.2301;0.358;8.9705;3.9606;-0.1178;-0.2141;-6.2438;-0.2635;-1.2461;-0.4736;2.9754;1455.0;-35.25;-17.16;-24.04;266.39;-23.82;-90.75;5.0;990.99;59.707;35.95649;-83.924736;813.47;NaN;;5.29;12.226105;249.1;18 / 20;242523;2022-10-23 13:41:35:249
6.4965;-3.6775;-1.197;9.7845;-0.6326;-0.1858;4.7524;-4.2308;0.8616;1.8682;-0.015;-2.7261;682.0;-42.04;6.3;-17.66;249.58;24.29;-102.2;5.0;990.95;54.203;35.95648;-83.92475;814.48;NaN;;6.52;12.226105;255.0;18 / 20;243024;2022-10-23 13:41:35:750
9.8231;-3.8892;1.8422;8.3291;-4.6957;-2.1789;3.3066;0.5076;2.6108;-2.1039;-0.6565;3.0008;598.0;-41.31;-12.21;-17.68;232.38;8.26;-96.63;5.0;990.96;60.008;35.95648;-83.92475;814.48;NaN;;6.52;12.226105;255.0;18 / 20;243525;2022-10-23 13:41:36:251
12.2459;-8.7817;-0.25;8.9898;-3.7365;-1.1801;8.5852;-5.7674;3.1534;2.6712;1.0532;-4.3592;789.0;-34.76;26.14;-10.16;308.02;22.4;-97.48;5.0;990.91;61.727;35.956474;-83.92477;813.72;NaN;;5.18;12.226105;248.2;18 / 20;244024;2022-10-23 13:41:36:750
9.3012;5.2872;-1.4342;8.9571;3.7648;-1.3296;2.3172;1.0308;-0.1292;0.2776;-0.5957;1.533;905.0;-34.46;-27.07;-16.54;239.24;-22.58;-98.44;5.0;990.93;48.687;35.956474;-83.92477;813.72;NaN;;5.18;12.226105;248.2;18 / 20;244523;2022-10-23 13:41:37:249
10.8847;4.8314;-3.0308;8.962;2.5727;-3.0387;10.3488;3.3779;-1.7171;-0.152;0.7331;-1.007;709.0;-38.96;-26.36;-8.87;232.05;-16.54;-105.54;5.0;990.98;48.241;35.95647;-83.92478;816.53;NaN;;5.58;12.226105;257.9;18 / 20;245024;2022-10-23 13:41:37:750
