ACCELEROMETER X (m/s²);ACCELEROMETER Y (m/s²);ACCELEROMETER Z (m/s²);GRAVITY X (m/s²);GRAVITY Y (m/s²);GRAVITY Z (m/s²);LINEAR ACCELERATION X (m/s²);LINEAR ACCELERATION Y (m/s²);LINEAR ACCELERATION Z (m/s²);GYROSCOPE X (rad/s);GYROSCOPE Y (rad/s);GYROSCOPE Z (rad/s);LIGHT (lux);MAGNETIC FIELD X (μT);MAGNETIC FIELD Y (μT);MAGNETIC FIELD Z (μT);ORIENTATION Z (azimuth °);ORIENTATION X (pitch °);ORIENTATION Y (roll °);PROXIMITY (i);ATMOSPHERIC PRESSURE (hPa);SOUND LEVEL (dB);LOCATION Latitude : ;LOCATION Longitude : ;LOCATION Altitude ( m);LOCATION Altitude-google ( m);LOCATION Altitude-atmospheric pressure ( m);LOCATION Speed ( Kmh);LOCATION Accuracy ( m);LOCATION ORIENTATION (°);Satellites in range;Time since start in ms ;YYYY-MO-DD HH-MI-SS_SSS
-1.8111;2.211;8.068;-1.9894;1.1891;9.5288;-0.899;0.8903;-2.5868;-1.4317;-1.0068;0.2971;789.0;2.68;-37.14;-29.66;174.49;-6.96;11.79;5.0;982.56;60.577;35.957916;-83.92456;828.97;NaN;;5.0;13.604662;154.6;9 / 17;20;2022-10-14 17:07:16:619
2.9363;3.1627;6.9655;-0.7372;1.6534;9.6381;-0.4925;-1.7373;-1.4347;0.306;-0.7068;0.9934;884.0;-1.5;-29.23;-37.22;162.61;-5.64;10.82;5.0;982.59;58.77;35.957905;-83.92455;821.04;NaN;;4.79;12.595087;154.6;9 / 17;520;2022-10-14 17:07:17:119
-4.2114;3.4738;6.8279;2.7499;1.9584;9.2072;-0.6612;0.0249;-1.0675;0.162;0.4837;-0.3215;942.0;-14.66;-31.37;-31.39;166.87;-11.52;-16.63;5.0;982.6;59.77;35.957905;-83.92455;821.04;NaN;;4.79;12.595087;154.6;9 / 17;1021;2022-10-14 17:07:17:620
11.6964;1.6041;-9.2088;7.8769;4.3215;-3.9306;-4.164;-4.3738;0.0699;4.7093;-1.9442;0.7985;406.0;-18.21;-33.45;-4.76;189.15;-36.59;-82.14;5.0;982.54;60.59;35.95789;-83.92454;830.91;NaN;;3.56;12.226105;160.3;9 / 17;1521;2022-10-14 17:07:18:120
13.8093;3.4594;-1.2927;9.0874;-2.1904;-2.9651;0.6803;5.324;3.9227;0.4468;-1.069;1.2907;170.0;-29.06;-24.28;25.59;142.61;3.72;-101.04;5.0;982.61;59.101;35.95789;-83.92454;830.91;NaN;;3.56;12.226105;160.3;9 / 17;2019;2022-10-14 17:07:18:618
7.2135;-4.1991;-5.7434;9.4268;2.7002;-0.1195;-3.0684;-6.1231;-3.6873;0.6115;-0.3437;0.1125;190.0;-36.07;-26.27;17.01;132.25;-15.98;-90.73;5.0;982.59;57.747;35.95788;-83.92453;835.44;NaN;;4.07;12.226105;149.2;9 / 17;2520;2022-10-14 17:07:19:119
13.6678;5.601;0.1507;7.2334;-3.9749;-5.296;7.3143;7.4893;5.3501;-0.2897;-1.5425;1.0631;296.0;-34.56;-25.76;21.38;173.38;20.49;-114.67;5.0;982.59;58.674;35.95788;-83.92453;835.44;NaN;;4.07;12.226105;149.2;9 / 17;3021;2022-10-14 17:07:19:620
6.0631;-4.264;-5.298;7.2823;5.5143;-3.5679;0.6007;-10.1215;0.6213;1.5385;-0.1532;0.0686;179.0;-32.78;-24.75;24.81;74.66;-34.22;-116.1;5.0;982.61;59.232;35.957874;-83.92453;829.21;NaN;;4.43;12.226105;138.1;9 / 17;3521;2022-10-14 17:07:20:120
12.714;1.3442;-2.1882;8.3174;-2.2947;-4.6611;1.1847;2.3172;3.7195;-1.9023;-0.4239;2.9596;195.0;-23.78;-28.31;30.92;156.77;13.53;-119.27;5.0;982.64;58.454;35.957874;-83.92453;829.21;NaN;;4.43;12.226105;138.1;9 / 17;4019;2022-10-14 17:07:20:618
6.5551;-2.6527;-3.8557;9.0594;2.589;-2.7192;-2.5514;-5.2936;-1.0234;1.1165;-0.4641;-0.9473;197.0;-35.34;-28.46;14.64;159.13;-11.52;-101.65;5.0;982.61;58.809;35.957867;-83.924515;832.85;NaN;;4.75;12.226105;138.9;9 / 17;4519;2022-10-14 17:07:21:118
14.4844;0.5758;0.4513;8.3626;-3.424;-3.8095;-0.354;2.6066;2.8701;-2.0534;-0.2034;2.1134;269.0;-27.97;-29.7;14.72;170.63;10.9;-107.59;5.0;982.6;59.808;35.957867;-83.924515;832.85;NaN;;4.75;12.226105;138.9;9 / 17;5019;2022-10-14 17:07:21:618
6.6772;-4.1943;-2.9913;9.0797;3.246;-1.7868;-3.1715;-6.1753;-0.8866;0.4862;0.1095;-1.4225;174.0;-35.31;-17.78;7.2;174.81;-10.16;-99.64;5.0;982.61;58.032;35.95786;-83.92451;834.13;NaN;;4.61;12.226105;142.8;9 / 17;5520;2022-10-14 17:07:22:119
12.1502;-0.0826;0.1376;7.9876;-4.2008;-3.8369;1.5728;2.6444;2.1012;-0.0807;-0.4169;0.9509;216.0;-31.54;-19.8;16.97;177.5;25.36;-115.66;5.0;982.64;57.979;35.95786;-83.92451;834.13;NaN;;4.61;12.226105;142.8;9 / 17;6020;2022-10-14 17:07:22:619
6.446;-3.2225;-3.0356;9.4387;2.2127;-1.4783;-2.4613;-5.3223;-1.0184;0.9714;0.1761;-2.1338;132.0;-38.96;-15.0;15.38;121.56;-13.04;-98.9;5.0;982.6;57.229;35.957848;-83.9245;834.04;NaN;;4.61;12.226105;145.5;9 / 17;6520;2022-10-14 17:07:23:119
9.294;0.492;-3.9024;8.511;-2.381;-4.2502;0.0804;2.0289;0.8802;-0.2072;-1.1163;1.5285;131.0;-33.88;-26.12;23.42;171.28;14.05;-116.54;5.0;982.64;58.566;35.957848;-83.9245;834.04;NaN;;4.61;12.226105;145.5;9 / 17;7020;2022-10-14 17:07:23:619
6.172;-2.5415;-3.7241;8.5287;3.4388;-3.4067;-1.3271;-5.7485;-0.0299;0.5995;0.2835;-2.3501;97.0;-33.64;-22.65;26.93;144.55;-6.47;-111.11;5.0;982.62;57.331;35.95784;-83.924484;833.86;NaN;;4.54;12.226105;142.2;9 / 17;7520;2022-10-14 17:07:24:119
8.1509;-0.2189;-2.5196;8.4052;-3.8232;-3.3024;0.0405;3.6349;0.4998;-0.7109;0.4097;1.7944;131.0;-27.6;-30.0;21.98;164.01;12.32;-111.04;5.0;982.63;57.445;35.95784;-83.924484;833.86;NaN;;4.54;12.226105;142.2;9 / 17;8020;2022-10-14 17:07:24:619
5.2406;-4.1201;-2.2648;9.6692;0.7971;-1.4287;-0.8155;-3.91;-0.7333;0.8125;-0.2124;-0.8027;100.0;-38.34;-19.76;11.76;159.32;-4.66;-98.4;5.0;982.62;57.27;35.95783;-83.92448;834.02;NaN;;5.15;12.226105;147.7;9 / 17;8520;2022-10-14 17:07:25:119
11.0716;-3.6173;3.0476;7.8688;-4.8585;-3.263;0.6354;0.6628;3.8536;-4.2678;1.3109;3.0108;122.0;-31.61;-25.54;11.87;174.39;17.34;-104.79;5.0;982.62;57.116;35.95783;-83.92448;834.02;NaN;;5.15;12.226105;147.7;9 / 17;9019;2022-10-14 17:07:25:618
6.731;-4.8876;-5.0157;9.7201;-1.2726;0.2649;-1.4064;-4.7826;0.3998;1.8295;-2.6724;-1.5459;103.0;-40.46;-7.35;0.24;174.87;7.46;-88.44;5.0;982.6;58.461;35.957817;-83.92448;833.84;NaN;;4.61;12.226105;160.9;9 / 17;9521;2022-10-14 17:07:26:120
8.9623;-3.3637;-0.8572;7.7024;-5.2639;-3.0225;-0.058;2.4352;2.0686;-1.1091;-0.1329;2.0042;127.0;-36.86;-14.57;15.86;177.7;32.46;-111.43;5.0;982.62;57.613;35.957817;-83.92448;833.84;NaN;;4.61;12.226105;160.9;9 / 17;10020;2022-10-14 17:07:26:619
9.3144;-7.6552;-2.3474;9.7457;0.3738;-1.0258;-0.9386;-6.3268;-0.7207;1.472;-0.2791;-1.7571;104.0;-42.68;-7.91;9.62;154.84;8.25;-94.41;5.0;982.59;57.814;35.9578;-83.92447;834.86;NaN;;4.82;12.226105;168.3;9 / 17;10520;2022-10-14 17:07:27:119
10.8571;-3.2883;-5.0731;8.6828;-3.7174;-2.6384;-2.0955;2.3143;1.0749;-0.4997;-0.2862;1.5675;205.0;-41.12;-20.19;12.75;173.88;11.7;-103.55;5.0;982.6;57.331;35.9578;-83.92447;834.86;NaN;;4.82;12.226105;168.3;9 / 17;11019;2022-10-14 17:07:27:618
7.7665;-6.2246;-1.0259;9.787;0.0996;-0.6123;-2.7343;-3.9817;-0.087;1.9367;0.5576;-2.023;162.0;-43.5;-10.58;14.04;159.41;12.05;-98.44;5.0;982.57;58.126;35.957787;-83.92447;835.25;NaN;;4.57;12.226105;167.7;9 / 17;11519;2022-10-14 17:07:28:118
9.0867;-1.6472;-1.8494;8.9333;-3.2684;-2.3841;-1.8477;2.2128;1.0658;0.2804;-0.84;0.802;111.0;-39.69;-14.7;19.89;162.6;19.47;-104.94;5.0;982.61;56.691;35.957787;-83.92447;835.25;NaN;;4.57;12.226105;167.7;9 / 17;12021;2022-10-14 17:07:28:620
7.1189;-4.477;-2.6599;9.6879;0.0293;-1.5215;-2.5025;-3.1446;-0.5701;0.265;0.4327;-1.9267;121.0;-41.08;-10.87;22.41;125.26;-0.17;-98.93;5.0;982.6;58.425;35.957775;-83.92447;833.74;NaN;;4.61;12.226105;158.7;9 / 17;12519;2022-10-14 17:07:29:118
9.5489;-2.3785;-1.841;8.8281;-2.9443;-3.0929;0.3271;0.4894;0.1377;-0.2837;-0.5826;1.168;177.0;-40.24;-19.22;23.03;165.04;17.47;-109.31;5.0;982.59;57.072;35.957775;-83.92447;833.74;NaN;;4.61;12.226105;158.7;9 / 17;13021;2022-10-14 17:07:29:620
6.233;-4.1142;-1.325;9.7697;-0.3585;-0.7712;0.2034;-4.247;-0.6477;0.8733;1.2095;-2.9615;159.0;-45.47;-9.32;17.12;170.52;23.25;-105.28;5.0;982.57;58.359;35.95776;-83.92446;831.71;NaN;;4.68;12.226105;161.9;9 / 17;13521;2022-10-14 17:07:30:120
8.5576;-1.7118;-1.3537;8.7433;-3.2282;-3.0502;-0.3484;1.3409;1.6135;-2.9182;0.3222;1.7987;218.0;-40.39;-22.48;17.12;167.66;12.33;-104.15;5.0;982.57;57.463;35.95776;-83.92446;831.71;NaN;;4.68;12.226105;161.9;9 / 17;14020;2022-10-14 17:07:30:619
8.5301;-5.6979;-0.65;9.5917;-1.9213;-0.6909;5.3201;-5.3762;0.6495;2.9308;-0.6801;-3.3623;252.0;-46.11;-8.42;12.79;150.41;11.3;-94.12;5.0;982.54;58.398;35.95775;-83.92446;832.91;NaN;;4.54;12.226105;166.0;9 / 17;14520;2022-10-14 17:07:31:119
7.8347;-0.8632;-1.4402;8.6456;-2.3051;-4.0138;1.3991;1.9868;2.9513;-1.8892;0.9964;2.0597;245.0;-34.87;-21.73;24.26;168.38;6.15;-117.1;5.0;982.51;56.566;35.95775;-83.92446;832.91;NaN;;4.54;12.226105;166.0;9 / 17;15020;2022-10-14 17:07:31:619
6.5635;-3.5252;-4.4734;9.3323;-0.6389;-2.9445;5.9286;-1.0089;0.2634;1.4965;-0.2624;-3.3836;216.0;-41.34;-15.81;19.56;160.39;3.74;-107.51;5.0;982.52;56.289;35.957737;-83.92445;832.24;NaN;;4.79;12.226105;147.3;10 / 17;15520;2022-10-14 17:07:32:119
6.664;3.0141;5.6548;8.2293;2.4213;4.7525;1.2216;0.9286;3.5659;-1.3798;1.9001;0.4923;336.0;-24.36;-33.49;4.88;149.26;-14.29;-59.99;5.0;982.53;55.633;35.957737;-83.92445;832.24;NaN;;4.79;12.226105;147.3;10 / 17;16021;2022-10-14 17:07:32:620
1.8876;4.0496;7.6481;1.6841;4.1963;8.702;0.293;-0.5126;0.1792;0.5192;0.0999;0.7928;951.0;-3.96;-31.67;-30.39;182.35;-22.5;-8.99;5.0;982.51;56.09;35.95773;-83.924446;836.14;NaN;;4.86;12.226105;155.6;10 / 17;16520;2022-10-14 17:07:33:119
-0.9553;5.176;4.847;1.7041;5.8047;7.7183;-0.4119;-1.7514;2.6857;0.9459;-0.7046;-0.3211;861.0;-3.97;-38.57;-21.94;177.37;-31.1;-7.73;5.0;982.48;55.768;35.95773;-83.924446;836.14;NaN;;4.86;12.226105;155.6;10 / 17;17021;2022-10-14 17:07:33:620
4.5691;4.4961;0.3485;3.9657;6.6642;6.0027;0.1608;-0.4281;1.5754;1.2328;-1.1904;0.864;726.0;-2.49;-41.64;-14.57;183.93;-35.96;-14.16;5.0;982.47;56.481;35.957718;-83.92444;837.91;NaN;;4.57;12.226105;147.5;10 / 17;17520;2022-10-14 17:07:34:119
20.0088;3.1292;-7.0508;9.6869;0.2078;-1.5134;15.5475;-3.3302;-2.3114;-5.0196;-0.0558;-0.192;776.0;-20.42;-34.31;9.94;168.55;-1.21;-98.88;5.0;982.5;55.71;35.957718;-83.92444;837.91;NaN;;4.57;12.226105;147.5;10 / 17;18021;2022-10-14 17:07:34:620
40.8912;6.0739;14.1072;8.7019;3.033;-3.3538;-0.6802;-6.8887;13.8276;0.4228;3.2224;5.7427;771.0;-20.57;-35.81;6.77;182.13;-18.02;-111.08;5.0;982.44;56.727;35.957703;-83.92444;835.92;NaN;;4.36;12.226105;172.2;10 / 17;18521;2022-10-14 17:07:35:120
23.243;8.6845;-2.5989;9.1311;2.1595;-2.8513;-10.5711;-14.2517;-8.4167;0.3098;-2.2472;-1.9442;793.0;-16.56;-29.81;22.43;146.69;-12.72;-107.34;5.0;982.46;56.387;35.957703;-83.92444;835.92;NaN;;4.36;12.226105;172.2;10 / 17;19020;2022-10-14 17:07:35:619
22.7477;-6.536;28.7483;8.7025;-3.165;3.2281;-0.9056;-6.7512;9.1908;-5.9808;1.4726;7.5965;956.0;-15.34;-32.62;17.01;140.2;-32.94;-94.97;5.0;982.52;58.424;35.95769;-83.92442;836.28;NaN;;6.98;12.226105;146.5;10 / 17;19519;2022-10-14 17:07:36:118
21.2644;-4.8099;23.2442;9.4534;2.1543;-1.4707;10.6365;-7.7956;19.8689;3.6003;-2.9479;-5.2095;1058.0;-34.69;-13.63;-33.06;200.9;28.04;-62.41;5.0;982.53;56.799;35.95769;-83.92442;836.28;NaN;;6.98;12.226105;146.5;10 / 17;20019;2022-10-14 17:07:36:618
25.0256;-9.7259;18.1926;9.6979;-0.8635;1.1728;-12.0333;-2.888;-4.961;6.3757;-0.4964;2.756;632.0;-14.04;-31.18;14.4;154.01;5.05;-83.1;5.0;982.56;56.487;35.95768;-83.924416;836.75;NaN;;4.46;12.226105;163.6;10 / 17;20519;2022-10-14 17:07:37:118
36.0239;-24.4271;3.2154;8.2758;-5.177;0.9378;3.1059;1.0394;-4.5976;-7.6158;-6.7161;-0.6364;686.0;-29.74;-25.82;-28.8;143.09;4.4;-14.9;5.0;982.5;57.822;35.95768;-83.924416;836.75;NaN;;4.46;12.226105;163.6;10 / 17;21019;2022-10-14 17:07:37:618
2.6898;-0.7875;0.9505;8.8605;4.0938;-0.9504;-2.8446;-3.1862;5.7065;-3.7562;4.249;10.2241;559.0;-28.67;-28.28;-22.28;240.05;-24.67;-96.12;5.0;982.47;55.432;35.957672;-83.924416;834.84;NaN;;4.43;12.226105;158.4;10 / 17;21519;2022-10-14 17:07:38:118
16.9394;-10.5987;7.162;3.9028;-6.3458;6.3773;8.9248;5.8611;-3.8846;-3.8886;-0.6323;-2.6225;425.0;-18.94;-15.6;-32.68;181.59;40.32;-31.47;5.0;982.49;56.326;35.957672;-83.924416;834.84;NaN;;4.43;12.226105;158.4;10 / 17;22019;2022-10-14 17:07:38:618
1.3968;-12.2507;5.2705;9.3204;0.8214;2.9371;-12.0896;-1.0111;-1.6835;-3.1208;0.7891;5.0102;818.0;-6.51;-24.17;-26.12;255.02;-55.1;-86.9;5.0;982.43;53.644;35.95766;-83.9244;836.37;NaN;;5.54;12.226105;156.5;10 / 17;22519;2022-10-14 17:07:39:118
7.1142;-9.4125;10.0014;-0.7033;4.0824;8.8887;9.5016;-7.3476;-8.3475;1.9578;1.9424;-0.2999;652.0;-17.78;-16.43;-24.81;117.54;-15.76;-5.03;5.0;982.41;54.359;35.95766;-83.9244;836.37;NaN;;5.54;12.226105;156.5;10 / 17;23020;2022-10-14 17:07:39:619
-2.8525;-5.6022;2.8346;6.9041;4.1955;5.5589;-9.0474;-10.3238;-0.5976;1.9966;-1.8721;-1.8265;1166.0;-10.71;-11.29;-35.55;256.84;-12.37;-38.64;5.0;982.42;54.256;35.95765;-83.92439;835.08;NaN;;5.76;12.226105;143.8;10 / 17;23519;2022-10-14 17:07:40:118
5.9495;-1.8948;-2.4144;0.9318;1.986;9.5581;10.8482;-8.7704;-8.4431;-2.8202;-0.9044;-0.6334;1114.0;-20.79;-11.96;-36.24;103.2;-11.68;-5.57;5.0;982.43;54.36;35.95765;-83.92439;835.08;NaN;;5.76;12.226105;143.8;10 / 17;24019;2022-10-14 17:07:40:618
1.5275;2.9399;1.9211;4.1896;8.1434;-3.5076;-3.0372;-8.0947;6.585;0.6982;0.4849;-1.9023;930.0;-20.96;-27.73;-19.76;245.9;-56.14;-129.94;5.0;982.4;54.415;35.95764;-83.92438;835.59;NaN;;5.44;12.226105;135.4;10 / 17;24520;2022-10-14 17:07:41:119
8.6785;-3.9275;0.2838;3.0926;-1.7248;9.145;5.9863;-1.9955;-8.7006;1.9914;-1.1574;0.521;442.0;-16.74;-29.94;-17.19;156.54;19.44;-6.42;5.0;982.45;53.588;35.95764;-83.92438;835.59;NaN;;5.44;12.226105;135.4;10 / 17;25020;2022-10-14 17:07:41:619
2.776;-5.2992;3.4355;6.3531;7.2182;1.9253;-1.8414;-13.995;7.8251;2.3236;0.9588;-2.5635;767.0;-30.28;-15.54;-35.68;278.29;-28.03;-74.8;5.0;982.42;53.791;35.95763;-83.92436;834.83;NaN;;4.5;12.226105;139.6;10 / 17;25521;2022-10-14 17:07:42:120
13.1806;-7.7581;4.9941;4.2882;4.2858;7.708;10.3487;-10.1201;-2.4669;4.8878;0.8715;-0.793;743.0;-27.04;-22.56;-24.84;159.67;3.3;-32.61;5.0;982.45;53.416;35.95763;-83.92436;834.83;NaN;;4.5;12.226105;139.6;10 / 17;26019;2022-10-14 17:07:42:618
9.4101;-19.561;11.3157;6.1354;-6.2275;4.4436;7.3552;3.2134;-4.7399;-4.9092;4.4829;-7.2582;1119.0;-35.1;-17.57;-18.43;171.24;39.42;-54.09;5.0;982.51;53.498;35.957623;-83.924355;836.76;NaN;;4.72;12.226105;145.6;10 / 17;26519;2022-10-14 17:07:43:118
4.4674;-13.8332;14.9249;6.2531;-5.9034;4.7137;-6.2773;-0.4542;-2.625;-2.7851;-2.0083;6.5994;909.0;-24.21;-13.99;-34.52;233.65;-8.44;-48.93;5.0;982.43;54.796;35.957623;-83.924355;836.76;NaN;;4.72;12.226105;145.6;10 / 17;27020;2022-10-14 17:07:43:619
22.9487;-3.2871;3.9682;5.6775;-1.5998;7.8344;-1.095;2.871;-12.0333;-6.6559;0.128;-9.376;709.0;-37.01;-18.84;-25.88;150.25;9.39;-35.93;5.0;982.47;53.701;35.95761;-83.92435;835.83;NaN;;4.97;12.226105;153.0;9 / 17;27519;2022-10-14 17:07:44:118
6.4125;-1.9944;9.3622;8.2157;1.369;5.1767;-9.2046;1.6992;-0.6271;-0.0497;2.8364;5.1953;628.0;-8.55;-37.99;-11.42;187.19;-8.02;-57.79;5.0;982.4;53.547;35.95761;-83.92435;835.83;NaN;;4.97;12.226105;153.0;9 / 17;28019;2022-10-14 17:07:44:618
25.5488;-12.393;24.2438;8.3;2.032;4.8116;15.0443;-0.2414;-5.2434;-7.7386;-5.0326;-6.8242;618.0;-35.1;-24.62;-15.38;164.61;-11.96;-59.9;5.0;982.44;58.075;35.9576;-83.92434;834.23;NaN;;5.36;12.226105;151.7;10 / 17;28519;2022-10-14 17:07:45:118
9.3072;-14.3551;15.7448;4.084;8.828;1.2478;-5.7458;-6.1265;-0.319;1.3073;-0.1518;0.1959;833.0;-2.64;-35.18;-12.56;247.51;-68.03;-51.98;5.0;982.33;63.775;35.9576;-83.92434;834.23;NaN;;5.36;12.226105;151.7;10 / 17;29019;2022-10-14 17:07:45:618
29.5983;-6.5157;14.7739;7.8064;-1.7575;5.6694;4.6729;5.3581;-14.3066;-5.546;-4.3921;-0.7608;719.0;-33.79;-26.55;-13.78;126.38;-14.3;-19.83;5.0;982.41;61.513;35.957592;-83.92433;835.26;NaN;;4.9;12.226105;155.9;10 / 17;29520;2022-10-14 17:07:46:119
25.0795;-13.6941;16.7216;5.7149;7.2024;3.4111;-5.3753;-6.4176;1.7713;-0.1926;3.2794;11.749;832.0;-6.58;-37.26;-20.4;225.89;-47.26;-59.17;5.0;982.35;56.653;35.957592;-83.92433;835.26;NaN;;4.9;12.226105;155.9;10 / 17;30019;2022-10-14 17:07:46:618
24.6891;-0.0371;-2.569;5.5146;1.3168;8.0016;0.1994;0.4219;-10.8852;-2.1781;-0.7071;0.0825;786.0;-40.57;-28.31;-11.04;130.38;-7.72;-34.57;5.0;982.4;60.341;35.957577;-83.92432;835.02;NaN;;5.36;12.226105;154.7;10 / 17;30519;2022-10-14 17:07:47:118
-8.8187;-2.953;5.7123;2.9658;9.3449;-0.2189;-1.6788;-7.8144;3.9347;1.9513;4.5755;4.0103;904.0;-14.17;-33.94;-4.33;298.39;-72.35;-94.22;5.0;982.35;57.603;35.957577;-83.92432;835.02;NaN;;5.36;12.226105;154.7;10 / 17;31019;2022-10-14 17:07:47:618
11.5732;-4.6875;1.3095;8.0943;-3.5151;-4.2774;5.8243;-1.4769;4.3558;-2.148;-3.3639;0.9937;281.0;-18.86;-29.92;0.47;194.62;21.0;-117.85;5.0;982.46;58.82;35.95757;-83.92431;838.66;NaN;;5.04;12.226105;157.3;10 / 17;31520;2022-10-14 17:07:48:119
8.1604;-4.0101;-3.3218;9.7644;-0.6119;0.6728;1.1826;-4.3641;-3.2587;3.4372;1.3401;-2.3179;162.0;-40.82;-10.84;-0.62;201.6;19.05;-101.68;5.0;982.44;59.816;35.95757;-83.92431;838.66;NaN;;5.04;12.226105;157.3;10 / 17;32019;2022-10-14 17:07:48:618
7.363;-2.9411;0.6488;8.5174;-3.5942;-3.272;3.9812;-0.7743;-2.9728;-2.6132;-0.0446;1.5058;111.0;-39.43;-23.64;10.58;185.72;21.5;-111.01;5.0;982.44;54.762;35.957558;-83.9243;839.83;NaN;;5.08;12.226105;153.9;10 / 17;32519;2022-10-14 17:07:49:118
8.3518;-4.8888;-2.8884;9.6234;-1.8193;-0.4998;3.6155;-4.2593;-0.0312;3.4357;1.6264;-2.3624;98.0;-46.52;-11.33;5.91;207.67;22.81;-115.08;5.0;982.42;54.341;35.957558;-83.9243;839.83;NaN;;5.08;12.226105;153.9;10 / 17;33019;2022-10-14 17:07:49:618
9.3802;-1.3035;-0.9709;9.4748;-1.8028;-1.7745;-0.2847;0.6284;-2.2446;-1.6333;-0.3818;1.7175;76.0;-40.67;-27.6;3.69;185.89;10.59;-100.61;5.0;982.44;52.85;35.957542;-83.92429;837.44;NaN;;4.75;12.226105;153.8;10 / 17;33519;2022-10-14 17:07:50:118
8.7446;-4.0998;-1.7991;9.2878;-2.8153;-1.4072;4.2013;-0.5559;2.5559;1.6034;1.3446;-1.5672;74.0;-46.16;-14.06;10.56;171.59;16.68;-98.62;5.0;982.43;52.971;35.957542;-83.92429;837.44;NaN;;4.75;12.226105;153.8;10 / 17;34021;2022-10-14 17:07:50:620
11.3527;-1.6675;-2.5618;8.8491;-3.4874;-2.3881;3.6454;1.842;-0.4786;-0.7583;-0.6482;1.7905;103.0;-41.79;-26.44;9.24;174.29;8.91;-97.78;5.0;982.43;52.35;35.957535;-83.924286;835.92;NaN;;4.82;12.226105;150.3;10 / 17;34521;2022-10-14 17:07:51:120
12.9532;-1.89;0.1149;8.4706;-4.3391;-2.3647;5.8804;0.6704;1.189;-0.1791;0.7839;-0.1306;94.0;-46.11;-13.54;12.73;188.38;29.59;-112.09;5.0;982.41;51.948;35.957535;-83.924286;835.92;NaN;;4.82;12.226105;150.3;10 / 17;35021;2022-10-14 17:07:51:620
11.0501;-1.6472;-2.9028;9.429;-2.2822;-1.4341;0.6374;-2.3751;-2.0153;-0.5249;-0.8713;1.8987;93.0;-44.32;-22.78;9.13;163.05;0.25;-92.5;5.0;982.43;55.785;35.957523;-83.92428;835.06;NaN;;4.75;12.226105;153.9;11 / 17;35520;2022-10-14 17:07:52:119
13.3735;-3.8725;0.9015;7.4865;-5.6205;-2.9211;4.2616;4.1192;2.2073;0.0057;0.9369;-1.1306;91.0;-48.21;-12.6;11.78;189.18;34.97;-111.32;5.0;982.43;51.261;35.957523;-83.92428;835.06;NaN;;4.75;12.226105;153.9;11 / 17;36020;2022-10-14 17:07:52:619
8.6773;-3.7397;-2.2181;9.7119;-1.1979;-0.6437;-1.7266;-3.5683;-1.6554;-0.7831;-0.147;0.4376;86.0;-44.89;-21.36;5.49;175.63;7.02;-93.79;5.0;982.41;51.103;35.95751;-83.92427;834.61;NaN;;4.61;12.226105;149.2;11 / 17;36521;2022-10-14 17:07:53:120
14.4975;-3.146;-0.7768;8.3744;-4.6868;-2.0185;4.414;1.8244;1.2527;-0.2808;0.2268;0.2816;91.0;-45.11;-18.88;4.58;188.97;28.7;-104.0;5.0;982.44;51.371;35.95751;-83.92427;834.61;NaN;;4.61;12.226105;149.2;11 / 17;37020;2022-10-14 17:07:53:619
7.6337;-5.164;-2.3007;9.7321;-0.1206;-1.201;-2.4744;-3.8461;-0.3188;0.5159;-0.2046;-0.7633;114.0;-44.53;-17.44;2.7;188.22;0.7;-97.04;5.0;982.43;51.752;35.957504;-83.92427;835.17;NaN;;4.46;12.226105;148.5;11 / 17;37519;2022-10-14 17:07:54:118
13.0071;-0.8007;-1.8697;7.0784;-5.5866;-3.8544;5.1094;5.4386;1.5772;-0.4552;-0.3422;0.5579;128.0;-43.09;-15.43;8.18;195.48;34.36;-113.86;5.0;982.44;52.003;35.957504;-83.92427;835.17;NaN;;4.46;12.226105;148.5;11 / 17;38020;2022-10-14 17:07:54:619
5.9889;-4.4626;-2.4921;9.7903;0.5272;-0.206;-1.8437;-5.1296;-1.2872;0.3247;-0.134;-0.3718;138.0;-42.09;-14.87;8.44;150.76;-3.08;-91.21;5.0;982.41;50.857;35.957497;-83.924255;835.75;NaN;;4.9;12.226105;137.0;11 / 17;38519;2022-10-14 17:07:55:118
11.5552;-0.4801;-2.0973;6.9486;-5.5728;-4.1025;3.3569;3.7376;2.5951;-0.261;-0.9609;2.158;158.0;-39.82;-22.29;9.08;187.16;22.24;-108.97;5.0;982.44;52.492;35.957497;-83.924255;835.75;NaN;;4.9;12.226105;137.0;11 / 17;39020;2022-10-14 17:07:55:619
6.6616;-5.7697;-3.3721;9.6972;1.0275;-1.0388;0.3611;-6.8013;-0.4838;0.1125;-0.2905;-1.5432;146.0;-42.45;-9.77;12.84;122.69;-6.01;-96.11;5.0;982.38;53.67;35.95749;-83.92425;835.69;NaN;;5.8;12.226105;144.1;11 / 17;39520;2022-10-14 17:07:56:119
13.1734;0.3808;1.1898;7.3597;-4.5853;-4.5804;6.6977;2.6688;2.6281;-2.6724;-0.3153;1.8948;192.0;-37.43;-23.4;15.68;188.7;27.88;-121.9;5.0;982.42;51.817;35.95749;-83.92425;835.69;NaN;;5.8;12.226105;144.1;11 / 17;40019;2022-10-14 17:07:56:618
8.1939;-4.969;-1.2999;8.6761;3.8018;-2.5381;-1.3854;-9.2746;0.1474;2.408;-0.8133;-2.8838;200.0;-42.56;-15.3;10.91;144.56;-3.03;-92.62;5.0;982.39;51.407;35.957478;-83.92424;835.38;NaN;;4.79;12.226105;148.4;11 / 17;40520;2022-10-14 17:07:57:119
13.3508;-0.5806;0.9876;8.8944;-2.899;-2.9421;0.8196;0.9548;-1.1524;-4.8575;1.3243;3.8651;198.0;-28.14;-25.82;26.59;148.13;-0.99;-110.03;5.0;982.43;51.279;35.957478;-83.92424;835.38;NaN;;4.79;12.226105;148.4;11 / 17;41020;2022-10-14 17:07:57:619
7.6708;-4.2027;-2.9231;9.4688;2.3128;-1.0789;0.4439;-7.0382;-1.0562;2.4329;0.4696;-3.0741;220.0;-44.4;-13.86;13.44;161.62;6.79;-98.44;5.0;982.39;51.849;35.957462;-83.92424;832.73;NaN;;4.68;12.226105;160.6;11 / 17;41521;2022-10-14 17:07:58:120
8.7386;-2.199;-2.5606;9.1785;-1.6291;-3.0449;1.689;-1.3284;-3.8341;-1.8857;-0.6208;2.8103;233.0;-32.91;-25.5;22.78;160.35;9.56;-108.35;5.0;982.42;50.563;35.957462;-83.92424;832.73;NaN;;4.68;12.226105;160.6;11 / 17;42021;2022-10-14 17:07:58:620
10.1438;-3.9993;-4.0567;8.9887;0.0272;-3.9209;3.5344;-5.3608;-2.9116;1.9175;-0.9244;-3.6565;179.0;-35.81;-7.44;28.97;119.43;-0.16;-113.57;5.0;982.45;49.445;35.957455;-83.92423;830.73;NaN;;4.79;12.226105;151.4;11 / 17;42520;2022-10-14 17:07:59:119
8.8738;-1.3131;-4.8733;9.048;0.1636;-3.7785;-0.1994;-1.306;-0.5526;-3.3177;-0.0874;2.5783;121.0;-23.14;-13.58;36.98;105.8;-10.88;-113.77;5.0;982.43;58.674;35.957455;-83.92423;830.73;NaN;;4.79;12.226105;151.4;11 / 17;43021;2022-10-14 17:07:59:620
7.7701;-0.8764;-4.0699;9.015;-1.5417;-3.5388;4.6417;2.6828;2.5449;0.9645;0.7497;-1.0677;181.0;-34.99;-19.39;23.87;159.29;9.05;-111.43;5.0;982.41;54.579;35.957447;-83.92422;828.98;NaN;;4.82;12.226105;139.5;11 / 17;43521;2022-10-14 17:08:00:120
8.8199;-1.3143;-1.1503;8.896;-1.7953;-3.7161;1.6855;-0.0145;-0.4042;-1.7899;-0.2947;1.6394;289.0;-37.12;-24.97;14.66;174.88;3.58;-108.54;5.0;982.42;52.003;35.957447;-83.92422;828.98;NaN;;4.82;12.226105;139.5;11 / 17;44020;2022-10-14 17:08:00:619
14.1503;-4.6576;-1.7979;8.4474;-3.3577;-3.6792;7.2837;2.3591;3.4481;3.4591;0.3115;-2.9706;320.0;-43.65;-12.51;10.91;195.21;20.02;-113.54;5.0;982.32;52.764;35.95744;-83.92421;824.53;NaN;;4.18;12.226105;149.2;11 / 17;44520;2022-10-14 17:08:01:119
9.7223;-3.7732;-5.9794;9.151;0.0288;-3.5256;-2.4383;-2.4896;-0.7549;0.1516;-0.107;1.7111;273.0;-35.14;-20.94;17.33;160.14;-13.7;-109.92;5.0;982.48;52.955;35.95744;-83.92421;824.53;NaN;;4.18;12.226105;149.2;11 / 17;45021;2022-10-14 17:08:01:620
11.9285;-0.577;-0.067;7.5533;-3.8447;-4.9332;8.4839;3.7676;2.8363;1.6094;0.7282;-1.7398;254.0;-37.46;-13.63;19.29;188.45;23.08;-123.15;5.0;982.3;57.73;35.95743;-83.9242;824.03;NaN;;4.9;12.226105;141.6;11 / 17;45520;2022-10-14 17:08:02:119
8.2202;-3.396;-7.0651;9.4772;0.1636;-2.5151;-0.499;-4.6399;-4.8076;-0.068;-0.139;1.1168;275.0;-37.46;-21.37;14.63;166.17;-0.96;-104.86;5.0;982.43;59.343;35.95743;-83.9242;824.03;NaN;;4.9;12.226105;141.6;11 / 17;46021;2022-10-14 17:08:02:620
13.6546;-2.4275;3.0846;8.5659;-3.4876;-3.2608;4.6509;-3.0203;7.0534;2.3323;-1.1719;0.026;371.0;-44.16;-11.61;4.95;208.02;15.13;-112.32;5.0;982.22;55.493;35.957424;-83.92419;824.02;NaN;;4.68;12.226105;142.9;11 / 17;46519;2022-10-14 17:08:03:118
10.1282;-4.3944;-4.0101;9.5793;2.0992;0.0128;-2.3543;-7.6019;-7.4588;-0.483;1.6323;-1.4782;397.0;-43.76;-14.68;3.83;185.52;-5.82;-96.5;5.0;982.41;57.541;35.957424;-83.92419;824.02;NaN;;4.68;12.226105;142.9;11 / 17;47020;2022-10-14 17:08:03:619
13.4213;-6.7023;7.7749;8.0699;-2.9638;-4.7184;5.0106;-3.2385;11.8034;-3.365;1.9473;1.4668;462.0;-43.97;-15.66;3.32;220.86;18.34;-125.83;5.0;982.31;53.283;35.957413;-83.92418;821.05;NaN;;4.79;12.226105;152.5;11 / 17;47519;2022-10-14 17:08:04:118
5.182;-8.5385;-5.1497;9.3448;2.4725;-1.653;-2.7351;-8.9182;-2.3238;0.6857;-0.3105;1.5928;370.0;-42.41;-13.31;3.88;239.66;-14.6;-100.03;5.0;982.33;53.459;35.957413;-83.92418;821.05;NaN;;4.79;12.226105;152.5;11 / 17;48020;2022-10-14 17:08:04:619
15.1092;-5.4371;5.8678;6.4867;-3.3871;-6.5284;5.9449;1.581;7.6085;-3.4769;0.257;1.9313;379.0;-42.3;-9.53;14.31;220.86;20.21;-135.18;5.0;982.28;50.706;35.9574;-83.92416;821.75;NaN;;5.47;12.226105;136.7;10 / 17;48520;2022-10-14 17:08:05:119
8.6234;-6.463;-4.9929;9.7238;0.7771;-1.0076;-4.1357;-6.2768;-2.4274;-0.0759;0.4648;0.2593;307.0;-44.19;-8.33;6.58;182.25;-8.09;-99.12;5.0;982.34;52.194;35.9574;-83.92416;821.75;NaN;;5.47;12.226105;136.7;10 / 17;49020;2022-10-14 17:08:05:619
17.0327;-5.225;1.4617;8.3377;-3.6878;-3.613;3.1052;2.4946;4.5305;-2.1707;-0.9625;1.4576;496.0;-41.02;-18.47;8.12;195.63;22.09;-113.43;5.0;982.3;51.716;35.957382;-83.92416;818.52;NaN;;6.55;12.226105;187.6;10 / 17;49519;2022-10-14 17:08:06:118
8.8092;-4.5643;-5.802;9.4104;1.1877;-2.4908;-1.4027;-5.2588;-1.0478;1.1965;-0.594;-1.0341;441.0;-41.66;-12.45;13.97;148.83;-1.86;-100.13;5.0;982.38;51.3;35.957382;-83.92416;818.52;NaN;;6.55;12.226105;187.6;10 / 17;50020;2022-10-14 17:08:06:619
13.3747;2.6575;4.0543;8.7704;-2.1757;-3.8101;0.1715;0.4626;5.0837;-0.2156;0.6931;0.3382;420.0;-38.29;-20.38;16.58;179.1;12.82;-113.48;5.0;982.31;61.106;35.95737;-83.92416;818.03;NaN;;5.62;12.226105;148.1;10 / 17;50520;2022-10-14 17:08:07:119
6.0751;-3.6138;-2.9662;9.4414;-0.6974;-2.5582;-3.2495;-3.0026;-0.2993;1.621;-0.5521;-0.5779;438.0;-43.29;-14.74;12.54;167.73;5.41;-101.5;5.0;982.36;54.628;35.95737;-83.92416;818.03;NaN;;5.62;12.226105;148.1;10 / 17;51019;2022-10-14 17:08:07:618
12.2136;-4.7704;0.626;9.2035;-2.5596;-2.217;-5.1486;-0.1288;-2.2926;-3.7621;0.8298;2.8149;481.0;-40.44;-15.66;19.01;161.21;15.13;-103.54;5.0;982.36;54.659;35.95736;-83.92414;816.81;NaN;;5.18;12.226105;145.2;10 / 17;51520;2022-10-14 17:08:08:119
11.4867;-5.0731;-0.9206;9.6484;-1.7208;-0.3428;-0.3252;-0.6193;-0.0815;0.8813;0.5311;-1.3565;494.0;-47.46;-3.24;-3.45;202.66;10.11;-92.03;5.0;982.25;55.945;35.95736;-83.92414;816.81;NaN;;5.18;12.226105;145.2;10 / 17;52019;2022-10-14 17:08:08:618
1.325;2.2253;0.2596;7.9192;4.6431;-3.4494;-2.205;-1.4179;4.9321;-0.3272;-0.1287;-1.1352;639.0;-35.27;-32.1;2.78;213.13;-20.37;-115.02;5.0;982.3;52.573;35.95735;-83.92413;815.2;NaN;;5.29;12.226105;148.5;10 / 17;52520;2022-10-14 17:08:09:119
0.8979;-4.4662;-4.6289;7.0078;5.1532;-4.5283;3.798;-9.1325;-3.4552;4.3252;-0.4327;-4.3191;642.0;-30.71;-34.48;12.45;167.8;-12.44;-101.37;5.0;982.31;52.749;35.95735;-83.92413;815.2;NaN;;5.29;12.226105;148.5;10 / 17;53020;2022-10-14 17:08:09:619
3.5587;5.3904;2.4718;6.7763;5.1553;-4.8657;-0.967;1.0092;7.1315;-1.1899;-1.2953;-0.3086;352.0;-17.44;-26.94;34.05;120.81;-23.31;-121.29;5.0;982.4;52.398;35.957344;-83.924126;813.84;NaN;;4.97;12.226105;127.6;10 / 17;53520;2022-10-14 17:08:10:119
4.156;0.1735;3.9622;6.675;4.2779;5.7718;9.672;2.0295;-7.5895;-0.7691;3.9885;0.2895;388.0;-21.32;-39.36;9.62;145.52;-25.86;-49.15;5.0;982.34;51.339;35.957344;-83.924126;813.84;NaN;;4.97;12.226105;127.6;10 / 17;54019;2022-10-14 17:08:10:618
1.3334;-2.1117;9.3646;1.4714;-1.0728;9.6361;-0.5435;4.8181;-5.3079;-2.6367;0.9247;-0.074;1201.0;-16.87;-32.57;-30.71;161.59;6.28;-8.68;5.0;982.37;52.08;35.957336;-83.92411;813.37;NaN;;5.18;12.226105;140.4;10 / 17;54519;2022-10-14 17:08:11:118
0.207;-0.2405;7.9352;0.1783;0.5459;9.7898;0.0427;-0.6114;-1.443;0.4484;0.6212;-0.0466;1495.0;-10.86;-17.62;-43.18;161.27;1.36;-5.99;5.0;982.33;53.612;35.957336;-83.92411;813.37;NaN;;5.18;12.226105;140.4;10 / 17;55020;2022-10-14 17:08:11:619
0.7146;0.6296;9.489;0.8804;0.2536;9.7638;-0.9604;0.6423;-2.3158;-0.7759;-0.8819;-0.2194;1397.0;-6.09;-26.14;-39.32;174.34;-1.48;-5.15;5.0;982.36;51.025;35.95733;-83.9241;813.7;NaN;;4.46;12.226105;146.8;11 / 17;55520;2022-10-14 17:08:12:119
-1.5335;1.1133;8.7805;-2.4697;1.4714;9.3758;-1.4153;-0.6449;0.3399;0.7407;0.9918;-0.4941;1327.0;0.53;-25.63;-38.1;171.67;-5.35;6.45;5.0;982.37;50.321;35.95733;-83.9241;813.7;NaN;;4.46;12.226105;146.8;11 / 17;56020;2022-10-14 17:08:12:619
-1.5132;3.3482;7.1931;-0.7672;3.5136;9.1234;-0.2557;-0.0533;2.2069;0.0699;0.0729;-0.2288;929.0;10.89;-31.13;-30.88;205.49;-20.99;4.81;5.0;982.33;56.88;35.95732;-83.9241;812.55;NaN;;3.35;12.226105;175.7;11 / 17;56520;2022-10-14 17:08:13:119
-0.4202;1.9534;9.9117;-0.796;2.3845;9.479;-0.5564;-0.4023;1.2752;-0.6177;0.141;0.7307;903.0;8.21;-34.14;-29.08;191.39;-18.5;6.64;5.0;982.36;53.553;35.95732;-83.9241;812.55;NaN;;3.35;12.226105;175.7;11 / 17;57020;2022-10-14 17:08:13:619
-1.512;3.8569;8.6426;-1.0907;3.7809;8.9825;0.2198;-0.44;1.3995;-0.5583;0.2785;0.111;1015.0;2.66;-33.96;-31.59;177.35;-22.68;6.92;5.0;982.35;50.804;35.957314;-83.924095;812.35;NaN;;4.03;12.226105;153.3;10 / 17;57519;2022-10-14 17:08:14:118
-2.2887;2.0686;10.7746;-1.3571;3.1508;9.187;-1.1005;0.5603;0.5266;0.002;0.0693;-0.077;1041.0;3.08;-33.9;-31.14;175.98;-18.74;8.4;5.0;982.36;47.799;35.957314;-83.924095;812.35;NaN;;4.03;12.226105;153.3;10 / 17;58020;2022-10-14 17:08:14:619
-1.203;-2.2217;12.1525;-1.6215;-0.9395;9.6259;0.4001;-1.3393;2.5941;0.1127;0.8559;0.449;1098.0;0.83;-25.18;-39.11;169.12;5.5;9.56;5.0;982.33;49.912;35.957302;-83.924095;812.47;NaN;;4.61;12.226105;157.9;10 / 17;58519;2022-10-14 17:08:15:118
-1.2162;-0.0335;13.177;-0.7506;0.6634;9.7553;0.4041;0.2169;-0.1254;0.2083;0.2026;-0.2092;1478.0;-3.13;-18.81;-43.09;167.07;-1.15;1.55;5.0;982.34;47.838;35.957302;-83.924095;812.47;NaN;;4.61;12.226105;157.9;10 / 17;59019;2022-10-14 17:08:15:618
0.3245;2.6121;11.4305;-0.5835;2.4511;9.4774;1.1629;-0.2616;1.2742;0.7787;-0.0418;-0.2682;1424.0;-3.15;-25.78;-39.43;166.7;-8.53;2.53;5.0;982.32;53.684;35.957294;-83.92409;813.44;NaN;;4.43;12.226105;151.5;10 / 17;59520;2022-10-14 17:08:16:119
-1.8458;3.1543;9.6757;-0.9672;2.5735;9.4134;-0.408;0.7936;-1.2754;0.1639;0.3434;0.3529;1299.0;-2.31;-31.82;-35.16;165.67;-15.21;5.87;5.0;982.52;52.293;35.957294;-83.92409;813.44;NaN;;4.43;12.226105;151.5;10 / 17;60020;2022-10-14 17:08:16:619
-0.5064;2.8334;10.9627;-0.9231;2.8619;9.3342;-0.6747;-0.0431;-1.5927;0.0128;-0.4146;0.0487;1143.0;-1.01;-32.31;-34.65;167.76;-16.97;5.65;5.0;982.36;50.265;35.957287;-83.92408;814.69;NaN;;4.43;12.226105;153.4;10 / 17;60519;2022-10-14 17:08:17:118
-1.0642;3.0835;10.5784;-1.3621;3.0491;9.2205;0.3268;0.4103;-0.3943;-0.0293;0.3465;0.0617;1194.0;-3.13;-32.49;-34.48;162.96;-17.49;5.53;5.0;982.33;51.757;35.957287;-83.92408;814.69;NaN;;4.43;12.226105;153.4;10 / 17;61019;2022-10-14 17:08:17:618
-0.2417;3.53;8.9587;-0.9411;3.4239;9.1412;-0.6671;-0.2275;-1.806;0.208;-0.3616;0.2211;1195.0;-0.67;-34.07;-32.51;167.92;-20.43;5.88;5.0;982.35;52.51;35.95728;-83.92408;813.81;NaN;;4.07;12.226105;157.1;10 / 17;61519;2022-10-14 17:08:18:118
-1.5371;3.1962;9.355;-1.2145;3.1134;9.2196;-0.0586;0.3362;-1.7302;-0.119;0.1174;0.1371;1185.0;-1.56;-34.5;-31.37;165.83;-18.65;6.82;5.0;982.31;51.695;35.95728;-83.92408;813.81;NaN;;4.07;12.226105;157.1;10 / 17;62020;2022-10-14 17:08:18:619
0.3951;4.4578;7.3499;-1.1343;3.3137;9.1599;-0.6488;-0.7518;-1.7163;0.4006;-0.5096;0.2416;1169.0;-2.31;-33.37;-32.32;163.83;-19.75;7.06;5.0;982.32;52.907;35.957268;-83.92407;814.65;NaN;;4.32;12.226105;163.4;9 / 17;62520;2022-10-14 17:08:19:119
-3.4905;1.5622;11.8567;0.8847;2.0;9.5597;-2.3844;0.0842;-9.6058;0.3434;-5.7855;-1.1916;1265.0;-0.62;-30.32;-34.11;154.29;-10.2;18.05;5.0;982.28;50.911;35.957268;-83.92407;814.65;NaN;;4.32;12.226105;163.4;9 / 17;63020;2022-10-14 17:08:19:619
2.1069;1.5634;2.0853;3.1937;2.7102;8.8671;-0.9097;-2.0545;1.9654;1.2311;0.0196;0.1584;1040.0;-7.63;-27.99;-36.02;195.54;-16.04;-19.81;5.0;982.29;48.561;35.95726;-83.92407;812.87;NaN;;4.1;12.226105;165.1;9 / 17;63519;2022-10-14 17:08:20:118
9.2064;-1.1898;3.0873;8.3136;-4.5059;-2.5985;7.9212;0.7815;2.0393;-2.3868;-0.5819;3.1974;1054.0;-30.04;-26.31;-10.41;207.93;27.35;-107.36;5.0;982.34;50.181;35.95726;-83.92407;812.87;NaN;;4.1;12.226105;165.1;9 / 17;64019;2022-10-14 17:08:20:618
9.9858;-5.9387;-1.0965;9.528;1.1162;2.0353;0.3987;-7.2686;-3.022;2.1193;0.7506;-2.5246;581.0;-45.66;-4.58;-2.18;175.46;12.26;-86.06;5.0;982.28;54.093;35.95725;-83.924065;813.34;NaN;;4.07;12.226105;164.0;9 / 17;64520;2022-10-14 17:08:21:119
14.7619;-4.7641;-2.4945;9.3749;-1.1465;-2.6396;2.197;-3.0524;-3.6708;-3.4428;-0.1629;3.134;699.0;-37.54;-28.31;2.48;194.33;-11.25;-100.77;5.0;982.3;54.716;35.95725;-83.924065;813.34;NaN;;4.07;12.226105;164.0;9 / 17;65020;2022-10-14 17:08:21:619
15.6156;-4.1692;-5.9794;9.7524;-0.1971;-1.0112;8.8029;-1.8532;-1.824;1.4834;2.1732;-3.1033;708.0;-46.59;-10.22;3.94;214.26;19.97;-115.55;5.0;982.26;56.258;35.957237;-83.924065;814.12;NaN;;4.86;12.226105;168.5;9 / 17;65520;2022-10-14 17:08:22:119
11.3516;-2.071;-3.9168;8.9407;3.0028;-2.6866;-4.5578;-7.7528;-4.0501;-2.9385;-1.329;3.362;479.0;-32.06;-34.56;0.36;201.04;-17.83;-106.72;5.0;982.32;60.957;35.957237;-83.924065;814.12;NaN;;4.86;12.226105;168.5;9 / 17;66019;2022-10-14 17:08:22:618
15.789;-2.6994;2.2301;9.018;-1.7093;-3.4531;6.7874;1.9425;5.2645;1.7447;1.7057;-0.5836;607.0;-47.44;-7.8;-1.8;230.48;10.04;-110.95;5.0;982.31;56.432;35.957226;-83.924065;814.57;NaN;;4.72;12.226105;170.5;9 / 17;66520;2022-10-14 17:08:23:119
5.6441;-2.3426;-8.1111;9.1153;0.1735;-3.6126;-3.201;-3.544;-4.3516;-1.115;-0.0792;3.3153;505.0;-35.1;-24.47;5.4;226.27;-22.26;-114.16;5.0;982.3;60.938;35.957226;-83.924065;814.57;NaN;;4.72;12.226105;170.5;9 / 17;67020;2022-10-14 17:08:23:619
11.1805;2.557;-5.1245;7.5229;-4.4725;-4.4242;7.1845;5.244;-0.7762;0.4642;0.7934;-0.4403;614.0;-40.86;-16.41;13.95;194.55;27.13;-120.46;5.0;982.3;55.836;35.957207;-83.92406;814.8;NaN;;5.58;12.226105;166.4;9 / 17;67520;2022-10-14 17:08:24:119
9.9141;-2.1523;-5.8271;9.3212;1.124;-2.8323;-2.841;-7.7189;-2.6209;-0.5698;0.5908;1.4943;309.0;-36.43;-25.46;11.48;190.13;-19.14;-110.06;5.0;982.31;52.82;35.957207;-83.92406;814.8;NaN;;5.58;12.226105;166.4;9 / 17;68020;2022-10-14 17:08:24:619
15.5629;-1.7524;2.0566;6.956;-3.5548;-5.9285;5.3726;3.4888;4.3763;0.8635;1.5112;-0.7896;702.0;-43.63;-13.09;7.95;220.66;21.25;-130.44;5.0;982.32;51.043;35.957195;-83.92405;815.04;NaN;;4.79;12.226105;160.6;9 / 17;68520;2022-10-14 17:08:25:119
6.0105;-1.9741;-5.9387;9.02;2.6945;-2.7476;-1.5768;-7.5598;-0.8551;0.6595;0.0231;-0.3179;440.0;-40.37;-16.91;6.62;218.22;-17.62;-104.31;5.0;982.28;48.495;35.957195;-83.92405;815.04;NaN;;4.79;12.226105;160.6;9 / 17;69020;2022-10-14 17:08:25:619
13.3974;-1.7465;5.9901;8.4124;0.1249;-5.0385;6.9297;5.2228;0.9112;-1.6877;0.55;0.9362;740.0;-35.93;-25.28;13.18;196.68;-0.73;-120.92;5.0;982.33;47.637;35.957184;-83.92404;814.71;NaN;;5.18;12.226105;154.7;9 / 17;69520;2022-10-14 17:08:26:119
1.9837;-4.8087;-7.1656;7.1125;5.1759;-4.335;-5.1224;-8.6297;-2.8535;0.1336;0.6988;-1.3534;515.0;-29.98;-28.24;10.01;223.27;-31.86;-121.36;5.0;982.3;47.861;35.957184;-83.92404;814.71;NaN;;5.18;12.226105;154.7;9 / 17;70020;2022-10-14 17:08:26:619
2.7197;0.565;-2.0626;5.1648;7.3587;-3.9171;7.6167;-2.1542;19.6709;0.1074;1.364;-2.4634;620.0;-22.11;-33.11;17.38;165.24;-48.62;-127.18;5.0;982.4;48.566;35.957172;-83.924034;813.81;NaN;;4.9;12.226105;154.9;9 / 17;70519;2022-10-14 17:08:27:118
7.0807;-4.3394;-5.2131;8.6815;-0.4769;4.5359;1.4206;-9.6451;-10.6844;1.1026;-1.2788;0.7941;609.0;-24.34;-31.22;-8.79;191.52;24.65;-87.2;5.0;982.26;52.735;35.957172;-83.924034;813.81;NaN;;4.9;12.226105;154.9;9 / 17;71020;2022-10-14 17:08:27:619
5.2418;-3.3817;3.0057;7.6902;5.7641;1.9509;2.3761;-9.5787;6.0344;1.9042;1.3454;-3.838;854.0;-39.04;-16.41;-17.49;232.69;-9.6;-82.48;5.0;982.26;49.061;35.95716;-83.92403;812.73;NaN;;5.04;12.226105;150.6;9 / 17;71519;2022-10-14 17:08:28:118
2.7867;3.5755;-3.4056;8.5611;-0.389;4.7672;-10.677;-5.0013;-1.1524;0.6938;2.8425;-2.9847;1436.0;-20.78;-26.4;-31.93;212.99;2.27;-60.89;5.0;982.29;46.027;35.95716;-83.92403;812.73;NaN;;5.04;12.226105;150.6;9 / 17;72020;2022-10-14 17:08:28:619
4.4447;10.43;-6.2426;4.681;3.7596;-7.754;4.6199;7.1309;2.1566;2.2989;-4.8579;0.03;1194.0;-11.94;-41.06;-4.07;198.54;-22.54;-148.88;5.0;982.29;56.531;35.957153;-83.92403;810.5;NaN;;4.86;12.226105;163.1;9 / 17;72519;2022-10-14 17:08:29:118
19.8111;-1.6412;0.3054;9.2921;3.0205;-0.8394;7.2446;-3.2168;1.7463;4.0637;1.9011;2.5409;657.0;-10.27;-42.32;9.34;166.02;-35.35;-101.31;5.0;982.28;46.95;35.957153;-83.92403;810.5;NaN;;4.86;12.226105;163.1;9 / 17;73020;2022-10-14 17:08:29:619
-7.0098;-2.5953;-7.1979;9.0516;3.1585;-2.0648;-2.4162;1.8003;-1.0335;-2.0509;-0.4357;-0.874;725.0;-29.03;-34.43;9.34;174.08;-18.79;-102.85;5.0;982.31;52.706;35.95714;-83.92402;809.07;NaN;;4.79;12.226105;170.7;9 / 17;73520;2022-10-14 17:08:30:119
-1.008;-2.0638;-5.2155;8.9596;3.9865;-0.059;-8.2555;-3.8151;-5.3518;-2.4428;0.2504;0.8341;790.0;-25.86;-37.44;-7.22;208.52;-33.34;-95.01;5.0;982.26;47.154;35.95714;-83.92402;809.07;NaN;;4.79;12.226105;170.7;9 / 17;74020;2022-10-14 17:08:30:619
2.1093;1.0857;2.5917;8.4406;4.3616;-2.4298;-5.8772;-0.7609;1.6221;-1.7272;-0.1691;2.0006;861.0;-31.2;-34.41;-9.71;224.61;-26.41;-106.06;5.0;982.25;50.6;35.957127;-83.92403;807.94;NaN;;4.72;12.226105;183.3;9 / 17;74520;2022-10-14 17:08:31:119
-0.303;-1.8003;-2.1057;7.5311;6.2786;0.1781;-7.2344;-7.6679;-2.8742;-0.0526;1.2099;-0.3834;710.0;-28.74;-33.58;-9.56;235.05;-38.46;-97.39;5.0;982.27;48.433;35.957127;-83.92403;807.94;NaN;;4.72;12.226105;183.3;9 / 17;75020;2022-10-14 17:08:31:619
1.8087;-2.0315;4.0089;8.3427;4.5783;-2.3684;2.5239;-1.0405;7.7458;-1.1724;-0.8967;-0.159;854.0;-25.01;-35.94;-7.71;213.88;-27.83;-105.85;5.0;982.25;48.735;35.957115;-83.92402;808.99;NaN;;5.8;12.226105;168.1;9 / 17;75520;2022-10-14 17:08:32:119
0.128;-2.2588;-4.4387;7.0378;6.3935;-2.4006;-1.8801;-8.2053;-4.7335;1.2468;0.8852;-3.4228;847.0;-27.0;-32.81;-4.18;233.64;-40.69;-108.83;5.0;982.27;46.615;35.957115;-83.92402;808.99;NaN;;5.8;12.226105;168.1;9 / 17;76019;2022-10-14 17:08:32:618
4.9044;5.3112;-3.0188;6.0776;1.5836;-7.5317;-1.5004;3.3428;4.591;-1.1859;-0.7959;0.0541;824.0;-19.05;-35.34;21.23;176.78;-1.14;-133.94;5.0;982.35;49.006;35.957104;-83.92402;810.57;NaN;;4.75;12.226105;168.9;9 / 17;76520;2022-10-14 17:08:33:119
2.8167;-4.7294;-4.1883;7.6052;3.3592;-5.2007;0.8399;-8.5251;-7.8559;1.2673;0.0893;-4.8824;471.0;-26.23;-32.57;15.09;179.82;5.17;-119.76;5.0;982.27;48.475;35.957104;-83.92402;810.57;NaN;;4.75;12.226105;168.9;9 / 17;77020;2022-10-14 17:08:33:619
10.497;0.1902;-3.711;4.5465;-5.981;-6.303;4.5884;4.1845;0.1647;-4.5226;2.3441;2.7542;426.0;-13.31;-16.8;34.28;145.66;48.68;-121.11;5.0;982.36;58.067;35.957092;-83.92402;811.41;NaN;;4.72;12.226105;168.6;9 / 17;77520;2022-10-14 17:08:34:119
5.0013;-7.351;-6.4352;9.1123;-1.0153;-3.4792;18.2513;-7.4438;-2.363;2.003;-0.5441;-5.4207;328.0;-41.98;-11.98;12.15;192.92;5.94;-110.9;5.0;982.18;57.321;35.957092;-83.92402;811.41;NaN;;4.72;12.226105;168.6;9 / 17;78019;2022-10-14 17:08:34:618
7.5676;5.0982;-2.6169;6.9976;1.1304;-6.7769;11.3632;6.4292;6.2468;-1.0571;-2.2297;-0.7849;511.0;-17.62;-34.65;20.21;176.67;-6.62;-134.08;5.0;982.36;46.129;35.95708;-83.92402;815.64;NaN;;6.16;12.226105;185.7;9 / 17;78520;2022-10-14 17:08:35:119
8.2813;4.4243;-3.7469;8.1974;5.3409;0.6697;0.1367;-1.2046;-4.5836;0.7013;3.2063;-1.8342;467.0;-23.51;-36.66;8.79;174.02;-19.03;-104.29;5.0;982.17;48.741;35.95708;-83.92402;815.64;NaN;;6.16;12.226105;185.7;9 / 17;79022;2022-10-14 17:08:35:621
17.6877;-2.8478;24.233;9.7509;-0.4918;0.9215;14.7494;-2.1877;-17.0512;-15.3517;2.134;2.3941;765.0;-16.74;-35.66;-14.77;199.88;2.87;-84.6;5.0;982.37;45.273;35.957066;-83.92403;815.7;NaN;;5.83;12.226105;190.0;9 / 17;79520;2022-10-14 17:08:36:119
21.3649;-16.1638;13.7901;5.6877;-6.4756;4.6783;11.6496;-4.9027;10.867;1.7294;3.5376;7.7633;1557.0;-26.36;-4.65;-36.82;267.46;-7.51;-91.25;5.0;982.25;46.776;35.957066;-83.92403;815.7;NaN;;5.83;12.226105;190.0;9 / 17;80020;2022-10-14 17:08:36:619
17.6336;-16.6056;11.8795;3.7955;0.1126;9.0417;1.1827;3.1406;-8.2107;-8.197;-3.0852;-9.4677;1226.0;4.54;-22.48;-33.75;219.36;-0.66;-22.77;5.0;982.33;49.362;35.95705;-83.92403;817.37;NaN;;5.54;12.226105;189.8;9 / 17;80519;2022-10-14 17:08:37:118
-1.9187;1.6986;6.0595;8.4324;4.5734;2.0371;-6.6264;-0.4974;4.7924;0.3735;1.3451;3.6359;813.0;0.34;-22.24;-35.93;255.57;-65.3;-90.13;5.0;982.18;52.447;35.95705;-83.92403;817.37;NaN;;5.54;12.226105;189.8;9 / 17;81019;2022-10-14 17:08:37:618
9.5943;-2.1308;-1.6854;2.8756;6.5568;6.7015;-1.8802;-5.4282;-9.1001;-5.1801;-1.3626;2.2629;1095.0;-0.08;-37.56;-14.17;195.69;-41.96;-23.22;5.0;982.31;51.993;35.95704;-83.924034;816.21;NaN;;6.3;12.226105;191.8;9 / 17;81520;2022-10-14 17:08:38:119
0.0897;-1.7429;3.3422;7.2984;4.7139;4.5478;-2.8899;-7.7592;4.1075;2.9264;0.6095;-1.4481;923.0;-12.6;-11.68;-35.55;279.43;-28.73;-58.07;5.0;982.21;55.109;35.95704;-83.924034;816.21;NaN;;6.3;12.226105;191.8;9 / 17;82020;2022-10-14 17:08:38:619
1.6627;4.5069;3.0909;1.3772;3.8256;8.924;0.9699;0.6604;-5.8519;0.1453;0.9722;0.052;1426.0;3.49;-21.3;-36.24;236.73;-19.78;-15.77;5.0;982.25;48.088;35.957027;-83.92404;815.68;NaN;;4.28;12.226105;195.1;9 / 17;82520;2022-10-14 17:08:39:119
1.0175;3.4116;8.6342;1.5365;2.0148;9.4737;-0.8213;1.1398;3.3632;0.0922;0.1849;0.4503;1244.0;12.84;-30.9;-29.91;217.23;-15.29;-8.19;5.0;982.3;49.01;35.957027;-83.92404;815.68;NaN;;4.28;12.226105;195.1;9 / 17;83019;2022-10-14 17:08:39:618
0.8608;4.2532;7.4216;2.2317;3.2544;8.9777;0.0507;1.0802;1.1803;-0.011;0.1415;-0.2045;1012.0;6.26;-34.33;-31.78;211.74;-19.04;-14.73;5.0;982.26;53.837;35.957016;-83.92404;818.44;NaN;;4.5;12.226105;197.5;9 / 17;83520;2022-10-14 17:08:40:119
1.4976;1.2568;10.5485;1.0946;1.5374;9.6233;-1.3528;2.9396;1.287;0.1685;0.211;0.2905;921.0;7.74;-33.51;-31.39;201.62;-9.02;-6.49;5.0;982.31;49.255;35.957016;-83.92404;818.44;NaN;;4.5;12.226105;197.5;9 / 17;84019;2022-10-14 17:08:40:618
0.1424;2.9459;9.4472;-0.1142;1.3841;9.7078;-0.8456;-0.6565;2.9929;0.4521;-0.3138;0.5429;875.0;11.72;-31.14;-32.79;204.05;-8.11;0.67;5.0;982.3;49.081;35.95701;-83.92405;820.01;NaN;;4.68;12.226105;196.8;9 / 17;84520;2022-10-14 17:08:41:119
0.6966;2.4646;9.3957;0.293;2.6098;9.4485;-0.6195;0.2812;-0.0548;0.2104;-0.2599;0.492;865.0;12.47;-30.97;-31.52;207.85;-13.31;-0.09;5.0;982.32;47.866;35.95701;-83.92405;820.01;NaN;;4.68;12.226105;196.8;9 / 17;85019;2022-10-14 17:08:41:618
0.2584;4.7151;5.1425;0.8061;3.5157;9.1192;0.96;0.7117;1.9508;-0.1026;0.1793;-0.43;787.0;9.96;-33.94;-29.19;209.97;-21.01;-5.05;5.0;982.3;46.929;35.957;-83.92405;822.33;NaN;;4.64;12.226105;199.8;9 / 17;85519;2022-10-14 17:08:42:118
0.4657;3.3398;9.4627;0.4198;2.9948;9.3287;-0.6671;-0.7789;3.455;0.0159;0.3051;0.2974;772.0;10.58;-32.93;-29.7;209.72;-18.78;-2.74;5.0;982.33;52.033;35.957;-83.92405;822.33;NaN;;4.64;12.226105;199.8;9 / 17;86020;2022-10-14 17:08:42:619
3.4128;3.7863;10.2503;1.2098;2.688;9.3532;2.4063;2.4209;-0.5686;0.253;-0.4498;-0.527;763.0;8.23;-33.88;-29.06;204.91;-15.91;-7.37;5.0;982.31;48.724;35.956993;-83.92406;822.53;NaN;;4.64;12.226105;202.5;9 / 17;86521;2022-10-14 17:08:43:120
-3.6547;-1.2975;15.9745;0.2242;-0.0296;9.804;-5.6631;0.033;3.0636;-0.4231;-0.9667;0.0341;778.0;14.01;-24.0;-35.79;207.56;-2.06;3.42;5.0;982.27;46.547;35.956993;-83.92406;822.53;NaN;;4.64;12.226105;202.5;9 / 17;87020;2022-10-14 17:08:43:619
-2.618;-1.3334;13.0346;-3.3953;-0.4126;9.1909;2.9931;2.0174;-2.9088;-0.5495;-0.9769;-1.9888;1080.0;24.24;-16.59;-35.44;209.02;2.41;20.28;5.0;982.29;45.062;35.95698;-83.924065;824.02;NaN;;4.79;12.226105;204.8;9 / 17;87520;2022-10-14 17:08:44:119
-2.5606;-7.363;14.9309;-0.9498;-3.515;9.1057;-4.4465;-1.8478;2.3969;-1.2808;-0.3448;0.3586;1173.0;26.46;-2.61;-37.82;231.69;21.0;5.95;5.0;982.28;43.093;35.95698;-83.924065;824.02;NaN;;4.79;12.226105;204.8;9 / 17;88020;2022-10-14 17:08:44:619
0.3257;-0.4573;9.8073;-0.9357;-1.3705;9.6652;1.0033;1.2063;-0.1745;-0.7523;-1.8028;-1.1853;1411.0;28.82;-7.89;-34.82;241.44;-0.47;21.65;5.0;982.28;46.787;35.95697;-83.924065;824.98;NaN;;4.79;12.226105;202.1;9 / 17;88520;2022-10-14 17:08:45:119
0.2166;-0.486;17.2687;2.0217;0.7311;9.5681;-4.1694;-1.9702;-0.8639;0.5556;-1.4739;0.7144;1353.0;18.28;-4.63;-41.59;249.64;6.51;-10.07;5.0;982.27;46.546;35.95697;-83.924065;824.98;NaN;;4.79;12.226105;202.1;9 / 17;89020;2022-10-14 17:08:45:619
12.3619;2.3916;-0.4178;5.6063;2.2061;7.7377;-1.759;-0.4818;-5.7953;0.2795;0.8599;2.3895;1670.0;5.12;-13.26;-44.72;274.51;-22.01;-27.74;5.0;982.27;44.824;35.956963;-83.92407;822.16;NaN;;4.1;12.226105;208.7;9 / 17;89519;2022-10-14 17:08:46:118
5.6213;-4.3681;7.5954;8.131;4.2918;3.4115;-2.1324;-8.9454;1.1692;-0.0631;0.7017;0.5146;1517.0;-27.34;-5.55;-36.58;296.43;-25.95;-67.24;5.0;982.21;44.612;35.956963;-83.92407;822.16;NaN;;4.1;12.226105;208.7;9 / 17;90020;2022-10-14 17:08:46:619
9.2219;5.152;-3.839;6.4729;4.3667;5.9333;0.7093;-1.6555;-6.5928;2.4509;0.8123;0.2674;1810.0;-21.62;-4.09;-38.79;317.92;-26.44;-47.49;5.0;982.25;45.466;35.95696;-83.92408;820.57;NaN;;2.95;12.226105;240.9;9 / 17;90519;2022-10-14 17:08:47:118
9.501;2.6635;4.0854;9.4214;2.7202;-0.0901;-0.1397;-0.3869;4.1568;-1.9294;-0.1897;0.5679;1691.0;-27.96;-10.03;-33.66;268.46;-19.03;-93.2;5.0;982.22;45.754;35.95696;-83.92408;820.57;NaN;;2.95;12.226105;240.9;9 / 17;91020;2022-10-14 17:08:47:619
8.627;2.5125;-3.2644;8.7061;2.5656;3.7139;-0.3639;-0.5766;-4.919;1.6265;1.7302;-0.1308;1384.0;-39.79;-0.32;-24.21;332.18;-15.17;-66.9;5.0;982.23;44.511;35.956955;-83.92409;822.33;NaN;;4.18;12.226105;228.7;9 / 17;91520;2022-10-14 17:08:48:119
9.7068;2.7138;0.6069;8.9743;0.4836;-3.9241;-0.4157;0.6125;4.5397;0.0686;-1.1151;0.5764;1346.0;-38.76;-6.9;-23.47;264.23;-6.69;-105.7;5.0;982.21;44.863;35.956955;-83.92409;822.33;NaN;;4.18;12.226105;228.7;9 / 17;92020;2022-10-14 17:08:48:619
7.9759;-1.6807;-2.2349;9.3084;2.7727;1.3552;1.7971;-3.3003;-2.6069;1.0571;1.3104;-0.8479;846.0;-42.13;-5.12;-16.05;307.87;-16.42;-81.72;5.0;982.19;47.893;35.95695;-83.924095;820.97;NaN;;3.38;12.226105;221.6;9 / 17;92522;2022-10-14 17:08:49:121
10.6681;-0.2201;1.3717;9.1499;-1.3994;-3.2391;0.8472;1.4336;3.9991;-1.6275;-1.4331;1.7463;794.0;-35.18;-18.94;-24.6;239.18;-2.44;-97.92;5.0;982.19;50.951;35.95695;-83.924095;820.97;NaN;;3.38;12.226105;221.6;9 / 17;93021;2022-10-14 17:08:49:620
7.503;-1.8266;-1.5287;9.6713;1.5427;-0.5068;2.5501;-3.0881;-0.5871;0.4489;0.9502;-1.656;611.0;-44.25;-0.15;-14.02;292.66;-9.05;-93.0;5.0;982.2;50.368;35.956944;-83.924095;819.79;NaN;;4.36;12.226105;214.9;9 / 17;93520;2022-10-14 17:08:50:119
9.5345;1.8206;0.061;9.5253;0.3344;-2.3081;-1.5868;0.9708;0.8797;-1.389;-0.7604;1.4811;675.0;-38.48;-19.72;-20.64;237.23;-1.95;-103.62;5.0;982.2;45.587;35.956944;-83.924095;819.79;NaN;;4.36;12.226105;214.9;9 / 17;94020;2022-10-14 17:08:50:619
8.723;-1.27;-2.7784;8.705;4.5081;0.2653;0.6483;-5.9956;-2.2184;2.3192;1.4281;-2.4135;618.0;-42.36;-5.98;-15.3;315.96;-27.37;-88.25;5.0;982.17;49.688;35.956936;-83.92411;822.61;NaN;;4.54;12.226105;211.4;9 / 17;94520;2022-10-14 17:08:51:119
11.2857;2.1141;-0.7277;9.4384;0.6889;-2.5715;2.0198;0.3934;-0.9663;-1.2331;-0.7908;2.1098;621.0;-32.19;-27.13;-17.81;238.2;-22.04;-99.6;5.0;982.21;46.702;35.956936;-83.92411;822.61;NaN;;4.54;12.226105;211.4;9 / 17;95020;2022-10-14 17:08:51:619
8.5325;-1.5658;-2.6372;9.2777;3.1553;-0.373;3.4578;-4.5358;-1.5764;2.8546;1.2584;-2.7147;414.0;-43.76;-6.07;-10.86;253.16;-1.02;-98.44;5.0;982.15;43.559;35.95693;-83.92411;822.86;NaN;;4.54;12.656738;216.6;9 / 17;95520;2022-10-14 17:08:52:119
10.4743;2.1105;-1.7249;9.4996;0.6465;-2.3474;0.1242;0.5425;-1.2133;-1.6026;-0.5273;1.3762;492.0;-33.99;-26.14;-14.46;222.19;-3.78;-103.88;5.0;982.18;53.044;35.95693;-83.92411;822.86;NaN;;4.54;12.656738;216.6;9 / 17;96020;2022-10-14 17:08:52:619
14.0222;-0.9434;-0.8007;9.6866;1.2964;-0.8124;4.6194;-1.579;1.8531;2.062;1.7237;-1.9666;396.0;-42.39;-7.97;-9.6;259.46;-7.6;-94.79;5.0;982.15;46.371;35.95692;-83.924126;817.64;NaN;;4.79;12.815538;217.6;9 / 17;96520;2022-10-14 17:08:53:119
9.5704;0.5722;-0.5315;9.4714;0.0656;-2.5414;1.3987;0.2222;-1.4949;-1.7407;-1.0678;2.4276;449.0;-33.37;-26.32;-12.99;226.68;-16.09;-97.91;5.0;982.22;46.03;35.95692;-83.924126;817.64;NaN;;4.79;12.815538;217.6;9 / 17;97020;2022-10-14 17:08:53:619
10.5293;-2.2313;-1.5407;9.7056;0.1146;-1.3997;3.674;1.7293;3.1733;0.9586;1.6919;-1.5246;398.0;-43.72;-7.86;-7.35;240.4;-0.67;-98.21;5.0;982.15;47.331;35.95691;-83.92413;813.71;NaN;;4.82;12.499306;216.0;10 / 17;97519;2022-10-14 17:08:54:118
12.1657;0.5255;-3.1316;9.5251;0.4373;-2.2916;2.4785;-0.2509;-0.7228;-1.4443;-1.3116;2.4219;464.0;-34.07;-28.41;-13.39;217.71;-2.56;-103.53;5.0;982.22;51.427;35.95691;-83.92413;813.71;NaN;;4.82;12.499306;216.0;10 / 17;98020;2022-10-14 17:08:54:619
11.4221;-1.9211;-2.1691;9.5901;-0.223;-2.0375;5.8562;2.0345;3.6672;1.8498;1.3582;-2.6782;437.0;-44.32;-8.46;-8.87;243.54;1.3;-101.99;5.0;982.14;44.754;35.956898;-83.92414;812.15;NaN;;4.75;12.488966;214.6;10 / 17;98520;2022-10-14 17:08:55:119
9.3455;2.5041;-3.0428;8.3604;1.5695;-4.8796;1.1031;-2.3332;-2.3435;-0.0055;-1.1175;3.8277;524.0;-31.24;-29.21;-10.31;241.52;-31.95;-113.32;5.0;982.22;55.414;35.956898;-83.92414;812.15;NaN;;4.75;12.488966;214.6;10 / 17;99020;2022-10-14 17:08:55:619
12.6227;-0.9039;-3.979;8.7468;-0.4772;-4.4087;6.0381;2.6541;5.3916;3.9146;0.5799;-2.6148;456.0;-42.41;-12.04;2.38;231.02;2.79;-116.75;5.0;982.18;58.558;35.956886;-83.92415;813.37;NaN;;4.86;13.356532;208.8;10 / 17;99525;2022-10-14 17:08:56:124
11.0979;0.693;-8.6725;8.7305;1.9826;-4.0024;-2.5105;-4.1577;-0.8355;0.5199;0.1236;2.1596;515.0;-34.61;-27.66;-0.88;216.33;-11.66;-114.63;5.0;982.21;56.327;35.956886;-83.92415;813.37;NaN;;4.86;13.356532;208.8;10 / 17;100020;2022-10-14 17:08:56:619
12.9748;-1.1503;-1.2317;9.4789;0.4262;-2.4778;3.0878;1.0774;3.3956;1.3679;1.6623;-1.5847;560.0;-44.29;-9.36;-3.02;242.92;-2.49;-104.65;5.0;982.17;44.964;35.95687;-83.92416;811.68;NaN;;5.11;13.582311;207.8;10 / 17;100520;2022-10-14 17:08:57:119
11.8866;0.5423;-7.381;9.0059;2.616;-2.8673;0.1215;-4.3515;-1.8422;-0.7526;-0.8855;1.8586;540.0;-38.87;-21.09;-9.47;257.99;-25.13;-103.56;5.0;982.18;57.459;35.95687;-83.92416;811.68;NaN;;5.11;13.582311;207.8;10 / 17;101020;2022-10-14 17:08:57:619
12.0039;2.6264;0.9206;9.1686;-0.6291;-3.4221;7.105;1.9899;3.2094;-1.0934;1.7108;-0.2097;928.0;-44.49;-11.68;-4.11;237.31;9.16;-122.66;5.0;982.18;55.526;35.956863;-83.92417;810.19;NaN;;5.11;13.379518;217.6;10 / 17;101520;2022-10-14 17:08:58:119
8.0369;1.7034;-3.6257;8.9134;3.558;-2.0156;-0.5197;-5.26;-1.4813;0.1832;-0.5123;1.5367;976.0;-39.49;-21.45;-10.93;251.02;-21.27;-102.74;5.0;982.15;59.135;35.956863;-83.92417;810.19;NaN;;5.11;13.379518;217.6;10 / 17;102020;2022-10-14 17:08:58:619
10.619;2.7556;-0.3532;9.1279;-1.0904;-3.4151;5.7596;3.4483;1.431;-0.9778;0.8938;0.107;673.0;-44.04;-16.48;-4.8;224.74;6.38;-110.51;5.0;982.17;64.04;35.956852;-83.92418;809.09;NaN;;4.72;13.805074;223.0;10 / 17;102519;2022-10-14 17:08:59:118
8.5433;-1.6448;-4.0149;9.2724;1.8902;-2.573;-0.6381;-3.3904;-1.1591;-0.0056;-0.947;1.3196;503.0;-39.24;-22.71;-10.72;245.26;-21.57;-99.22;5.0;982.17;61.193;35.956852;-83.92418;809.09;NaN;;4.72;13.805074;223.0;10 / 17;103020;2022-10-14 17:08:59:619
17.4171;-0.3508;-1.8398;8.9626;-1.0172;-3.848;1.5666;4.5425;3.0016;-0.3518;0.3269;0.3451;523.0;-42.11;-21.24;-8.01;224.24;5.95;-113.24;5.0;982.19;53.098;35.956844;-83.92419;807.66;NaN;;4.9;14.183346;225.5;11 / 17;103519;2022-10-14 17:09:00:118
11.584;-2.5522;-5.1197;9.179;1.5349;-3.0919;-1.5746;-3.2861;-0.2386;0.2538;-0.4813;1.6985;519.0;-31.63;-25.26;-15.66;242.21;-23.01;-105.44;5.0;982.17;43.522;35.956844;-83.92419;807.66;NaN;;4.9;14.183346;225.5;11 / 17;104020;2022-10-14 17:09:00:619
10.6454;-7.1919;-1.4749;7.067;-6.734;-0.9391;0.32;3.3174;2.7957;1.0713;1.4599;2.3225;425.0;-31.74;-3.11;-21.17;228.61;43.37;-97.57;5.0;982.18;46.365;35.956833;-83.924194;806.7;NaN;;4.93;14.289522;219.0;11 / 17;104520;2022-10-14 17:09:01:119
5.6524;-7.2517;-0.4119;3.6209;-9.0281;-1.2459;1.5029;2.8499;0.2295;-0.5647;-0.3722;0.0354;338.0;-20.66;18.38;-27.66;250.37;68.69;-95.12;5.0;982.2;56.654;35.956833;-83.924194;806.7;NaN;;4.93;14.289522;219.0;11 / 17;105020;2022-10-14 17:09:01:619
6.8411;-5.5807;-1.0175;6.5405;-6.918;-2.3523;-0.325;3.1164;-0.0493;-0.0054;-0.7395;-0.9419;254.0;-24.64;26.16;-11.29;268.82;51.62;-105.84;5.0;982.19;56.013;35.956825;-83.92421;807.87;NaN;;4.9;13.611574;229.3;11 / 17;105520;2022-10-14 17:09:02:119
5.6453;-5.1999;-3.0248;9.5973;-0.8194;-1.8413;-3.124;-4.8665;-0.1622;0.9887;0.3715;-2.3365;342.0;-33.26;16.39;-4.84;320.11;4.79;-100.86;5.0;982.1;56.675;35.956825;-83.92421;807.87;NaN;;4.9;13.611574;229.3;11 / 17;106020;2022-10-14 17:09:02:619
11.0297;-3.7576;-1.9271;5.9246;-6.3288;-4.5843;4.3298;2.4618;2.72;-1.0168;-0.4447;2.3131;427.0;-40.59;5.68;-9.94;249.41;40.19;-127.73;5.0;982.2;60.822;35.956818;-83.92422;808.4;NaN;;4.93;13.831735;219.7;11 / 17;106519;2022-10-14 17:09:03:118
6.749;-5.5639;-3.3577;9.5541;-0.2211;-2.2;3.265;-6.767;-0.2915;1.0481;-0.0946;-2.8107;396.0;-34.48;22.82;-5.14;295.24;24.75;-114.61;5.0;982.07;59.657;35.956818;-83.92422;808.4;NaN;;4.93;13.831735;219.7;11 / 17;107020;2022-10-14 17:09:03:619
14.0605;-3.9347;-0.7624;6.5871;-5.7443;-4.4479;4.4459;0.4658;2.9701;-2.0355;0.4264;4.1982;539.0;-43.07;-8.61;-10.07;233.53;15.62;-111.38;5.0;982.17;57.921;35.956806;-83.92422;813.34;NaN;;4.75;14.18068;223.7;11 / 17;107520;2022-10-14 17:09:04:119
9.7798;-8.9288;-2.7425;9.736;0.9483;-0.6945;9.0773;-13.1989;-0.9308;2.3103;-0.9772;-3.8902;481.0;-33.13;17.48;-7.26;335.05;-5.55;-94.08;5.0;982.08;45.367;35.956806;-83.92422;813.34;NaN;;4.75;14.18068;223.7;11 / 17;108020;2022-10-14 17:09:04:619
12.5163;5.7529;0.2512;8.6882;-3.4558;-2.9568;8.7376;2.2979;-0.4564;-2.1121;0.4961;2.8649;596.0;-37.69;-18.69;-10.89;217.8;20.63;-108.79;5.0;982.17;49.321;35.956802;-83.92423;812.51;NaN;;4.21;16.36804;264.6;11 / 17;108520;2022-10-14 17:09:05:119
10.8715;1.0439;-1.6627;7.3457;6.4247;-0.9669;5.9032;-6.9064;-0.8201;1.2885;0.391;-4.059;403.0;-42.69;3.24;-16.31;301.29;-11.96;-94.14;5.0;982.11;51.016;35.956802;-83.92423;812.51;NaN;;4.21;16.36804;264.6;11 / 17;109020;2022-10-14 17:09:05:619
-0.7277;7.3606;0.3281;1.5289;9.4821;1.9807;-2.5927;-3.0706;-2.0349;-0.3938;0.0509;0.4636;773.0;-4.37;-35.44;-20.64;314.53;-75.22;-37.66;5.0;982.21;52.391;35.9568;-83.92424;815.53;NaN;;4.25;18.075108;229.2;11 / 17;109519;2022-10-14 17:09:06:118
1.6292;5.9925;2.0925;2.1312;7.9461;5.3374;0.1604;-0.2409;-0.6115;0.9342;1.3494;0.153;892.0;7.54;-26.87;-34.29;273.44;-47.42;-27.02;5.0;982.23;50.001;35.9568;-83.92424;815.53;NaN;;4.25;18.075108;229.2;11 / 17;110021;2022-10-14 17:09:06:620
0.7708;6.0727;5.4263;4.7684;7.0336;4.8951;0.1528;1.9451;0.6539;-1.0065;-0.6533;0.0799;1007.0;6.92;-28.07;-33.53;259.08;-45.83;-44.25;5.0;982.24;51.755;35.95679;-83.92425;815.21;NaN;;4.72;17.615513;238.2;11 / 17;110520;2022-10-14 17:09:07:119
3.3912;4.9463;3.5922;3.3897;7.4618;5.3853;0.7323;-1.8241;-0.2455;0.8531;1.1863;0.0026;1112.0;-1.24;-23.91;-39.58;281.66;-42.87;-36.36;5.0;982.22;48.068;35.95679;-83.92425;815.21;NaN;;4.72;17.615513;238.2;11 / 17;111020;2022-10-14 17:09:07:619
2.8178;7.0735;6.5575;6.2999;6.334;4.045;-3.3706;0.2827;0.1266;-1.1759;-0.7824;0.1277;1089.0;4.29;-30.75;-31.69;247.77;-45.22;-57.03;5.0;982.24;56.625;35.956783;-83.924255;817.35;NaN;;4.86;17.672548;229.1;11 / 17;111521;2022-10-14 17:09:08:120
4.5631;4.4052;2.7939;4.6484;7.4051;4.4415;1.9485;-1.7377;0.7546;1.1315;1.6663;-0.3082;1150.0;-7.39;-25.71;-36.51;285.5;-49.04;-46.3;5.0;982.26;52.71;35.956783;-83.924255;817.35;NaN;;4.86;17.672548;229.1;11 / 17;112020;2022-10-14 17:09:08:619
3.335;6.1086;3.4869;6.9856;5.7576;3.7712;-3.1375;0.5321;-1.8769;-1.1406;-0.5078;0.2817;1093.0;-3.3;-31.41;-30.73;240.05;-35.95;-61.64;5.0;982.27;54.818;35.956776;-83.92426;816.49;NaN;;4.61;17.368046;231.4;11 / 17;112521;2022-10-14 17:09:09:120
4.9594;4.0292;2.6157;6.1019;6.2378;4.4751;1.258;-1.4467;0.2687;1.0788;0.3615;-0.381;1140.0;-12.09;-26.38;-34.73;257.82;-34.73;-58.24;5.0;982.28;58.038;35.956776;-83.92426;816.49;NaN;;4.61;17.368046;231.4;11 / 17;113020;2022-10-14 17:09:09:619
4.1608;5.723;2.8394;7.5873;5.1989;3.4022;-2.0925;1.6455;-1.5661;-0.659;-0.1593;0.3121;1195.0;-9.34;-31.14;-30.36;241.21;-36.11;-66.74;5.0;982.25;54.485;35.956768;-83.92427;812.97;NaN;;4.61;17.460844;231.8;11 / 17;113521;2022-10-14 17:09:10:120
5.2561;4.2975;1.5287;7.047;5.6509;3.8181;1.1137;-0.5322;1.2242;1.6107;0.6737;-0.4656;1287.0;-15.62;-29.04;-30.81;250.16;-35.19;-61.55;5.0;982.27;51.047;35.956768;-83.92427;812.97;NaN;;4.61;17.460844;231.8;11 / 17;114019;2022-10-14 17:09:10:618
4.8841;4.3214;2.697;8.3199;4.2298;3.0098;1.6557;1.4877;2.9092;-0.4009;-0.5395;0.1214;1268.0;-13.5;-34.67;-22.89;216.83;-25.55;-70.11;5.0;982.25;60.233;35.95676;-83.92428;816.62;NaN;;4.75;18.026268;232.6;11 / 17;114520;2022-10-14 17:09:11:119
12.4062;4.6421;8.9001;6.9145;5.1722;4.6485;4.9963;-0.6005;3.8701;1.0443;1.1598;-0.5114;1456.0;-20.92;-26.76;-30.54;239.79;-24.93;-63.69;5.0;982.24;54.661;35.95676;-83.92428;816.62;NaN;;4.75;18.026268;232.6;11 / 17;115020;2022-10-14 17:09:11:619
14.6052;5.1592;1.8063;7.3148;6.4427;-1.0755;-0.0726;-2.9789;-0.9735;0.0983;-2.4166;1.7947;1619.0;-6.81;-38.1;-17.08;214.74;-41.07;-98.36;5.0;982.27;54.403;35.956753;-83.924286;817.91;NaN;;4.5;20.02924;227.3;11 / 17;115520;2022-10-14 17:09:12:119
9.6015;0.4143;6.154;7.2441;4.1293;5.1616;12.2891;-0.6654;7.7084;1.0258;3.8951;-0.9514;1772.0;-24.21;-24.94;-28.5;238.04;-17.91;-78.66;5.0;982.28;61.073;35.956753;-83.924286;817.91;NaN;;4.5;20.02924;227.3;11 / 17;116020;2022-10-14 17:09:12:619
11.6797;5.9172;3.8282;7.4888;5.7076;2.7408;0.5837;-2.061;-3.9753;-1.035;-0.8737;0.4145;1699.0;-8.59;-36.11;-22.91;223.13;-35.59;-69.9;5.0;982.3;51.14;35.956745;-83.92429;817.17;NaN;;5.22;20.66577;213.3;11 / 17;116519;2022-10-14 17:09:13:118
9.6649;2.2911;5.3641;8.0121;4.3349;3.6312;5.7586;0.2003;7.8522;1.55;1.7614;-0.1878;1741.0;-18.54;-31.24;-26.79;227.19;-22.65;-72.32;5.0;982.28;47.227;35.956745;-83.92429;817.17;NaN;;5.22;20.66577;213.3;11 / 17;117019;2022-10-14 17:09:13:618
8.7075;4.5452;0.073;8.7475;3.9879;1.936;3.044;1.8086;0.7824;-0.3254;-0.6095;0.4138;1638.0;-14.42;-37.18;-19.48;212.25;-29.76;-74.04;5.0;982.29;53.519;35.956734;-83.92429;815.39;NaN;;4.25;21.250685;198.1;11 / 17;117520;2022-10-14 17:09:14:119
11.1793;2.6408;4.7498;8.7882;3.2476;2.8966;4.5737;2.3414;4.5157;0.6187;0.6389;-0.0923;1645.0;-25.01;-29.81;-23.64;219.81;-19.34;-71.76;5.0;982.31;55.68;35.956734;-83.92429;815.39;NaN;;4.25;21.250685;198.1;11 / 17;118020;2022-10-14 17:09:14:619
17.234;15.9194;-2.4287;5.7628;7.9319;0.2141;3.3468;2.6119;-6.3289;-2.4232;-0.7506;1.2999;1656.0;-8.83;-40.09;-10.84;213.81;-53.98;-87.87;5.0;982.29;58.609;35.95672;-83.924286;814.4;NaN;;5.26;21.265537;177.8;11 / 17;118520;2022-10-14 17:09:15:119
28.7973;3.2883;4.544;3.6118;9.117;-0.081;-8.4741;-4.3952;1.775;-5.1917;0.2543;5.6398;1731.0;2.1;-41.61;-8.59;207.98;-75.7;-108.12;5.0;982.27;64.063;35.95672;-83.924286;814.4;NaN;;5.26;21.265537;177.8;11 / 17;119020;2022-10-14 17:09:15:619
33.5354;-8.6318;9.2578;6.2084;1.4322;7.4548;-5.3268;1.4385;-13.0285;-4.2839;-0.9873;2.9387;1541.0;1.73;-35.66;-20.53;240.23;-54.62;-22.35;5.0;982.26;62.871;35.956703;-83.92428;815.03;NaN;;5.04;21.437489;176.4;11 / 17;119519;2022-10-14 17:09:16:118
14.0187;-7.4803;20.5247;5.0807;3.6741;7.5404;-5.0264;-6.4644;-0.5385;-2.2653;-1.9294;3.5198;16481.0;-4.91;-5.49;-43.39;296.17;-22.0;-33.97;5.0;982.24;57.06;35.956703;-83.92428;815.03;NaN;;5.04;21.437489;176.4;11 / 17;120020;2022-10-14 17:09:16:619
2.3498;0.7875;12.1514;1.427;2.4196;9.3957;5.0928;4.1514;-4.2092;-0.9739;-0.2024;-0.962;13325.0;6.36;-12.9;-36.13;250.39;-14.28;-8.64;5.0;982.23;56.889;35.95669;-83.92427;813.96;NaN;;4.43;22.006983;200.1;11 / 17;120520;2022-10-14 17:09:17:119
-0.4442;3.4774;9.9296;1.3562;1.7989;9.5444;-0.4969;1.0066;1.4313;0.056;0.4464;-0.2001;3315.0;15.86;-22.76;-34.01;232.76;-11.12;-10.55;5.0;982.24;47.566;35.95669;-83.92427;813.96;NaN;;4.43;22.006983;200.1;11 / 17;121021;2022-10-14 17:09:17:620
1.8912;4.046;6.2605;1.8047;2.7058;9.2516;-0.9282;0.618;-1.6926;0.362;-0.2358;-0.2369;3596.0;18.96;-15.28;-35.61;257.48;-16.02;-11.04;5.0;982.25;46.006;35.95668;-83.92427;813.85;NaN;;4.64;20.594446;181.9;11 / 17;121520;2022-10-14 17:09:18:119
-0.6356;-1.3956;8.2466;5.4188;1.5334;8.0284;-6.2706;-1.5836;0.1502;-1.5812;-0.71;-1.336;12696.0;2.89;-4.11;-42.06;280.1;-14.64;-33.45;5.0;982.28;55.387;35.95668;-83.92427;813.85;NaN;;4.64;20.594446;181.9;11 / 17;122019;2022-10-14 17:09:18:618
7.9292;1.4246;-1.136;4.8153;2.6547;8.1201;1.0199;-5.0713;-6.0828;-0.0359;-3.2635;0.5849;59300.0;-1.14;6.04;-39.79;307.93;-15.71;-30.67;5.0;982.24;55.649;35.956665;-83.92427;812.55;NaN;;4.36;20.209665;187.8;10 / 17;122520;2022-10-14 17:09:19:119
2.0243;-4.0974;7.1201;7.6527;2.8171;5.447;-4.2661;-6.2638;1.4693;-0.0941;-0.2075;-1.5255;107548.01;-17.16;4.29;-34.31;295.44;-9.14;-56.98;5.0;982.19;58.328;35.956665;-83.92427;812.55;NaN;;4.36;20.209665;187.8;10 / 17;123020;2022-10-14 17:09:19:619
3.8043;0.7038;-8.6845;4.8593;8.5114;0.3371;-0.4344;-8.3642;-6.3639;4.7052;-0.4992;-0.9538;91506.0;-17.12;5.38;-33.49;337.61;-37.57;-43.8;5.0;982.21;55.753;35.95666;-83.92428;810.17;NaN;;4.14;18.40659;250.3;10 / 17;123521;2022-10-14 17:09:20:120
0.6715;-6.3096;12.1478;7.5374;2.3424;5.8198;-2.955;-8.0575;3.1688;-1.7386;0.627;-2.4594;63972.0;-14.17;-12.67;-28.67;248.25;-13.82;-52.33;5.0;982.25;48.607;35.95666;-83.92428;810.17;NaN;;4.14;18.40659;250.3;10 / 17;124020;2022-10-14 17:09:20:619
8.5289;-2.1404;-3.9347;4.8542;1.596;8.3702;5.4809;-5.3681;-10.9826;4.4192;-0.8608;4.117;82101.0;-12.11;2.08;-37.82;313.72;-9.37;-30.11;5.0;982.23;48.302;35.956657;-83.92429;809.51;NaN;;4.61;17.385279;220.7;12 / 17;124519;2022-10-14 17:09:21:118
0.4501;0.8812;2.9566;9.5868;2.0647;0.0374;-1.6897;-3.8313;3.266;-2.7122;0.5287;-2.4529;4480.0;-24.02;-17.51;-28.18;231.89;12.0;-91.48;5.0;982.32;56.223;35.956657;-83.92429;809.51;NaN;;4.61;17.385279;220.7;12 / 17;125019;2022-10-14 17:09:21:618
6.7705;-2.9363;-9.2471;6.1497;2.3023;7.2836;13.6357;-6.7524;-8.4414;5.3787;2.2294;-0.8256;26292.0;-26.38;-7.76;-33.88;221.22;16.64;-60.24;5.0;982.22;54.727;35.95665;-83.9243;809.16;NaN;;4.03;17.304457;228.6;12 / 17;125520;2022-10-14 17:09:22:119
5.8487;-6.6544;5.9901;9.2424;-1.5788;2.8733;5.1132;-7.8917;5.408;0.7821;1.8735;-3.9723;63157.0;-12.77;-1.72;-35.32;259.19;9.26;-72.73;5.0;982.3;58.32;35.95665;-83.9243;809.16;NaN;;4.03;17.304457;228.6;12 / 17;126020;2022-10-14 17:09:22:619
19.433;-5.9028;-0.486;7.9093;-1.8481;5.4952;12.0316;-11.4102;7.3052;10.5077;-0.89;3.2025;115976.0;-27.07;6.15;-33.62;261.18;10.86;-55.21;5.0;982.2;50.382;35.95664;-83.92431;809.86;NaN;;4.21;16.640251;219.8;12 / 17;126522;2022-10-14 17:09:23:121
9.9727;-9.2578;10.1593;7.8106;0.008;5.93;8.4568;-2.96;2.8566;-6.4728;4.861;-5.8015;6891.0;-20.16;-22.01;-25.33;207.01;12.11;-64.67;5.0;982.35;46.94;35.95664;-83.92431;809.86;NaN;;4.21;16.640251;219.8;12 / 17;127020;2022-10-14 17:09:23:619
27.6817;-3.8665;1.8314;9.653;1.4752;-0.9022;2.8731;-4.329;16.041;6.9817;-3.2613;3.9441;90373.0;-25.16;3.58;-34.54;280.97;-8.65;-95.34;5.0;982.19;52.749;35.95663;-83.92432;812.09;NaN;;4.36;15.398859;218.7;12 / 17;127520;2022-10-14 17:09:24:119
3.597;6.0703;-7.2254;4.8501;5.1039;-6.8262;0.2488;2.5284;-7.092;-0.5721;0.8962;2.5789;3594.0;-6.51;-35.12;4.61;186.25;-31.36;-144.61;5.0;982.22;54.325;35.95663;-83.92432;812.09;NaN;;4.36;15.398859;218.7;12 / 17;128020;2022-10-14 17:09:24:619
7.4025;7.8072;-1.0738;6.6977;6.0032;-3.908;1.0694;6.055;4.9163;-0.388;1.2705;-0.7056;4230.0;-21.09;-36.56;0.45;210.24;-37.75;-120.26;5.0;982.28;55.875;35.95662;-83.92433;813.4;NaN;;4.54;16.102016;222.1;12 / 17;128520;2022-10-14 17:09:25:119
6.81;6.3658;-3.8151;7.2584;5.6737;-3.3608;0.6665;1.6605;-1.5932;-0.0691;-0.1209;1.4345;3585.0;-17.89;-37.61;-10.07;221.0;-43.48;-117.47;5.0;982.29;59.442;35.95662;-83.92433;813.4;NaN;;4.54;16.102016;222.1;12 / 17;129020;2022-10-14 17:09:25:619
13.3304;9.3682;1.1994;8.0487;5.3588;-1.6345;5.6698;4.4646;2.4624;-0.2028;0.9063;-0.8618;3931.0;-27.32;-31.46;-8.14;222.56;-25.92;-109.17;5.0;982.31;55.939;35.956615;-83.92434;810.94;NaN;;4.39;16.038637;228.2;12 / 17;129520;2022-10-14 17:09:26:119
10.1701;4.0496;-5.2442;8.0402;4.854;-2.8221;-0.6011;-1.4463;-0.9759;0.1353;-0.2311;1.5005;4253.0;-20.55;-31.31;-12.11;223.75;-29.67;-109.34;5.0;982.33;50.132;35.956615;-83.92434;810.94;NaN;;4.39;16.038637;228.2;12 / 17;130020;2022-10-14 17:09:26:619
12.5474;6.8949;0.0634;9.3085;2.1599;-2.2038;2.4729;4.7463;2.8449;0.1855;0.015;-0.4874;4499.0;-30.3;-20.34;-10.33;230.77;-12.72;-103.32;5.0;982.31;51.533;35.956608;-83.924355;813.61;NaN;;4.79;15.554194;235.5;12 / 17;130520;2022-10-14 17:09:27:119
11.0656;2.7162;-6.6879;7.3298;5.3509;-3.7166;-3.9098;-4.572;0.6819;-2.5675;1.7424;2.4237;4467.0;-27.19;-23.98;-14.57;253.09;-34.87;-99.06;5.0;982.3;54.124;35.956608;-83.924355;813.61;NaN;;4.79;15.554194;235.5;12 / 17;131020;2022-10-14 17:09:27:619
13.7073;6.3814;5.0994;9.1318;2.7781;-2.25;-1.3232;3.0804;7.4032;-1.1267;0.513;0.6285;4784.0;-33.3;-23.14;-11.19;237.3;-16.83;-111.26;5.0;982.3;51.256;35.9566;-83.92437;816.48;NaN;;4.97;14.723684;239.6;12 / 17;131520;2022-10-14 17:09:28:119
8.1147;-0.0802;-4.0424;7.1751;6.6205;0.9257;0.0109;-6.1263;-3.6075;-0.6867;-0.6193;1.1332;5133.0;-26.61;-21.3;-24.09;282.9;-42.46;-82.65;5.0;982.28;57.057;35.9566;-83.92437;816.48;NaN;;4.97;14.723684;239.6;12 / 17;132020;2022-10-14 17:09:28:619
10.3965;5.9363;7.6564;9.5257;1.0471;-2.0819;-0.2308;2.7633;6.9415;-1.9226;-1.8893;0.8944;4305.0;-31.99;-16.09;-22.56;245.92;-6.13;-102.33;5.0;982.3;50.824;35.956596;-83.924385;817.71;NaN;;5.11;15.328321;242.4;12 / 17;132520;2022-10-14 17:09:29:119
7.1859;0.9194;-2.7855;7.5103;5.8968;2.2344;0.2464;-4.7935;-4.2859;0.5125;0.2921;-0.5382;5841.0;-32.66;-10.69;-25.28;310.38;-32.38;-72.15;5.0;982.27;49.694;35.956596;-83.924385;817.71;NaN;;5.11;15.328321;242.4;12 / 17;133023;2022-10-14 17:09:29:622
9.3215;5.5137;4.3418;9.3422;2.9668;0.3036;-1.718;2.8332;4.6809;-0.7469;-0.8419;0.2062;7687.0;-23.57;-19.26;-30.77;250.75;-17.61;-88.14;5.0;982.3;48.413;35.956593;-83.9244;820.47;NaN;;5.26;14.000131;247.2;12 / 17;133520;2022-10-14 17:09:30:119
5.1497;-2.8801;-5.0803;8.7868;3.7392;-2.2318;-4.5031;-5.2597;-1.3736;1.7101;-1.5635;1.0819;4848.0;-30.71;-19.05;-26.51;272.56;-31.65;-85.74;5.0;982.31;49.793;35.956593;-83.9244;820.47;NaN;;5.26;14.000131;247.2;12 / 17;134020;2022-10-14 17:09:30:619
10.8212;3.6763;5.9064;9.3598;2.9257;0.0719;-0.8672;0.8233;1.3934;0.5693;0.6764;-0.392;28620.0;-37.67;-8.61;-24.97;276.47;-17.36;-89.56;5.0;982.29;47.95;35.956593;-83.924416;816.91;NaN;;4.68;12.908197;249.3;12 / 17;134520;2022-10-14 17:09:31:119
9.7953;2.4873;-4.9786;7.7497;5.9469;0.8641;-3.4934;-4.9129;-3.4513;1.3476;-0.2613;-0.0938;23331.0;-33.84;-8.85;-29.74;312.98;-35.49;-72.03;5.0;982.28;54.084;35.956593;-83.924416;816.91;NaN;;4.68;12.908197;249.3;12 / 17;135020;2022-10-14 17:09:31:619
10.9555;1.9693;1.3023;9.0746;-1.496;-3.4035;1.0266;3.7044;4.8464;0.8627;-0.8232;0.9325;18244.0;-38.03;-10.52;-21.22;250.13;0.29;-106.38;5.0;982.28;52.856;35.95659;-83.92443;818.47;NaN;;4.93;12.516555;247.3;12 / 17;135520;2022-10-14 17:09:32:119
7.7091;-1.0965;-2.4359;9.4281;2.6301;0.6026;-1.4679;-3.8648;-3.449;1.2308;0.8974;-1.7114;14929.0;-39.69;4.37;-18.96;312.21;-15.56;-86.34;5.0;982.25;51.5;35.95659;-83.92443;818.47;NaN;;4.93;12.516555;247.3;12 / 17;136020;2022-10-14 17:09:32:619
9.0197;3.6425;1.707;9.2899;-0.8015;-3.0374;0.1037;3.6654;4.1641;-0.2528;-0.9463;0.7334;17103.0;-40.01;-4.41;-21.82;258.91;4.69;-108.11;5.0;982.3;53.503;35.956585;-83.924446;817.68;NaN;;4.86;12.910618;244.9;12 / 17;136519;2022-10-14 17:09:33:118
6.6054;-0.5889;-0.941;9.4166;2.737;0.0786;-1.567;-2.6313;-1.649;0.1021;0.2648;0.0367;12628.0;-42.75;1.71;-17.38;288.03;-6.39;-94.49;5.0;982.31;58.641;35.956585;-83.924446;817.68;NaN;;4.86;12.910618;244.9;12 / 17;137020;2022-10-14 17:09:33:619
10.9325;1.7692;0.3473;8.8236;-2.3007;-3.6084;0.8891;3.0865;4.3399;-0.2827;-1.0523;1.3429;8705.0;-41.12;-6.9;-21.24;251.7;5.13;-104.22;5.0;982.31;59.982;35.95658;-83.92446;815.82;NaN;;4.79;12.761074;245.6;12 / 17;137519;2022-10-14 17:09:34:118
6.4666;-1.7692;-2.1392;9.6652;1.6565;0.1036;0.2809;-3.9844;-1.4669;0.5133;0.4006;-1.2357;10365.0;-41.66;3.92;-16.28;305.44;-9.72;-89.39;5.0;982.31;59.4;35.95658;-83.92446;815.82;NaN;;4.79;12.761074;245.6;12 / 17;138020;2022-10-14 17:09:34:619
10.9986;1.7285;0.7265;9.3198;-1.27;-2.7747;-0.4349;1.78;3.1246;-1.4506;-0.9002;1.478;3608.0;-40.14;-10.37;-20.55;245.91;7.44;-106.58;5.0;982.34;51.183;35.95658;-83.92448;815.3;NaN;;4.97;13.257391;246.1;12 / 17;138520;2022-10-14 17:09:35:119
6.9607;-1.3932;-1.512;9.5493;2.1626;0.5524;-2.4069;-3.8884;-1.514;1.3224;0.8501;-1.7553;9977.0;-43.2;6.3;-15.08;288.34;0.95;-91.28;5.0;982.33;63.778;35.95658;-83.92448;815.3;NaN;;4.97;13.257391;246.1;12 / 17;139020;2022-10-14 17:09:35:619
8.9061;-1.5168;0.5016;9.4475;-1.3335;-2.2665;1.9635;-0.2492;-0.6528;-1.8964;-0.7071;2.107;3487.0;-39.71;-13.14;-22.84;241.18;7.82;-103.49;5.0;982.32;59.758;35.956577;-83.9245;816.09;NaN;;5.26;12.92526;239.5;12 / 17;139521;2022-10-14 17:09:36:120
9.3957;-3.7481;-1.124;9.4197;2.6143;-0.7775;1.5845;-6.6343;-0.468;2.9213;0.6262;-3.2419;8105.0;-42.88;8.91;-13.37;281.76;7.14;-97.39;5.0;982.34;66.936;35.956577;-83.9245;816.09;NaN;;5.26;12.92526;239.5;12 / 17;140020;2022-10-14 17:09:36:619
10.3555;0.5207;0.1914;9.489;-0.5621;-2.4109;2.0853;-1.1911;-2.3822;-1.9132;-0.3924;2.3856;3879.0;-39.32;-19.86;-15.09;227.76;3.29;-104.26;5.0;982.29;57.802;35.95657;-83.924515;812.67;NaN;;5.04;13.080838;241.4;12 / 17;140520;2022-10-14 17:09:37:119
10.5221;-2.7652;-1.1994;9.7269;0.7898;-0.9661;2.8312;-3.8146;0.3808;2.2586;0.787;-2.592;6589.0;-43.48;6.26;-13.61;263.53;12.82;-103.62;5.0;982.32;56.717;35.95657;-83.924515;812.67;NaN;;5.04;13.080838;241.4;12 / 17;141020;2022-10-14 17:09:37:619
12.5462;-0.6117;-0.4836;9.0198;-2.7222;-2.7207;0.812;1.3752;0.662;-2.2741;-0.2299;2.8714;3623.0;-37.69;-18.69;-17.33;233.86;-2.34;-101.27;5.0;982.26;56.103;35.956566;-83.92453;813.93;NaN;;4.68;12.975491;240.8;12 / 17;141520;2022-10-14 17:09:38:119
8.5684;-3.6775;-2.7006;9.7933;-0.1178;-0.4977;6.0406;-5.1708;1.9079;3.9963;1.3139;-2.8119;17326.0;-38.04;10.29;-13.89;300.98;0.69;-92.91;5.0;982.27;51.834;35.956566;-83.92453;813.93;NaN;;4.68;12.975491;240.8;12 / 17;142019;2022-10-14 17:09:38:618
10.1617;1.063;-1.5443;9.1609;-2.1195;-2.785;2.3377;2.2949;-0.4603;-1.8832;-0.8638;2.7592;3312.0;-34.12;-16.84;-19.78;232.38;12.48;-106.91;5.0;982.27;64.206;35.95656;-83.92454;816.58;NaN;;4.5;12.364055;243.5;12 / 17;142520;2022-10-14 17:09:39:119
8.5935;-3.128;-2.0028;9.6779;-0.0205;-1.5839;5.8848;-3.51;1.5167;0.5078;1.1041;-3.2573;3465.0;-40.01;4.88;-14.61;257.34;18.69;-107.95;5.0;982.3;58.769;35.95656;-83.92454;816.58;NaN;;4.5;12.364055;243.5;12 / 17;143019;2022-10-14 17:09:39:618
9.7403;0.1807;-0.2094;9.4736;-0.8104;-2.401;1.4861;-0.7683;-0.0318;-1.898;0.1406;2.9338;3546.0;-32.51;-24.21;-14.47;233.49;-13.45;-106.63;5.0;982.28;59.672;35.956554;-83.92455;815.74;NaN;;4.75;12.792428;245.0;12 / 17;143520;2022-10-14 17:09:40:119
14.0833;-3.6197;0.3042;9.4053;-2.2433;-1.6366;8.4865;1.395;6.2233;3.8871;0.9232;-3.061;19955.0;-36.88;10.11;-15.36;275.37;13.22;-99.87;5.0;982.3;63.131;35.956554;-83.92455;815.74;NaN;;4.75;12.792428;245.0;12 / 17;144021;2022-10-14 17:09:40:620
8.4763;-0.2764;-0.3843;9.6422;-0.8096;-1.5947;2.2565;0.082;-1.3825;-0.5932;-1.0291;1.6676;4644.0;-35.04;-7.8;-24.73;250.95;4.74;-99.39;5.0;982.3;55.854;35.95655;-83.92456;815.69;NaN;;4.72;12.226105;243.5;12 / 17;144519;2022-10-14 17:09:41:118
8.1532;-4.1357;-1.4928;9.7917;0.5381;0.0602;2.7987;-5.1756;-0.2731;3.9316;0.7545;-2.412;13384.0;-38.32;11.38;-15.58;276.55;13.55;-99.47;5.0;982.32;61.116;35.95655;-83.92456;815.69;NaN;;4.72;12.226105;243.5;12 / 17;145020;2022-10-14 17:09:41:619
9.9847;0.4394;-0.6763;9.6943;-0.535;-1.3801;2.5306;-3.0017;-2.4115;-1.2386;-0.7832;2.0953;3185.0;-38.21;-13.07;-21.69;241.29;3.13;-98.1;5.0;982.33;61.742;35.956547;-83.924576;814.19;NaN;;4.86;12.226105;242.3;12 / 17;145520;2022-10-14 17:09:42:119
9.5943;-2.764;-1.2748;9.7566;0.987;-0.0747;4.4074;-4.9457;0.1069;0.9966;1.9691;-2.5315;8290.0;-42.02;8.27;-15.58;268.64;13.25;-104.46;5.0;982.3;61.252;35.956547;-83.924576;814.19;NaN;;4.86;12.226105;242.3;12 / 17;146020;2022-10-14 17:09:42:619
9.883;0.7528;-0.4513;9.6181;1.1002;-1.566;0.7542;-3.3357;-2.792;-1.7746;-0.9539;2.5422;2790.0;-39.53;-18.79;-20.72;241.36;-6.44;-99.25;5.0;982.29;58.734;35.956543;-83.92459;813.61;NaN;;4.64;12.226105;246.4;12 / 17;146520;2022-10-14 17:09:43:119
9.422;-2.636;-2.4108;9.6513;1.2216;-1.2372;5.093;-3.4171;0.1712;1.7453;1.5213;-2.6574;10981.0;-43.8;1.78;-10.18;258.71;9.91;-108.41;5.0;982.29;58.66;35.956543;-83.92459;813.61;NaN;;4.64;12.226105;246.4;12 / 17;147019;2022-10-14 17:09:43:618
10.2156;2.3928;-1.4462;9.2527;-1.1966;-3.0211;0.7956;3.1707;1.7305;0.1184;-0.9665;2.1432;2963.0;-40.89;-18.94;-14.23;240.23;-9.5;-101.64;5.0;982.27;52.117;35.956543;-83.9246;812.64;NaN;;4.43;12.226105;237.0;12 / 17;147522;2022-10-14 17:09:44:121
9.9188;-1.7369;-2.0004;9.5392;1.538;-1.6756;5.7187;-2.3674;-0.1589;0.4923;1.0327;-2.4136;6127.0;-45.26;-0.67;-11.92;286.04;-9.02;-99.96;5.0;982.31;55.214;35.956543;-83.9246;812.64;NaN;;4.43;12.226105;237.0;12 / 17;148020;2022-10-14 17:09:44:619
9.8901;2.4837;-1.4988;9.2916;-0.7998;-3.0326;1.5251;1.9283;1.2559;-0.7736;-0.6409;2.3556;2871.0;-40.11;-18.49;-15.96;233.24;4.68;-108.08;5.0;982.29;62.29;35.95654;-83.92461;812.81;NaN;;4.72;12.226105;253.5;12 / 17;148520;2022-10-14 17:09:45:119
12.0003;-2.6097;-2.7066;9.4901;1.0165;-2.2527;7.8289;-0.4728;0.5305;1.4718;0.514;-2.6095;5598.0;-45.09;0.94;-11.19;257.19;10.81;-111.65;5.0;982.29;62.148;35.95654;-83.92461;812.81;NaN;;4.72;12.226105;253.5;12 / 17;149020;2022-10-14 17:09:45:619
9.2665;3.1603;-1.1994;9.202;0.6816;-3.321;3.6706;-0.6522;-1.0649;-2.0789;-0.0851;2.6531;3198.0;-37.65;-23.79;-12.73;244.14;-19.34;-110.57;5.0;982.29;56.838;35.956535;-83.92462;809.09;NaN;;4.21;12.226105;244.3;12 / 17;149520;2022-10-14 17:09:46:119
13.1447;-1.7919;-0.4669;9.4286;0.1124;-2.6941;9.6776;2.8916;0.7893;2.4697;0.9554;-2.7955;8254.0;-43.76;-1.67;-10.14;265.92;-0.66;-105.95;5.0;982.3;54.923;35.956535;-83.92462;809.09;NaN;;4.21;12.226105;244.3;12 / 17;150020;2022-10-14 17:09:46:619
9.8686;2.5546;-2.9471;9.4771;0.2841;-2.5049;2.3998;-0.7078;1.0336;-0.5918;-0.1831;2.607;3198.0;-36.15;-20.01;-15.32;231.14;-1.66;-104.81;5.0;982.31;59.007;35.95653;-83.92464;810.35;NaN;;4.64;12.226105;248.5;12 / 17;150520;2022-10-14 17:09:47:119
8.9707;-2.4861;-3.2058;9.053;3.542;-1.2915;3.9828;-6.8397;-0.82;2.1752;1.0505;-3.4304;5363.0;-40.26;-1.46;-12.49;264.24;1.71;-102.98;5.0;982.27;63.683;35.95653;-83.92464;810.35;NaN;;4.64;12.226105;248.5;12 / 17;151019;2022-10-14 17:09:47:618
8.8762;3.0846;-2.3964;9.347;1.5003;-2.5599;3.3015;0.7507;2.7078;0.4678;-1.0984;2.2097;3068.0;-31.5;-22.87;-13.72;229.77;-8.8;-105.32;5.0;982.29;53.893;35.956528;-83.924644;809.4;NaN;;4.68;12.226105;239.5;12 / 17;151520;2022-10-14 17:09:48:119
8.9731;-1.0893;-2.843;9.485;2.117;-1.3128;2.5107;-3.4376;-0.0574;2.3359;0.6072;-2.1597;7337.0;-38.81;-1.28;-13.22;265.22;1.09;-100.87;5.0;982.3;58.228;35.956528;-83.924644;809.4;NaN;;4.68;12.226105;239.5;12 / 17;152019;2022-10-14 17:09:48:618
8.6713;1.4115;-1.5096;9.4666;-0.153;-2.5553;2.6155;0.5362;-0.3396;-1.0991;-0.3494;1.2261;2983.0;-39.37;-10.42;-14.27;246.03;0.89;-105.11;5.0;982.27;59.528;35.956524;-83.92467;809.66;NaN;;4.64;12.226105;244.3;12 / 17;152520;2022-10-14 17:09:49:119
10.0756;-1.4844;-2.0255;9.6285;-0.1193;-1.8569;4.3202;-1.118;2.2115;2.1437;0.9607;-1.9667;12443.0;-40.46;9.84;-9.02;276.02;12.43;-110.07;5.0;982.24;64.277;35.956524;-83.92467;809.66;NaN;;4.64;12.226105;244.3;12 / 17;153020;2022-10-14 17:09:49:619
7.2721;0.1986;-2.5463;9.3708;-0.9415;-2.7335;-0.0189;0.4142;-1.1073;-0.3047;-0.233;1.7476;2640.0;-42.28;-11.25;-14.79;256.49;-7.68;-104.01;5.0;982.28;52.662;35.95652;-83.92468;807.37;NaN;;4.68;12.226105;248.9;12 / 17;153522;2022-10-14 17:09:50:121
9.3766;-2.455;-2.321;9.6451;-0.5366;-1.6897;4.1019;0.0697;2.2418;0.5161;1.5821;-2.0347;4517.0;-42.52;6.53;-11.53;283.97;3.14;-99.94;5.0;982.3;57.194;35.95652;-83.92468;807.37;NaN;;4.68;12.226105;248.9;12 / 17;154020;2022-10-14 17:09:50:619
8.0429;-0.382;-2.6635;9.3638;-1.6005;-2.4348;3.0074;0.5798;-2.0183;-0.2346;-0.6523;1.8796;2462.0;-42.3;-12.81;-16.69;235.23;9.39;-104.58;5.0;982.27;46.732;35.95652;-83.92469;807.48;NaN;;4.54;12.226105;256.8;12 / 17;154521;2022-10-14 17:09:51:120
8.4033;-3.0811;-2.1236;9.3975;-2.0244;-1.939;4.3094;4.2383;2.6623;2.526;0.1863;-2.8036;6913.0;-41.98;11.34;-11.96;260.57;27.02;-116.34;5.0;982.27;46.711;35.95652;-83.92469;807.48;NaN;;4.54;12.226105;256.8;12 / 17;155019;2022-10-14 17:09:51:618
9.0676;3.9311;-1.5;9.4023;2.3452;-1.5059;3.8222;0.819;-2.37;-1.4671;-0.4734;-0.1499;2451.0;-43.14;-10.26;-16.91;263.94;-10.63;-101.37;5.0;982.31;46.769;35.95652;-83.924706;806.75;NaN;;4.61;12.226105;249.4;12 / 17;155520;2022-10-14 17:09:52:119
14.8914;2.4849;-8.1365;8.1811;4.8706;-2.3488;-2.1499;0.0752;5.4478;2.7505;0.6072;-3.4665;9476.0;-40.63;-19.72;-17.21;269.76;-29.78;-106.02;5.0;982.26;44.522;35.95652;-83.924706;806.75;NaN;;4.61;12.226105;249.4;12 / 17;156020;2022-10-14 17:09:52:619
3.5204;8.4847;-0.7863;5.5658;6.8422;-4.2867;2.8602;3.2771;-2.9439;-0.307;-2.4482;0.1546;3937.0;-17.27;-43.26;0.71;204.54;-44.24;-127.6;5.0;982.26;43.178;35.956512;-83.92472;811.03;NaN;;4.75;12.226105;242.5;12 / 17;156522;2022-10-14 17:09:53:121
27.7355;3.2692;9.7463;9.0052;1.8868;3.3936;7.6555;4.1626;7.2952;-1.8047;2.3132;7.8359;14511.0;-16.78;-41.96;-10.78;254.13;-65.67;-100.88;5.0;982.18;43.948;35.956512;-83.92472;811.03;NaN;;4.75;12.226105;242.5;12 / 17;157020;2022-10-14 17:09:53:619
12.4205;-14.3276;3.8821;6.8887;1.0866;6.8946;0.4798;-0.7875;-9.1947;-9.896;-0.5432;-3.4659;7639.0;-14.64;-26.14;-30.51;206.94;-6.36;-44.98;5.0;982.32;50.038;35.95651;-83.924736;812.58;NaN;;4.75;12.226105;255.3;12 / 17;157520;2022-10-14 17:09:54:119
16.6666;-7.1201;14.98;9.3269;-1.1052;2.821;1.2559;-7.0123;1.6661;-3.6571;-0.2363;2.8184;126793.0;-30.54;8.29;-32.27;279.34;6.47;-73.17;5.0;982.22;47.101;35.95651;-83.924736;812.58;NaN;;4.75;12.226105;255.3;12 / 17;158020;2022-10-14 17:09:54:619
14.3575;-1.6053;-2.9339;9.4494;2.5823;-0.4584;-1.9416;-4.5701;-6.6028;-2.3947;-0.9491;2.629;27088.0;-33.75;-10.97;-26.34;265.86;-15.27;-92.78;5.0;982.3;45.803;35.956505;-83.92475;814.26;NaN;;4.36;12.226105;256.6;12 / 17;158520;2022-10-14 17:09:55:119
14.4664;-0.4753;5.1688;8.6164;-2.5013;-3.9588;6.1073;-0.2562;8.6022;-0.9429;0.8661;0.7995;45650.0;-41.59;2.29;-8.33;259.72;13.36;-122.17;5.0;982.25;46.749;35.956505;-83.92475;814.26;NaN;;4.36;12.226105;256.6;12 / 17;159021;2022-10-14 17:09:55:620
7.8838;-4.1489;-3.5779;9.1311;0.4383;-3.5498;-1.931;-7.3212;-0.409;0.6677;-0.8859;1.4072;12151.0;-41.66;-1.91;-5.96;297.04;-16.27;-106.17;5.0;982.27;48.512;35.956505;-83.92477;813.61;NaN;;4.28;12.226105;254.2;12 / 17;159520;2022-10-14 17:09:56:119
18.8357;-0.8668;1.3023;7.9721;-3.5086;-4.5062;5.1701;6.1435;7.3302;-1.3436;0.5356;0.2991;8950.0;-43.01;2.31;3.54;235.32;20.96;-119.48;5.0;982.27;48.173;35.956505;-83.92477;813.61;NaN;;4.28;12.226105;254.2;12 / 17;160022;2022-10-14 17:09:56:621
10.6561;-2.0112;-3.6162;9.3742;2.6514;-1.1251;-2.6209;-6.576;-2.8754;-1.2892;-1.7019;2.5606;5168.0;-37.31;-22.37;-10.52;232.88;-15.69;-96.84;5.0;982.31;49.051;35.9565;-83.92478;812.68;NaN;;4.82;12.226105;274.4;12 / 17;160522;2022-10-14 17:09:57:121
16.1806;-3.3398;-0.6452;8.3364;-4.6609;-2.2252;5.1995;9.6048;6.3487;1.5435;0.6309;-3.3613;6873.0;-41.7;-5.76;-11.51;224.16;28.38;-104.95;5.0;982.29;48.398;35.9565;-83.92478;812.68;NaN;;4.82;12.226105;274.4;12 / 17;161021;2022-10-14 17:09:57:620
11.0082;-0.7839;-2.0566;9.1705;2.1768;-2.7081;-0.4022;-6.4912;-0.0752;-0.2004;-0.5619;1.7342;3549.0;-38.19;-18.26;-14.19;266.2;-26.2;-105.05;5.0;982.3;48.405;35.956497;-83.9248;812.61;NaN;;4.79;12.226105;254.3;12 / 17;161521;2022-10-14 17:09:58:120
15.2204;1.0199;-1.3765;8.2268;-3.6421;-3.9018;3.4438;5.9115;2.5869;0.2231;0.3596;-0.4694;2418.0;-43.41;-7.01;-9.83;234.85;21.8;-115.37;5.0;982.32;47.706;35.956497;-83.9248;812.61;NaN;;4.79;12.226105;254.3;12 / 17;162019;2022-10-14 17:09:58:618
9.3467;-1.2532;-0.6212;9.6041;1.2266;-1.5578;-0.4342;-4.9122;-1.531;-0.4001;-0.3787;-0.3342;3711.0;-41.89;-9.3;-15.71;259.77;-7.19;-99.21;5.0;982.31;50.948;35.956497;-83.92481;813.46;NaN;;4.57;12.226105;258.8;12 / 17;162520;2022-10-14 17:09:59:119
15.0027;0.4059;-0.5483;9.0075;-3.0063;-2.4489;6.6097;3.6913;1.3409;-0.205;0.6803;-0.3163;4198.0;-42.37;-3.28;-14.57;241.47;22.7;-111.05;5.0;982.29;47.052;35.956497;-83.92481;813.46;NaN;;4.57;12.226105;258.8;12 / 17;163020;2022-10-14 17:09:59:619
11.074;-4.8685;-4.2592;9.5561;1.9515;-1.021;-3.6872;-6.042;-1.1017;-1.0473;0.2336;0.7438;4562.0;-40.39;-6.09;-17.04;274.53;-11.48;-96.1;5.0;982.31;45.632;35.95649;-83.924835;814.18;NaN;;5.0;12.226105;240.5;12 / 17;163519;2022-10-14 17:10:00:118
14.5729;-2.4885;2.9423;8.5019;-3.5636;-3.3449;6.8349;1.4037;6.8266;-1.5575;1.3213;0.4719;16693.0;-40.29;10.76;-11.02;265.83;21.31;-111.48;5.0;982.27;47.609;35.95649;-83.924835;814.18;NaN;;5.0;12.226105;240.5;12 / 17;164019;2022-10-14 17:10:00:618
10.2945;-3.9;-2.4024;9.6866;0.9823;-1.1724;-3.6512;-6.1407;-0.4884;-1.1876;-1.5183;1.3459;16584.0;-42.04;2.87;-18.28;286.86;-5.75;-96.9;5.0;982.26;59.923;35.956486;-83.92485;813.74;NaN;;5.04;12.226105;267.9;12 / 17;164519;2022-10-14 17:10:01:118
18.9506;-2.8131;-1.5431;7.896;-4.533;-3.6435;5.5382;6.3707;2.1388;-0.5995;-0.0121;-0.1551;6259.0;-44.12;4.95;-14.59;246.12;32.05;-113.76;5.0;982.28;51.142;35.956486;-83.92485;813.74;NaN;;5.04;12.226105;267.9;12 / 17;165020;2022-10-14 17:10:01:619
8.1425;-3.2501;-5.8786;8.9248;1.78;-3.6538;-2.6877;-5.899;-0.2306;0.0996;-1.5246;1.191;6287.0;-42.54;-3.06;-13.39;293.45;-20.41;-105.52;5.0;982.29;49.196;35.95648;-83.92486;814.25;NaN;;5.08;12.226105;243.7;12 / 17;165520;2022-10-14 17:10:02:119
17.7715;-1.002;3.4941;8.5822;-2.0899;-4.2601;3.446;1.4305;6.6096;-3.0388;0.4226;1.1265;20799.0;-43.86;4.24;-5.12;260.51;12.3;-116.4;5.0;982.29;47.058;35.95648;-83.92486;814.25;NaN;;5.08;12.226105;243.7;12 / 17;166020;2022-10-14 17:10:02:619
9.7618;-5.4826;-3.3565;9.5537;1.1081;-1.9157;-2.6179;-4.5811;-1.5655;-1.6311;0.0471;1.4369;22634.0;-43.99;-4.35;-13.61;271.51;-6.49;-101.34;5.0;982.3;53.725;35.95647;-83.92487;813.96;NaN;;4.68;12.226105;247.4;12 / 17;166520;2022-10-14 17:10:03:119
15.1008;-5.3064;5.2466;8.1919;-3.3214;-4.2463;1.1511;2.8968;8.2483;1.5102;1.1727;-0.755;55629.0;-43.57;8.04;-8.59;255.06;21.1;-110.12;5.0;982.28;49.355;35.95647;-83.92487;813.96;NaN;;4.68;12.226105;247.4;12 / 17;167021;2022-10-14 17:10:03:620
7.4994;-4.6935;-5.2202;8.8539;1.5942;3.9036;-1.6698;-5.0582;-3.1859;1.6468;-0.9934;-0.7529;67743.0;-36.82;11.96;-19.99;10.11;-3.63;-58.05;5.0;982.29;50.62;35.956463;-83.92488;813.18;NaN;;4.39;12.226105;243.6;12 / 17;167520;2022-10-14 17:10:04:119
17.9976;-3.6667;2.8525;7.3775;-3.7514;-5.2602;5.417;2.6831;7.628;0.6669;1.0378;0.2146;56107.0;-39.17;18.0;-12.71;282.51;22.49;-125.49;5.0;982.31;45.311;35.956463;-83.92488;813.18;NaN;;4.39;12.226105;243.6;12 / 17;168020;2022-10-14 17:10:04:619
5.0085;-3.894;-1.9331;9.0525;3.7054;0.7024;-3.0984;-7.2889;-2.5756;1.4997;-0.3399;-1.3664;57341.0;-40.37;4.56;-20.53;318.7;-22.2;-85.56;5.0;982.32;48.847;35.956463;-83.9249;810.61;NaN;;4.64;12.226105;257.9;12 / 17;168519;2022-10-14 17:10:05:118
10.2933;-0.7158;3.711;7.2457;-4.1114;-5.1737;2.8866;3.0798;8.7907;-0.7846;-1.4615;0.5968;51684.0;-37.65;2.7;-19.43;255.95;24.36;-114.53;5.0;982.32;65.032;35.956463;-83.9249;810.61;NaN;;4.64;12.226105;257.9;12 / 17;169019;2022-10-14 17:10:05:618
3.7397;-5.7458;-4.1034;9.1121;3.5467;-0.7487;-0.3036;-9.8346;-1.1717;1.1304;-0.4855;-1.1352;63165.0;-33.75;17.76;-10.11;336.08;-21.2;-94.7;5.0;982.27;52.387;35.956463;-83.92491;811.0;NaN;;4.28;12.226105;267.1;12 / 17;169520;2022-10-14 17:10:06:119
14.5549;2.0255;5.2155;7.4149;-3.5505;-5.3464;6.0096;3.6935;6.8295;-2.513;-1.6838;2.0625;32622.0;-38.1;-2.79;-15.83;253.29;21.23;-125.79;5.0;982.3;63.309;35.956463;-83.92491;811.0;NaN;;4.28;12.226105;267.1;12 / 17;170019;2022-10-14 17:10:06:618
6.3873;-3.833;-3.1208;9.1695;3.379;-0.8205;1.8464;-9.3824;-1.7136;1.5229;-0.3166;-1.6395;54617.0;-36.09;8.64;-10.67;325.31;-20.16;-95.11;5.0;982.31;51.635;35.95646;-83.92493;809.7;NaN;;4.93;12.226105;247.1;12 / 17;170519;2022-10-14 17:10:07:118
13.2658;1.4103;0.0682;7.0709;-4.1085;-5.4123;6.3221;3.3854;5.4654;-3.113;-0.6706;2.3268;8481.0;-39.69;-13.11;-14.55;229.44;19.19;-108.72;5.0;982.33;47.05;35.95646;-83.92493;809.7;NaN;;4.93;12.226105;247.1;12 / 17;171020;2022-10-14 17:10:07:619
5.5675;-6.239;-4.7174;6.9892;6.3203;-2.7157;1.6491;-13.2462;-1.1683;4.5022;-0.2409;-4.0681;35938.0;-36.68;17.03;-6.62;348.05;-15.37;-87.77;5.0;982.29;45.641;35.956455;-83.924934;808.74;NaN;;4.46;12.226105;252.4;12 / 17;171520;2022-10-14 17:10:08:119
10.2873;-1.4617;10.0899;8.5676;-3.9175;-2.7239;5.637;0.343;5.46;-6.2868;1.0868;5.5292;26542.0;-34.46;-11.49;-11.55;225.21;23.55;-107.64;5.0;982.35;53.072;35.956455;-83.924934;808.74;NaN;;4.46;12.226105;252.4;12 / 17;172019;2022-10-14 17:10:08:618
5.8932;-4.6241;-3.7696;9.299;2.6313;-1.6658;-2.7695;-8.2362;-0.3469;3.5726;-1.0223;-2.5598;79524.0;-32.49;19.93;-10.48;330.39;-15.56;-100.16;5.0;982.29;48.668;35.95645;-83.92495;807.42;NaN;;4.57;12.226105;265.8;12 / 17;172519;2022-10-14 17:10:09:118
12.3057;0.0144;-2.4012;7.1191;-6.4961;-1.8137;5.9321;4.4685;0.8115;-0.897;0.1093;1.0624;9541.0;-41.01;-1.82;-20.04;248.64;14.33;-101.59;5.0;982.33;46.821;35.95645;-83.92495;807.42;NaN;;4.57;12.226105;265.8;12 / 17;173020;2022-10-14 17:10:09:619
6.6604;-5.2119;-0.4406;9.44;2.4449;-1.0389;-2.6165;-8.6121;0.2123;0.6693;0.0053;-2.8081;5642.0;-36.66;16.33;-17.76;299.72;5.7;-96.08;5.0;982.37;46.826;35.956448;-83.924965;804.09;NaN;;4.75;12.226105;256.0;12 / 17;173520;2022-10-14 17:10:10:119
14.6279;3.2285;1.8039;8.206;-4.2582;-3.271;4.1171;3.1713;0.315;1.0563;-0.8001;0.626;3592.0;-42.26;-10.84;-15.38;230.35;25.74;-111.73;5.0;982.36;45.416;35.956448;-83.924965;804.09;NaN;;4.75;12.226105;256.0;12 / 17;174022;2022-10-14 17:10:10:621
6.6592;-4.5416;-4.2353;9.4994;0.9271;-2.2522;-2.6292;-4.3882;-0.1071;0.4267;0.3515;-2.5352;3256.0;-45.62;1.84;-8.96;287.28;-5.42;-103.34;5.0;982.42;47.659;35.956444;-83.92499;802.21;NaN;;4.57;12.226105;252.9;12 / 17;174520;2022-10-14 17:10:11:119
10.9229;-0.5028;1.203;7.9667;-4.2005;-3.8806;1.4846;2.1296;4.6853;-1.7661;-0.5856;2.2039;4577.0;-45.02;-13.31;-12.09;226.46;14.68;-105.94;5.0;982.38;47.005;35.956444;-83.92499;802.21;NaN;;4.57;12.226105;252.9;12 / 17;175020;2022-10-14 17:10:11:619
6.7621;-3.772;-2.8143;9.672;0.9221;-1.3315;-1.2642;-4.7527;-1.5594;0.1096;-0.0834;-1.1226;11556.0;-42.11;12.3;-13.27;310.14;-5.4;-97.84;5.0;982.35;47.652;35.95644;-83.925;803.63;NaN;;4.54;12.226105;247.3;12 / 17;175520;2022-10-14 17:10:12:119
14.4293;0.2584;-0.1161;7.1249;-4.7068;-4.822;3.7461;2.3396;2.8509;-2.3704;-1.321;2.9583;5067.0;-44.21;-5.31;-15.66;245.13;28.68;-124.09;5.0;982.34;47.525;35.95644;-83.925;803.63;NaN;;4.54;12.226105;247.3;12 / 17;176020;2022-10-14 17:10:12:619
5.9375;-3.9957;-3.9251;9.6443;1.1036;-1.3928;0.4273;-6.2709;-0.8672;1.4744;-0.607;-1.5725;9596.0;-42.62;6.9;-10.56;304.18;-6.46;-98.22;5.0;982.34;46.898;35.956432;-83.92502;803.32;NaN;;4.75;12.226105;245.6;12 / 17;176520;2022-10-14 17:10:13:119
10.704;-2.1954;-0.4059;7.8494;-4.1354;-4.1781;1.5865;2.2412;3.1741;-2.5528;-0.0196;2.5151;4390.0;-44.46;-13.33;-13.42;230.0;14.26;-108.2;5.0;982.35;43.776;35.956432;-83.92502;803.32;NaN;;4.75;12.226105;245.6;12 / 17;177020;2022-10-14 17:10:13:619
6.1074;-3.5803;-3.0547;9.0571;3.1068;-2.1182;-2.532;-7.1824;-1.3283;1.6358;-0.461;-2.2368;14904.0;-41.21;15.15;-11.1;319.24;-4.91;-96.82;5.0;982.34;48.239;35.956425;-83.92503;803.72;NaN;;4.9;12.226105;245.6;12 / 17;177520;2022-10-14 17:10:14:119
12.5569;-1.7728;-0.0694;8.093;-4.182;-3.6312;2.7893;1.579;2.1182;-3.3125;0.3479;3.1982;4603.0;-42.92;-9.88;-15.08;233.49;25.24;-114.17;5.0;982.36;54.047;35.956425;-83.92503;803.72;NaN;;4.9;12.226105;245.6;12 / 17;178019;2022-10-14 17:10:14:618
6.5492;-4.0938;-2.6384;9.007;3.4858;-1.7012;-0.0449;-8.0136;-1.2465;1.6404;-0.0034;-3.1079;9712.0;-40.74;10.88;-11.31;322.35;-20.82;-100.7;5.0;982.35;47.687;35.956417;-83.92505;805.36;NaN;;4.9;12.226105;233.2;12 / 17;178520;2022-10-14 17:10:15:119
10.9579;2.837;1.2999;8.7986;-3.267;-2.843;3.3788;1.3495;-0.4113;-1.8443;-0.0391;1.2971;4281.0;-42.04;-17.36;-17.08;240.17;-2.89;-103.55;5.0;982.4;47.553;35.956417;-83.92505;805.36;NaN;;4.9;12.226105;233.2;12 / 17;179019;2022-10-14 17:10:15:618
6.7226;-3.2213;-2.2887;9.2781;3.0151;-0.9986;0.7334;-6.9767;-0.841;2.4849;0.3225;-3.1372;12871.0;-42.34;12.81;-15.58;297.42;3.62;-95.73;5.0;982.38;53.108;35.956413;-83.925064;808.39;NaN;;5.51;12.226105;257.6;12 / 17;179520;2022-10-14 17:10:16:119
8.8295;0.6165;-1.7812;9.0952;0.3533;-3.6501;0.1222;-0.5061;-3.0801;-3.098;0.0544;3.621;3934.0;-39.79;-24.56;-12.38;227.56;-2.06;-111.87;5.0;982.42;53.185;35.956413;-83.925064;808.39;NaN;;5.51;12.226105;257.6;12 / 17;180020;2022-10-14 17:10:16:619
6.044;-4.5009;-1.8948;9.7909;-0.5548;-0.0011;1.1624;-6.7683;-0.0929;2.5798;0.3609;-3.1521;9765.0;-38.31;16.13;-18.79;306.03;3.24;-90.01;5.0;982.36;49.72;35.956406;-83.92508;810.74;NaN;;5.36;12.226105;237.8;12 / 17;180520;2022-10-14 17:10:17:119
11.8268;-3.3338;0.0036;7.3292;-5.7611;-3.0437;3.6975;2.4132;2.2118;-2.1377;-0.0202;3.174;3875.0;-42.86;-9.37;-20.16;234.3;17.12;-100.84;5.0;982.41;48.369;35.956406;-83.92508;810.74;NaN;;5.36;12.226105;237.8;12 / 17;181021;2022-10-14 17:10:17:620
6.8088;-5.0779;-1.6986;9.7601;-0.9449;-0.1331;3.2531;-7.7964;1.0234;2.5115;-0.6825;-2.7783;12275.0;-34.54;24.69;-14.79;324.29;5.53;-90.78;5.0;982.33;49.183;35.956394;-83.925095;811.01;NaN;;4.97;12.226105;249.6;12 / 17;181519;2022-10-14 17:10:18:118
13.535;-1.5682;-1.0247;7.947;-4.7988;-3.1603;1.6198;2.6905;0.5905;-2.2449;0.4529;3.6586;3463.0;-42.75;-12.69;-17.46;228.72;29.3;-111.69;5.0;982.4;48.168;35.956394;-83.925095;811.01;NaN;;4.97;12.226105;249.6;12 / 17;182020;2022-10-14 17:10:18:619
6.2354;-4.5655;-2.0997;9.7939;-0.4916;-0.0859;3.8976;-7.5082;-0.0687;2.6828;-0.2569;-2.4848;17518.0;-36.54;20.51;-14.53;321.3;2.87;-90.5;5.0;982.34;52.887;35.95639;-83.92512;810.82;NaN;;5.33;12.226105;257.3;12 / 17;182520;2022-10-14 17:10:19:119
12.4146;-1.4641;0.2958;8.4784;-3.9797;-2.9068;2.4846;1.915;0.999;-2.8296;0.277;3.1018;4010.0;-42.28;-8.87;-22.16;247.69;5.01;-101.16;5.0;982.4;48.627;35.95639;-83.92512;810.82;NaN;;5.33;12.226105;257.3;12 / 17;183020;2022-10-14 17:10:19:619
7.4587;-5.7446;-1.9836;9.161;3.2212;-1.3672;0.425;-9.7326;-0.6222;3.5378;-0.4383;-3.4888;19379.0;-37.67;21.49;-12.81;322.07;4.06;-91.9;5.0;982.34;46.922;35.956387;-83.92513;808.9;NaN;;4.93;12.226105;255.9;12 / 17;183520;2022-10-14 17:10:20:119
10.9699;3.1184;0.3114;8.8698;-3.4315;-2.392;4.1802;4.27;-0.3099;-1.8036;0.5895;3.0259;3131.0;-41.68;-14.87;-18.49;226.79;20.48;-105.09;5.0;982.39;45.542;35.956387;-83.92513;808.9;NaN;;4.93;12.226105;255.9;12 / 17;184020;2022-10-14 17:10:20:619
6.591;-3.5982;-2.6994;9.4438;2.1772;-1.4983;-1.3;-5.7917;-0.1811;3.0349;-0.4581;-2.5132;7138.0;-42.32;5.76;-19.28;299.6;-12.83;-99.01;5.0;982.41;48.147;35.956383;-83.925156;806.89;NaN;;4.54;12.226105;247.6;12 / 17;184520;2022-10-14 17:10:21:119
12.9616;-1.0367;1.4282;9.0038;-3.0342;-2.428;2.8395;-0.5721;-0.9012;-2.8403;-0.6767;2.3753;2456.0;-42.04;-17.08;-17.44;237.85;-0.67;-103.53;5.0;982.41;48.468;35.956383;-83.925156;806.89;NaN;;4.54;12.226105;247.6;12 / 17;185020;2022-10-14 17:10:21:619
7.8383;-4.5404;-2.1643;9.3024;2.8195;-1.2981;2.7796;-8.331;-0.8022;2.7271;0.0314;-3.6808;7196.0;-41.04;16.71;-13.95;300.77;8.08;-97.28;5.0;982.36;52.402;35.956375;-83.92516;805.87;NaN;;4.93;12.226105;242.0;12 / 17;185520;2022-10-14 17:10:22:119
14.549;1.252;0.274;9.5354;-1.4844;-1.7445;2.1947;-0.7009;-1.3825;-1.6254;-1.4388;2.5656;1391.0;-39.32;-20.29;-17.29;223.39;8.71;-100.37;5.0;982.39;47.77;35.956375;-83.92516;805.87;NaN;;4.93;12.226105;242.0;12 / 17;186020;2022-10-14 17:10:22:619
6.7525;-3.8414;-2.5582;8.91;4.0429;-0.6615;4.3022;-8.4031;0.081;3.0214;1.0529;-3.5396;3770.0;-41.02;4.29;-17.08;314.99;-24.35;-94.25;5.0;982.35;50.318;35.956367;-83.92518;804.45;NaN;;5.0;12.226105;248.4;12 / 17;186520;2022-10-14 17:10:23:119
12.3954;-0.2776;-2.0794;7.383;-3.857;-5.1754;4.8677;3.1643;2.5603;-3.224;-0.2478;4.1793;1500.0;-36.06;-25.56;-15.92;224.21;5.41;-110.81;5.0;982.39;48.578;35.956367;-83.92518;804.45;NaN;;5.0;12.226105;248.4;12 / 17;187020;2022-10-14 17:10:23:619
8.5421;-5.0731;-3.5958;9.4456;1.4483;-2.2031;4.7486;-8.392;0.0189;1.995;-0.3884;-3.2208;7686.0;-40.69;16.01;-5.44;326.66;-8.49;-103.13;5.0;982.33;49.107;35.956367;-83.92519;804.18;NaN;;5.08;12.226105;263.2;12 / 17;187520;2022-10-14 17:10:24:119
4.2879;4.3825;-1.5443;8.0767;5.5542;0.2987;-2.3158;0.0071;-2.3049;0.1378;0.4438;-0.2436;1175.0;-32.19;-28.57;-20.68;254.88;-34.5;-87.88;5.0;982.37;46.881;35.956367;-83.92519;804.18;NaN;;5.08;12.226105;263.2;12 / 17;188020;2022-10-14 17:10:24:619
6.2605;3.3374;-4.2063;7.9159;5.593;-1.4925;4.3302;-0.351;3.645;-0.1239;3.7798;-1.6161;1152.0;-28.74;-32.25;-18.6;243.4;-34.77;-100.68;5.0;982.37;47.959;35.956356;-83.92521;805.9;NaN;;5.98;12.226105;231.0;12 / 17;188520;2022-10-14 17:10:25:119
0.6595;4.1369;5.8666;2.1694;3.752;8.797;0.2772;0.2461;-0.1202;-0.514;-0.1006;-0.2471;3498.0;1.43;-30.79;-27.53;204.8;-24.83;-14.07;5.0;982.4;47.046;35.956356;-83.92521;805.9;NaN;;5.98;12.226105;231.0;12 / 17;189020;2022-10-14 17:10:25:619
5.5137;2.0865;5.6859;6.6356;1.9198;6.9608;-1.724;-0.3847;1.2542;-0.0584;-1.1781;0.5209;3553.0;10.84;-19.18;-39.26;249.03;-14.46;-34.04;5.0;982.37;48.813;35.956345;-83.92522;806.46;NaN;;4.93;12.226105;231.5;12 / 17;189520;2022-10-14 17:10:26:119
11.2558;0.0658;0.7516;9.4121;-0.4451;-2.7173;4.0054;-0.494;2.3168;-2.0614;-0.981;2.2246;1924.0;-29.25;-12.08;-31.24;251.22;2.6;-106.1;5.0;982.38;48.157;35.956345;-83.92522;806.46;NaN;;4.93;12.226105;231.5;12 / 17;190019;2022-10-14 17:10:26:618
6.6712;-1.7608;-4.6816;9.3488;2.6756;-1.2693;2.3296;-5.1275;-1.5942;3.7545;0.6847;-3.1743;879.0;-45.19;7.84;-10.37;320.69;-15.83;-97.73;5.0;982.32;49.221;35.956337;-83.92523;806.68;NaN;;4.9;12.226105;222.9;12 / 17;190520;2022-10-14 17:10:27:119
11.4413;-0.3078;-0.5148;9.4339;-0.5568;-2.6194;1.8522;-2.6283;-1.5406;-1.1457;-1.0383;2.5113;833.0;-43.09;-16.97;-18.3;261.78;-18.86;-104.25;5.0;982.38;49.432;35.956337;-83.92523;806.68;NaN;;4.9;12.226105;222.9;12 / 17;191020;2022-10-14 17:10:27:619
14.7775;-4.902;-2.2768;9.7489;0.6486;-0.8415;7.714;-4.2851;-1.0358;1.5059;1.8958;-3.0667;761.0;-43.31;18.6;-7.99;288.2;16.54;-111.78;5.0;982.34;47.111;35.956326;-83.92524;805.9;NaN;;4.97;12.226105;230.0;12 / 17;191520;2022-10-14 17:10:28:119
10.0469;0.4035;-2.8298;9.0622;2.2989;-2.9602;-1.9386;-6.2061;-0.2981;-1.7854;0.339;3.0374;722.0;-40.09;-20.4;-17.93;248.15;-13.56;-108.09;5.0;982.37;48.562;35.956326;-83.92524;805.9;NaN;;4.97;12.226105;230.0;12 / 17;192020;2022-10-14 17:10:28:619
13.049;-3.0619;-1.4653;9.5894;-0.9439;-1.8228;5.666;0.5197;1.805;0.7326;0.822;-1.7242;655.0;-41.62;12.04;-16.35;289.32;5.52;-100.76;5.0;982.34;50.695;35.956318;-83.925255;806.16;NaN;;5.18;12.226105;246.5;12 / 17;192520;2022-10-14 17:10:29:119
12.9939;-1.349;-3.3135;9.5142;-0.7084;-2.2691;2.8213;-1.1858;-0.1221;-0.9681;-0.0212;2.7292;581.0;-39.73;-11.83;-23.31;265.29;-15.55;-103.91;5.0;982.4;49.014;35.956318;-83.925255;806.16;NaN;;5.18;12.226105;246.5;12 / 17;193020;2022-10-14 17:10:29:619
16.1734;-2.7796;1.2066;9.3722;-1.643;-2.3734;6.0593;1.8409;4.2562;2.2834;1.7944;-3.0692;545.0;-42.52;11.03;-18.21;279.33;9.64;-104.21;5.0;982.33;47.602;35.95631;-83.92527;805.2;NaN;;4.97;12.226105;231.4;12 / 17;193520;2022-10-14 17:10:30:119
3.8569;2.8585;6.5109;3.1029;4.4262;8.1824;1.6657;-1.6531;-5.0402;-0.1293;1.4014;-0.4589;695.0;-16.72;-8.51;-39.36;10.5;-26.83;-20.77;5.0;982.35;47.795;35.95631;-83.92527;805.2;NaN;;4.97;12.226105;231.4;12 / 17;194020;2022-10-14 17:10:30:619
0.6308;3.3553;11.4903;1.2832;4.4954;8.6206;0.5865;0.8548;-0.0797;-0.8605;-0.1056;0.0562;2308.0;23.03;-13.09;-40.86;280.79;-27.28;-8.47;5.0;982.4;48.605;35.956303;-83.92528;804.42;NaN;;4.93;12.226105;242.4;12 / 17;194520;2022-10-14 17:10:31:119
17.8828;-3.7193;-6.1086;8.1597;-0.8249;-5.3767;1.9914;-3.7631;2.4753;7.2898;-6.5733;3.8696;2371.0;11.44;-17.49;-36.82;248.48;-30.01;-74.92;5.0;982.37;48.335;35.956303;-83.92528;804.42;NaN;;4.93;12.226105;242.4;12 / 17;195020;2022-10-14 17:10:31:619
15.2504;-1.8661;0.9159;9.6607;-0.4248;-1.6313;6.8204;2.533;2.4026;-1.0439;1.3481;-0.8354;623.0;-45.84;-2.96;-16.43;250.76;11.73;-109.62;5.0;982.32;49.78;35.956295;-83.92529;803.72;NaN;;4.79;12.226105;233.3;12 / 17;195520;2022-10-14 17:10:32:119
12.2566;0.9135;-1.319;9.1843;2.9172;-1.8189;-1.0201;-4.4163;-2.0191;-0.6071;-0.6042;0.3108;624.0;-43.89;-1.46;-27.54;285.91;-17.31;-101.2;5.0;982.4;48.812;35.956295;-83.92529;803.72;NaN;;4.79;12.226105;233.3;12 / 17;196020;2022-10-14 17:10:32:619
14.3504;1.9427;-0.0108;9.2004;-1.1784;-3.1835;7.4811;2.3138;2.835;-0.4556;1.2149;-0.327;729.0;-46.91;15.24;-14.44;289.46;6.9;-109.09;5.0;982.38;47.55;35.956295;-83.9253;802.65;NaN;;4.72;12.226105;257.4;12 / 17;196520;2022-10-14 17:10:33:119
8.4284;-0.0718;-2.8848;8.7798;3.9819;-1.7969;-0.8107;-5.9856;-1.229;-0.0385;-0.8236;1.9555;758.0;-45.62;3.84;-20.42;306.34;-23.53;-100.0;5.0;982.38;49.454;35.956295;-83.9253;802.65;NaN;;4.72;12.226105;257.4;12 / 17;197020;2022-10-14 17:10:33:619
17.5654;-0.2106;0.0766;8.3382;-2.6696;-4.4179;3.8555;6.1018;3.8786;-1.06;0.472;0.3321;639.0;-47.68;7.56;-15.96;265.39;19.0;-121.18;5.0;982.38;48.262;35.95629;-83.92532;803.15;NaN;;4.64;12.226105;258.0;12 / 17;197520;2022-10-14 17:10:34:119
7.5556;-3.0835;-3.7768;8.0217;4.7745;-3.0045;-0.847;-7.181;-0.3406;0.5274;-0.276;0.9128;632.0;-44.18;-3.81;-17.12;293.55;-29.13;-110.53;5.0;982.4;51.398;35.95629;-83.92532;803.15;NaN;;4.64;12.226105;258.0;12 / 17;198020;2022-10-14 17:10:34:619
14.3934;3.3876;1.1719;7.6347;-2.5425;-5.6052;4.3147;4.4344;5.0589;-1.5209;-0.8792;1.9617;600.0;-46.52;1.18;-12.21;259.4;15.03;-126.29;5.0;982.41;50.152;35.956287;-83.92534;802.43;NaN;;4.5;12.226105;263.3;12 / 17;198520;2022-10-14 17:10:35:119
7.8814;-3.0763;-4.0065;8.4419;4.4739;-2.211;-0.6701;-7.6343;-1.572;-0.0537;-0.0147;-0.4008;713.0;-44.72;10.31;-12.28;321.66;-27.28;-103.15;5.0;982.38;49.553;35.956287;-83.92534;802.43;NaN;;4.5;12.226105;263.3;12 / 17;199020;2022-10-14 17:10:35:619
14.665;2.0052;0.0395;8.2461;-2.4276;-4.7201;4.5971;6.6651;3.05;-0.6413;0.9792;-0.4331;707.0;-46.12;-1.24;-17.31;256.89;14.33;-119.79;5.0;982.38;50.659;35.956287;-83.92535;801.39;NaN;;4.64;12.226105;271.1;12 / 17;199522;2022-10-14 17:10:36:121
6.5348;-2.4359;-3.3553;8.8656;3.5983;-2.1501;-2.6104;-6.1207;-1.4161;-0.3959;-0.277;0.1634;788.0;-44.68;2.51;-18.58;300.6;-21.53;-103.63;5.0;982.39;49.929;35.956287;-83.92535;801.39;NaN;;4.64;12.226105;271.1;12 / 17;200020;2022-10-14 17:10:36:619
18.3221;1.2867;-0.833;7.7252;-3.0023;-5.242;2.7147;4.061;4.0725;-1.021;0.9909;0.3145;742.0;-45.97;12.04;-12.34;272.94;17.83;-124.16;5.0;982.39;50.334;35.956287;-83.92536;800.44;NaN;;4.43;12.226105;273.0;12 / 17;200520;2022-10-14 17:10:37:119
8.056;-3.615;-2.9315;8.4691;4.6638;-1.641;-1.5379;-7.4994;-1.2606;0.3357;0.0522;-1.0867;980.0;-44.44;11.89;-14.06;322.2;-22.23;-99.02;5.0;982.38;48.886;35.956287;-83.92536;800.44;NaN;;4.43;12.226105;273.0;12 / 17;201020;2022-10-14 17:10:37:619
18.8548;-0.7086;1.1145;8.5716;-1.9886;-4.3293;5.4966;4.0781;4.3122;-2.2788;1.2025;0.7132;895.0;-45.54;0.09;-16.65;255.91;19.27;-122.46;5.0;982.39;49.372;35.95628;-83.92538;802.31;NaN;;5.15;12.226105;255.1;12 / 17;201520;2022-10-14 17:10:38:119
8.1616;-4.2628;-3.7696;8.2254;4.8681;-2.1942;-1.6311;-7.3501;-1.5236;0.5501;-0.0295;-1.0576;1651.0;-43.01;-0.83;-16.11;303.71;-29.76;-104.94;5.0;982.38;50.653;35.95628;-83.92538;802.31;NaN;;5.15;12.226105;255.1;12 / 17;202020;2022-10-14 17:10:38:619
19.331;1.1683;-1.051;8.3799;-2.4472;-4.4675;5.9342;4.5202;5.4155;-0.3451;-0.3824;0.8116;7223.0;-45.81;5.03;-13.56;263.88;14.45;-118.06;5.0;982.36;48.675;35.956276;-83.925385;802.51;NaN;;4.57;12.226105;253.6;12 / 17;202519;2022-10-14 17:10:39:118
8.5229;-3.3123;-2.522;8.8868;3.7757;-1.7146;-1.1596;-6.4348;-0.9087;-0.0556;-0.2789;1.0029;7742.0;-44.81;8.85;-14.55;310.62;-15.49;-100.6;5.0;982.34;49.467;35.956276;-83.925385;802.51;NaN;;4.57;12.226105;253.6;12 / 17;203019;2022-10-14 17:10:39:618
15.7831;0.2213;-2.3402;7.9949;-3.4909;-4.4794;2.3197;7.18;2.0809;-0.2639;-0.3704;0.6998;5675.0;-47.53;2.29;-16.74;255.19;18.78;-115.98;5.0;982.4;51.92;35.956272;-83.9254;802.48;NaN;;4.68;12.226105;252.9;12 / 17;203520;2022-10-14 17:10:40:119
5.3291;-2.6767;-3.2895;8.5013;4.7189;-1.2769;-1.6862;-7.5998;-2.1327;-0.2558;-0.4893;0.4042;2794.0;-43.72;-2.72;-18.88;303.79;-28.76;-98.54;5.0;982.39;49.965;35.956272;-83.9254;802.48;NaN;;4.68;12.226105;252.9;12 / 17;204020;2022-10-14 17:10:40:619
16.2057;1.002;0.0096;7.5839;-3.3812;-5.2175;3.5408;5.1567;4.6281;-1.1253;-0.8127;1.9308;4170.0;-45.15;1.48;-13.48;255.59;20.17;-124.53;5.0;982.38;49.0;35.95627;-83.925415;801.67;NaN;;4.75;12.226105;260.3;12 / 17;204519;2022-10-14 17:10:41:118
5.8678;-2.7927;-2.7353;8.9686;3.6905;-1.4542;-2.3784;-6.5688;-1.3596;0.0766;-0.0941;-0.2466;3895.0;-43.87;7.74;-14.33;318.38;-21.22;-98.03;5.0;982.35;52.775;35.95627;-83.925415;801.67;NaN;;4.75;12.226105;260.3;12 / 17;205020;2022-10-14 17:10:41:619
13.6487;1.695;-0.5112;8.2684;-2.5341;-4.6242;0.7582;2.2242;3.9893;-1.3174;-0.1012;1.2454;4298.0;-44.93;-7.54;-17.93;247.5;14.98;-119.22;5.0;982.4;47.537;35.956264;-83.92543;803.12;NaN;;5.29;12.226105;246.6;11 / 17;205520;2022-10-14 17:10:42:119
6.8698;-2.3222;-4.0208;8.8527;3.9228;-1.5528;-1.6126;-6.364;-2.4149;0.9438;0.2593;-2.1363;17778.0;-44.66;10.73;-12.36;324.01;-23.58;-99.95;5.0;982.35;48.187;35.956264;-83.92543;803.12;NaN;;5.29;12.226105;246.6;11 / 17;206019;2022-10-14 17:10:42:618
13.3005;1.1982;0.559;8.9693;-1.5064;-3.6679;0.1069;1.8278;1.7746;-1.024;-0.8902;1.5641;11966.0;-46.48;-2.14;-18.15;257.63;8.84;-112.24;5.0;982.4;52.259;35.95626;-83.925446;804.53;NaN;;5.04;12.226105;264.2;11 / 17;206520;2022-10-14 17:10:43:119
8.688;-2.7401;-3.7648;8.8825;4.0156;-1.0704;0.1422;-6.7749;-2.5423;1.0119;0.6978;-2.3709;18864.0;-45.37;13.93;-12.9;315.52;-8.31;-98.68;5.0;982.37;47.65;35.95626;-83.925446;804.53;NaN;;5.04;12.226105;264.2;11 / 17;207020;2022-10-14 17:10:43:619
14.5322;2.5017;-1.4127;8.2117;-2.8626;-4.5325;3.2609;6.6101;3.7228;-0.3351;-0.8042;1.5535;9358.0;-46.37;-9.94;-21.94;248.12;8.66;-111.88;5.0;982.39;50.707;35.95626;-83.92545;801.91;NaN;;4.64;12.226105;272.5;11 / 17;207520;2022-10-14 17:10:44:119
6.7202;-3.0045;-3.9993;8.4743;4.2341;-2.5358;-2.0326;-6.9218;-1.4905;1.7098;-0.1361;-2.3449;8238.0;-46.5;1.29;-17.96;300.19;-25.58;-106.66;5.0;982.4;49.003;35.95626;-83.92545;801.91;NaN;;4.64;12.226105;272.5;11 / 17;208020;2022-10-14 17:10:44:619
11.6067;4.2063;-4.1548;7.7432;-4.058;-4.4436;3.1614;7.2447;0.7803;-1.3567;0.1191;2.0776;8917.0;-47.42;-0.84;-18.22;250.16;24.44;-119.85;5.0;982.41;50.011;35.95626;-83.92547;800.44;NaN;;4.14;12.226105;266.7;11 / 17;208519;2022-10-14 17:10:45:118
7.2003;-2.7963;-3.1819;8.785;4.0392;-1.6368;-1.1057;-7.3126;-1.4893;0.2892;-0.1432;0.0082;28975.002;-45.69;15.66;-16.31;322.95;-24.32;-100.55;5.0;982.38;48.44;35.95626;-83.92547;800.44;NaN;;4.14;12.226105;266.7;11 / 17;209020;2022-10-14 17:10:45:619
13.5637;3.8689;-1.3334;8.0324;-3.4414;-4.4507;2.5586;6.1004;3.238;-0.9004;-0.5878;1.8591;13298.0;-48.75;-1.67;-20.16;254.93;12.13;-111.98;5.0;982.41;50.844;35.956257;-83.92549;800.2;NaN;;4.72;12.226105;262.4;11 / 17;209520;2022-10-14 17:10:46:119
5.1544;-2.3773;-4.5894;8.6595;4.0245;-2.2332;-3.4349;-6.4379;-2.268;-0.1879;-0.6055;-0.1312;46390.0;-45.75;10.33;-17.19;317.84;-24.85;-99.56;5.0;982.38;51.349;35.956257;-83.92549;800.2;NaN;;4.72;12.226105;262.4;11 / 17;210019;2022-10-14 17:10:46:618
14.3097;1.3178;1.957;9.3119;0.0464;-3.0753;-1.0891;2.0519;3.4989;-2.1455;-0.3689;1.3252;66159.0;-49.52;9.06;-10.82;289.42;-0.27;-108.28;5.0;982.44;48.247;35.956257;-83.9255;800.5;NaN;;4.68;12.226105;268.5;11 / 17;210519;2022-10-14 17:10:47:118
4.8841;-0.8536;-3.6281;8.1378;5.4407;-0.5882;-2.9486;-6.1111;-3.1787;1.3392;0.0069;-1.292;97214.0;-46.24;20.25;-2.83;358.64;-24.86;-87.38;5.0;982.39;47.83;35.956257;-83.9255;800.5;NaN;;4.68;12.226105;268.5;11 / 17;211020;2022-10-14 17:10:47:619
10.9938;3.3709;-0.9553;8.744;-1.6075;-4.1386;0.4569;3.8806;2.6973;-0.4811;-0.5909;0.8432;82277.0;-47.87;8.66;-10.91;274.76;9.43;-115.33;5.0;982.41;47.783;35.95626;-83.925514;803.09;NaN;;5.18;12.226105;293.4;11 / 17;211519;2022-10-14 17:10:48:118
5.3797;-2.8178;-5.1664;7.8492;5.8002;-0.9582;3.6658;-10.0599;-1.3783;3.2639;1.6003;-3.7186;73585.0;-40.89;24.32;0.71;354.78;-36.26;-96.96;5.0;982.38;50.84;35.95626;-83.925514;803.09;NaN;;5.18;12.226105;293.4;11 / 17;212020;2022-10-14 17:10:48:619
12.186;0.8031;6.0607;9.3673;0.495;-2.8598;5.9781;0.8896;0.3582;-5.5011;-0.8947;2.305;76880.0;-46.67;-0.15;-6.51;276.05;-2.89;-106.98;5.0;982.41;51.927;35.956264;-83.92553;806.01;NaN;;4.86;12.226105;295.2;11 / 17;212520;2022-10-14 17:10:49:119
8.1879;-3.2082;-4.4518;8.953;3.9756;-0.457;4.329;-8.5578;-2.8893;4.7356;1.1194;-3.2095;62837.0;-37.84;23.66;16.13;25.78;-2.68;-95.24;5.0;982.38;51.049;35.956264;-83.92553;806.01;NaN;;4.86;12.226105;295.2;11 / 17;213020;2022-10-14 17:10:49:619
13.0346;2.8442;10.017;8.5282;-1.9207;-4.4443;4.062;1.7905;6.1972;-3.9488;-1.9923;2.2285;90705.0;-47.31;2.38;-13.05;270.73;2.26;-100.81;5.0;982.42;51.629;35.95627;-83.925545;808.21;NaN;;4.86;12.302309;297.2;11 / 17;213520;2022-10-14 17:10:50:119
7.5162;-3.9407;-3.0511;9.3925;2.5289;-1.2471;0.6953;-6.0862;-1.3197;2.7356;0.7167;-3.1495;39612.0;-37.86;24.23;-0.09;351.36;-14.94;-97.56;5.0;982.4;49.583;35.95627;-83.925545;808.21;NaN;;4.86;12.302309;297.2;11 / 17;214020;2022-10-14 17:10:50:619
11.1111;3.3159;1.4749;8.3544;-2.2949;-4.5943;2.8378;4.485;2.1767;-2.4884;-0.6047;2.4768;55847.0;-45.79;6.77;-10.87;267.5;13.53;-118.81;5.0;982.44;51.642;35.956272;-83.92556;806.34;NaN;;4.9;12.447039;291.5;11 / 17;214519;2022-10-14 17:10:51:118
5.3402;-2.0016;-4.8996;9.0258;3.6684;-1.1168;0.6933;-6.5673;-2.3122;0.1807;0.0376;-1.3182;59528.0;-41.1;20.46;-2.1;336.84;-1.05;-99.68;5.0;982.41;48.289;35.956272;-83.92556;806.34;NaN;;4.9;12.447039;291.5;11 / 17;215020;2022-10-14 17:10:51:619
11.5576;3.8988;1.081;8.7841;-1.8504;-3.9479;1.7413;3.3475;3.3728;-2.3152;-0.2455;2.4994;49426.0;-48.21;-1.03;-13.42;265.34;1.81;-109.34;5.0;982.41;48.216;35.956276;-83.92557;803.34;NaN;;4.79;12.680321;288.4;11 / 17;215520;2022-10-14 17:10:52:119
6.379;-2.1452;-4.034;8.4777;4.9116;-0.4194;-1.5059;-6.2498;-4.1958;0.2106;0.0599;-1.6552;72164.0;-43.93;16.54;-8.72;341.93;-18.84;-91.13;5.0;982.36;48.174;35.956276;-83.92557;803.34;NaN;;4.79;12.680321;288.4;11 / 17;216019;2022-10-14 17:10:52:618
10.3846;4.5727;2.6755;9.3961;-0.1526;-2.8038;0.1561;4.247;4.2812;-1.2289;-0.8351;1.3758;81200.0;-45.75;5.57;-12.88;281.84;0.89;-106.62;5.0;982.44;53.886;35.95628;-83.92558;803.43;NaN;;4.64;12.534546;276.8;11 / 17;216520;2022-10-14 17:10:53:119
6.4232;-0.5949;-3.6619;9.2426;3.2238;-0.5936;-2.6991;-3.8355;-2.8512;0.7849;-0.1667;-0.6286;79794.0;-43.72;16.71;-8.14;343.67;-15.56;-90.33;5.0;982.37;48.888;35.95628;-83.92558;803.43;NaN;;4.64;12.534546;276.8;11 / 17;217020;2022-10-14 17:10:53:619
9.0736;3.0858;0.7804;8.5524;-2.1835;-4.2731;0.9766;3.2171;3.3805;0.2695;-0.4819;0.3908;14822.0;-44.93;11.29;-11.85;275.47;12.86;-116.55;5.0;982.46;60.766;35.95628;-83.9256;805.04;NaN;;4.93;12.949733;293.3;11 / 17;217519;2022-10-14 17:10:54:118
6.8853;-3.7875;-2.1224;8.2756;4.856;-2.0257;0.4406;-8.6538;-0.7227;3.0526;0.1184;-3.1009;45069.0;-40.8;15.71;-7.91;331.8;-29.68;-103.75;5.0;982.36;58.731;35.95628;-83.9256;805.04;NaN;;4.93;12.949733;293.3;11 / 17;218019;2022-10-14 17:10:54:618
13.7073;2.0351;0.0407;8.4411;-3.5947;-3.4637;5.2118;1.8995;2.3734;-0.9829;-0.8229;2.7506;9792.0;-41.66;-2.68;-15.02;243.38;21.5;-112.31;5.0;982.45;50.623;35.95628;-83.925606;807.02;NaN;;5.9;12.778125;257.4;11 / 17;218520;2022-10-14 17:10:55:119
3.5204;-4.9558;-1.5359;7.1866;6.1108;-2.6797;5.3509;-15.0549;0.1656;3.1227;-0.6014;-5.4516;6522.0;-37.54;18.75;-11.01;325.19;-3.6;-95.8;5.0;982.38;49.473;35.95628;-83.925606;807.02;NaN;;5.9;12.778125;257.4;11 / 17;219019;2022-10-14 17:10:55:618
7.812;-3.1125;8.6426;9.6303;0.188;1.842;0.1181;1.3202;-0.5471;-7.9943;0.2304;1.693;5679.0;-30.15;-29.59;-18.83;224.79;-18.48;-89.54;5.0;982.46;48.045;35.956284;-83.92562;807.19;NaN;;5.22;13.314036;276.2;11 / 17;219520;2022-10-14 17:10:56:119
5.814;-0.559;-3.5886;7.6092;0.2985;6.1791;5.8444;-9.2635;-3.5671;5.7709;2.0899;0.9373;59669.0;-32.49;22.65;-21.04;9.11;-1.74;-50.92;5.0;982.38;49.62;35.956284;-83.92562;807.19;NaN;;5.22;13.314036;276.2;11 / 17;220020;2022-10-14 17:10:56:619
0.5518;-5.8403;4.9499;7.4434;2.2104;5.99;0.8813;-10.7215;8.6668;-0.6821;0.316;-4.5785;22929.0;-16.67;6.13;-41.06;304.49;-13.03;-51.18;5.0;982.46;49.953;35.95628;-83.92564;809.48;NaN;;4.86;12.874013;271.9;11 / 17;220520;2022-10-14 17:10:57:119
20.8597;-16.8257;4.2951;9.0254;-0.077;3.8349;17.2802;-18.861;13.2039;8.1544;4.5291;0.4462;79483.0;-34.86;18.51;-25.97;353.44;-19.44;-58.29;5.0;982.4;48.138;35.95628;-83.92564;809.48;NaN;;4.86;12.874013;271.9;11 / 17;221020;2022-10-14 17:10:57:619
8.7565;-17.6001;33.5869;7.463;-0.484;6.3434;23.613;-2.2289;-0.5146;-13.8341;-1.692;-4.3634;6675.0;-4.43;-11.46;-38.89;272.67;-20.59;-40.56;5.0;982.51;50.827;35.95628;-83.92566;807.37;NaN;;5.29;12.497971;259.3;11 / 17;221520;2022-10-14 17:10:58:119
23.2923;-12.8157;18.3401;3.6711;-1.4063;8.9842;20.8683;-11.566;11.6777;8.444;2.0809;6.1505;110391.0;-34.48;6.49;-30.69;284.9;2.37;-67.74;5.0;982.4;51.057;35.95628;-83.92566;807.37;NaN;;5.29;12.497971;259.3;11 / 17;222019;2022-10-14 17:10:58:618
31.4465;-19.3672;25.7294;6.5036;-2.5265;6.8914;2.1769;3.2837;-6.1999;-8.0384;-6.2995;-1.547;5880.0;11.34;-15.71;-29.61;236.21;14.93;-43.34;5.0;982.52;49.68;35.956284;-83.925674;806.8;NaN;;6.8;12.264012;309.4;11 / 17;222520;2022-10-14 17:10:59:119
39.4786;5.1616;17.7021;9.4659;0.2983;2.5452;7.8728;-1.7509;6.0001;-0.9845;1.6668;9.277;127367.0;-29.03;2.68;-29.57;304.93;-53.33;-95.3;5.0;982.37;56.108;35.956284;-83.925674;806.8;NaN;;6.8;12.264012;309.4;11 / 17;223020;2022-10-14 17:10:59:619
21.4343;0.821;13.6068;9.3532;1.2022;2.6911;-2.9556;-0.2009;-13.6626;-2.9229;-1.4175;-2.7758;8512.0;-23.27;-9.23;-36.36;259.95;-7.04;-73.95;5.0;982.54;50.97;35.956287;-83.92568;802.74;NaN;;5.26;12.645386;280.0;11 / 17;223519;2022-10-14 17:11:00:118
14.2783;3.1747;4.5846;8.865;3.1581;2.7583;0.6168;-0.5584;4.6344;0.7327;1.5021;1.6623;105179.0;-39.62;0.69;-32.78;309.89;-18.79;-72.72;5.0;982.32;51.034;35.956287;-83.92568;802.74;NaN;;5.26;12.645386;280.0;11 / 17;224019;2022-10-14 17:11:00:618
14.1754;-1.5371;0.5064;9.6425;1.4846;0.9946;-0.9009;-1.5899;-5.1057;-3.9183;-0.3218;1.4016;26944.998;-28.97;-5.94;-39.9;268.53;-8.71;-84.11;5.0;982.54;50.311;35.95628;-83.9257;803.13;NaN;;4.14;12.994768;267.9;11 / 17;224523;2022-10-14 17:11:01:122
16.0191;-3.7445;3.9969;9.4205;-1.6144;-2.195;4.9278;-1.8583;5.3491;0.3767;0.6942;0.1888;54479.0;-37.44;21.41;-13.14;303.25;7.56;-111.83;5.0;982.3;49.352;35.95628;-83.9257;803.13;NaN;;4.14;12.994768;267.9;11 / 17;225020;2022-10-14 17:11:01:619
10.8775;-1.9355;-3.6126;9.7194;-0.1908;-1.291;1.234;-2.1274;-3.0428;-2.0996;-2.736;1.9866;53957.0;-37.61;17.31;-23.03;328.7;-14.14;-80.16;5.0;982.45;53.881;35.95628;-83.92571;801.91;NaN;;4.21;12.778282;273.4;11 / 17;225519;2022-10-14 17:11:02:118
16.5383;-3.1041;-0.3688;8.223;-1.858;-5.01;4.7561;1.2677;8.1236;0.7311;-0.1555;0.07;5308.0;-37.2;28.44;2.23;320.54;10.92;-121.35;5.0;982.39;50.185;35.95628;-83.92571;801.91;NaN;;4.21;12.778282;273.4;11 / 17;226020;2022-10-14 17:11:02:619
10.9253;0.6153;-1.8338;9.758;0.8019;-0.5562;0.7117;-3.4017;-2.8165;-0.5127;-1.3157;1.2088;10819.0;-42.28;14.74;-20.03;309.28;-4.69;-93.26;5.0;982.41;54.358;35.956276;-83.92572;803.99;NaN;;4.5;12.270297;272.1;11 / 17;226520;2022-10-14 17:11:03:119
14.525;-1.2532;2.3593;8.4752;-1.998;-4.5111;2.1994;3.2855;7.0381;0.2801;1.1559;-0.5785;2208.0;-41.85;22.97;-8.7;299.76;11.76;-118.02;5.0;982.38;53.88;35.956276;-83.92572;803.99;NaN;;4.5;12.270297;272.1;11 / 17;227020;2022-10-14 17:11:03:619
7.1847;-2.6061;-4.2003;9.2231;2.9326;-1.5827;-1.6072;-5.7063;-2.8732;0.5888;-1.1814;-0.2525;3063.0;-42.56;17.33;-12.99;338.02;-18.14;-88.62;5.0;982.45;53.712;35.956272;-83.925735;804.57;NaN;;4.36;12.226105;279.8;11 / 17;227519;2022-10-14 17:11:04:118
16.2823;1.4617;1.1169;8.843;-2.104;-3.6804;7.6674;3.4572;4.6868;-0.0091;2.0218;-0.8457;1457.0;-42.39;21.28;-5.1;288.7;18.99;-130.44;5.0;982.42;51.607;35.956272;-83.925735;804.57;NaN;;4.36;12.226105;279.8;11 / 17;228020;2022-10-14 17:11:04:619
10.8535;-2.6779;-5.546;8.6873;3.543;-2.8544;-3.9666;-6.9358;-1.6656;-0.0602;-0.561;0.1769;1254.0;-44.25;1.99;-16.22;297.66;-21.18;-108.19;5.0;982.47;52.029;35.956272;-83.92574;809.26;NaN;;2.66;12.984593;278.1;11 / 17;228525;2022-10-14 17:11:05:124
17.0865;-3.7576;0.6236;9.1933;-1.0938;-3.2337;8.0941;-0.2415;5.1424;0.3454;1.175;-0.3853;1520.0;-43.03;11.12;-8.06;280.95;9.11;-123.47;5.0;982.36;50.238;35.956272;-83.92574;809.26;NaN;;2.66;12.984593;278.1;11 / 17;229019;2022-10-14 17:11:05:618
12.4481;-2.0471;-3.5611;8.9129;2.4859;-3.2482;-2.6906;-5.4859;-2.8453;-2.7586;-0.0877;3.345;1573.0;-41.06;5.87;-12.96;298.81;-14.68;-110.02;5.0;982.54;52.709;35.956272;-83.92575;809.46;NaN;;4.86;13.768171;272.3;12 / 17;229520;2022-10-14 17:11:06:119
17.083;-2.3378;0.6535;8.9363;-1.5894;-3.713;7.9875;0.7805;4.4969;0.1904;1.5225;-0.9474;1128.0;-37.01;22.29;-3.77;312.55;9.33;-112.56;5.0;982.37;51.295;35.956272;-83.92575;809.46;NaN;;4.86;13.768171;272.3;12 / 17;230020;2022-10-14 17:11:06:619
13.5183;-0.7971;-5.5184;8.6823;3.2812;-3.1657;-4.6988;-7.0486;-1.0968;-1.7188;-0.0968;3.4821;1077.0;-43.24;-0.88;-15.41;290.64;-19.55;-110.03;5.0;982.52;52.178;35.956272;-83.925766;807.86;NaN;;4.79;12.759189;265.6;12 / 17;230519;2022-10-14 17:11:07:118
14.9465;-4.9905;-2.5391;9.1487;-1.4414;-3.224;10.2191;1.455;3.7118;0.2932;1.7127;-1.1152;1008.0;-37.95;18.64;-3.81;294.82;12.95;-128.69;5.0;982.32;51.838;35.956272;-83.925766;807.86;NaN;;4.79;12.759189;265.6;12 / 17;231019;2022-10-14 17:11:07:618
11.6246;0.4633;-3.5886;9.2434;0.1222;-3.2733;3.2744;-0.6618;0.1586;-1.5093;-0.2721;2.853;1292.0;-42.26;8.12;-11.94;308.2;-19.67;-108.83;5.0;982.44;51.529;35.956272;-83.92578;808.25;NaN;;4.72;12.226105;270.7;12 / 17;231520;2022-10-14 17:11:08:119
10.9301;-3.7122;-3.9981;9.3748;-1.2354;-2.5995;8.38;1.8817;1.6597;0.5598;1.7382;-1.4433;1244.0;-35.25;24.49;-1.48;332.23;7.24;-105.5;5.0;982.38;51.799;35.956272;-83.92578;808.25;NaN;;4.72;12.226105;270.7;12 / 17;232020;2022-10-14 17:11:08:619
11.2594;1.3059;-3.603;9.2505;0.2185;-3.2481;3.7398;0.4906;-1.2856;-1.2396;-0.5588;2.8685;1076.0;-41.96;-1.8;-16.87;267.63;-1.28;-109.35;5.0;982.48;51.19;35.956272;-83.9258;809.41;NaN;;4.9;12.226105;277.2;12 / 17;232520;2022-10-14 17:11:09:119
12.4995;-4.0208;-1.7931;9.291;-1.3571;-2.8293;8.8767;0.5314;3.8525;4.835;0.8291;-3.0808;1063.0;-36.21;21.06;-0.58;302.56;13.25;-125.44;5.0;982.42;51.246;35.956272;-83.9258;809.41;NaN;;4.9;12.226105;277.2;12 / 17;233020;2022-10-14 17:11:09:619
12.3535;-0.8031;-5.3545;9.2094;0.3516;-3.3516;1.1313;-1.8726;-2.4911;-1.5893;-0.1427;2.7952;907.0;-42.34;0.17;-12.83;292.49;-18.59;-110.4;5.0;982.55;50.15;35.956272;-83.92582;809.06;NaN;;5.0;12.226105;282.8;12 / 17;233519;2022-10-14 17:11:10:118
13.3591;-1.9211;-3.6787;9.5805;0.6427;-1.9928;5.0607;-2.9587;0.7388;3.0645;1.5217;-2.7412;755.0;-36.9;21.94;-0.3;313.91;10.62;-115.76;5.0;982.46;50.149;35.956272;-83.92582;809.06;NaN;;5.0;12.226105;282.8;12 / 17;234020;2022-10-14 17:11:10:619
12.2303;1.6842;-4.3083;9.3858;1.0293;-2.649;0.5133;-3.0469;-2.9526;-0.9777;-0.6881;2.25;799.0;-43.63;-1.01;-13.26;277.17;-6.02;-105.76;5.0;982.53;50.689;35.956272;-83.925835;810.85;NaN;;5.29;12.226105;281.2;12 / 17;234520;2022-10-14 17:11:11:119
14.3276;-1.8637;-1.7716;9.5283;-0.0323;-2.3196;7.4195;0.7765;-0.8943;-0.1238;1.0473;-1.2709;741.0;-42.13;13.46;-6.07;288.52;8.74;-112.88;5.0;982.46;50.606;35.956272;-83.925835;810.85;NaN;;5.29;12.226105;281.2;12 / 17;235020;2022-10-14 17:11:11:619
13.9624;0.0802;-3.6114;9.1713;1.9032;-2.9044;-2.1501;-4.2884;-0.9947;-2.099;-0.1797;2.576;713.0;-43.24;0.08;-12.58;285.83;-11.19;-107.57;5.0;982.55;51.11;35.956276;-83.92586;810.97;NaN;;5.62;12.226105;277.7;12 / 17;235520;2022-10-14 17:11:12:119
16.3301;-4.2329;-0.8477;9.4592;-0.8975;-2.4265;7.3501;-0.4614;4.8191;1.5354;1.2111;-0.7706;918.0;-37.2;17.78;3.81;339.92;5.25;-104.39;5.0;982.44;52.594;35.956276;-83.92586;810.97;NaN;;5.62;12.226105;277.7;12 / 17;236020;2022-10-14 17:11:12:619
13.2873;-0.6607;-4.7414;8.9787;3.0784;-2.4652;-3.1852;-6.3217;-2.884;-1.6189;-0.304;2.7744;1043.0;-41.59;-2.59;-13.42;290.37;-18.29;-105.35;5.0;982.55;52.149;35.956276;-83.92587;811.1;NaN;;4.93;12.226105;278.4;12 / 17;236520;2022-10-14 17:11:13:119
14.7679;-1.8793;0.0491;8.978;-1.3956;-3.6904;6.9615;1.507;4.1184;0.5638;0.4492;-0.4607;777.0;-39.58;13.88;-3.13;285.99;12.45;-120.65;5.0;982.48;51.835;35.956276;-83.92587;811.1;NaN;;4.93;12.226105;278.4;12 / 17;237020;2022-10-14 17:11:13:619
12.5246;-0.4178;-5.4634;9.217;0.256;-3.3394;2.3729;-0.862;-1.5607;-1.2989;0.3591;2.8786;781.0;-41.94;0.28;-9.53;296.18;-20.5;-112.06;5.0;982.56;51.324;35.956276;-83.92589;809.46;NaN;;4.75;12.226105;279.8;12 / 17;237520;2022-10-14 17:11:14:119
10.328;-2.971;-4.0412;9.2022;-1.0913;-3.2091;8.6952;3.475;1.9183;-0.7043;1.3533;-1.3983;585.0;-39.79;15.99;-3.9;304.95;6.39;-109.23;5.0;982.51;51.653;35.956276;-83.92589;809.46;NaN;;4.75;12.226105;279.8;12 / 17;238020;2022-10-14 17:11:14:619
11.0776;0.0144;-4.9762;9.3152;-0.0904;-3.0643;2.3494;-1.6134;-1.1832;-0.6292;-0.4651;2.7398;627.0;-43.03;-3.84;-13.44;260.45;0.53;-108.21;5.0;982.53;51.955;35.956272;-83.9259;811.87;NaN;;5.11;12.226105;267.4;12 / 17;238519;2022-10-14 17:11:15:118
13.2347;-3.9538;-2.91;8.9255;-1.5953;-3.7365;8.4163;0.425;4.6332;4.7521;1.5387;-2.6539;736.0;-37.57;18.09;-0.11;309.41;9.36;-112.72;5.0;982.44;52.96;35.956272;-83.9259;811.87;NaN;;5.11;12.226105;267.4;12 / 17;239019;2022-10-14 17:11:15:618
14.0246;-1.3119;-5.8487;9.3338;1.8762;-2.3516;0.0043;-4.1462;-3.3796;0.1248;-1.1485;1.4133;824.0;-40.09;1.16;-13.69;309.48;-23.66;-98.03;5.0;982.55;55.721;35.956272;-83.92592;811.74;NaN;;5.0;12.226105;268.8;12 / 17;239520;2022-10-14 17:11:16:119
18.9649;-2.9662;-0.6918;9.4022;-1.1071;-2.5581;11.1673;1.044;0.6361;0.796;1.7428;-2.1799;709.0;-35.7;18.23;-2.46;290.45;18.07;-125.15;5.0;982.47;53.593;35.956272;-83.92592;811.74;NaN;;5.0;12.226105;268.8;12 / 17;240020;2022-10-14 17:11:16:619
6.8315;0.6535;-9.5429;6.1698;3.4834;-6.7801;-0.7611;-6.6312;2.1577;1.5817;-0.7394;0.2074;670.0;-39.39;-8.55;-4.41;269.74;-20.81;-137.7;5.0;982.54;53.36;35.956272;-83.925934;813.12;NaN;;5.0;12.226105;269.4;12 / 17;240519;2022-10-14 17:11:17:118
16.7073;-1.2784;-3.9838;8.6178;-0.8649;-4.5996;6.1927;5.3079;3.5714;-0.0794;0.8407;-1.1115;609.0;-40.16;0.28;3.0;248.75;15.19;-128.26;5.0;982.53;53.336;35.956272;-83.925934;813.12;NaN;;5.0;12.226105;269.4;12 / 17;241020;2022-10-14 17:11:17:619
11.8508;-0.9218;-9.0233;8.293;2.5339;-4.5799;-1.7866;-5.3485;-0.4409;-0.1923;-0.341;2.656;674.0;-42.43;-0.47;-4.48;290.71;-14.97;-118.91;5.0;982.53;52.953;35.956272;-83.92595;812.45;NaN;;5.0;12.226105;263.6;12 / 17;241520;2022-10-14 17:11:18:119
16.6367;-0.1053;-0.4334;8.2511;-1.2017;-5.162;8.0948;2.1103;3.7686;-1.442;2.2751;0.1539;731.0;-36.56;16.11;6.88;310.23;7.04;-122.03;5.0;982.49;53.407;35.956272;-83.92595;812.45;NaN;;5.0;12.226105;263.6;12 / 17;242020;2022-10-14 17:11:18:619
11.1087;0.9111;-5.613;8.5686;4.1114;-2.4178;-2.1865;-7.0018;-1.0258;-0.2115;-0.8335;2.485;848.0;-42.3;2.57;-7.37;316.13;-24.79;-105.76;5.0;982.54;53.43;35.95627;-83.925964;814.85;NaN;;4.86;12.226105;263.8;12 / 17;242519;2022-10-14 17:11:19:118
16.8879;1.0032;2.3617;7.925;-1.7753;-5.4967;5.6872;2.2779;6.7345;-1.173;0.499;0.9945;940.0;-38.64;11.7;-0.39;284.1;10.87;-127.28;5.0;982.49;54.051;35.95627;-83.925964;814.85;NaN;;4.86;12.226105;263.8;12 / 17;243020;2022-10-14 17:11:19:619
6.7968;-0.0287;-2.2481;9.1232;2.3064;-2.7601;-2.6111;-3.9334;-0.8497;-0.7707;-0.7093;2.4725;1089.0;-37.78;7.89;-4.43;332.98;-30.03;-103.44;5.0;982.54;55.109;35.956264;-83.92598;814.05;NaN;;4.03;12.226105;268.1;12 / 17;243520;2022-10-14 17:11:20:119
