sep=;
ACCELEROMETER X (m/s²);ACCELEROMETER Y (m/s²);ACCELEROMETER Z (m/s²);GRAVITY X (m/s²);GRAVITY Y (m/s²);GRAVITY Z (m/s²);LINEAR ACCELERATION X (m/s²);LINEAR ACCELERATION Y (m/s²);LINEAR ACCELERATION Z (m/s²);GYROSCOPE X (rad/s);GYROSCOPE Y (rad/s);GYROSCOPE Z (rad/s);LIGHT (lux);MAGNETIC FIELD X (μT);MAGNETIC FIELD Y (μT);MAGNETIC FIELD Z (μT);ORIENTATION Z (azimuth °);ORIENTATION X (pitch °);ORIENTATION Y (roll °);PROXIMITY (i);ATMOSPHERIC PRESSURE (hPa);SOUND LEVEL (dB);LOCATION Latitude : ;LOCATION Longitude : ;LOCATION Altitude ( m);LOCATION Altitude-google ( m);LOCATION Altitude-atmospheric pressure ( m);LOCATION Speed ( Kmh);LOCATION Accuracy ( m);LOCATION ORIENTATION (°);Satellites in range;Time since start in ms ;YYYY-MO-DD HH-MI-SS_SSS
-3.0212;2.4682;9.7762;-5.3281;2.2383;7.9228;2.2593;0.532;1.5768;-0.6273;-0.5419;0.3263;1744.0;8.81;-34.09;-27.26;176.2;-17.94;25.34;5.0;982.16;61.788;35.957863;-83.924515;800.04;NaN;;3.42;12.226105;151.4;12 / 18;14;2022-10-12 17:31:35:377
-3.8701;0.6272;7.0663;-3.8112;-0.3974;9.027;-0.9135;-3.5831;2.1718;3.0607;-0.2527;-1.4893;1616.0;12.09;-23.83;-35.7;174.33;11.86;23.13;5.0;982.16;61.871;35.957855;-83.92451;804.03;NaN;;3.42;12.226105;145.4;12 / 18;515;2022-10-12 17:31:35:878
4.471;1.1575;11.8424;1.7909;2.9448;9.181;2.4794;-2.0762;4.9615;1.67;1.3834;0.4299;2223.0;1.93;-29.92;-33.49;201.99;-8.85;-14.16;5.0;982.16;61.957;35.957855;-83.92451;804.03;NaN;;3.42;12.226105;145.4;12 / 18;1014;2022-10-12 17:31:36:377
4.9546;3.9191;9.623;2.5378;3.276;8.8881;2.0483;0.9846;-0.2887;0.236;0.0101;0.0314;2262.0;-9.04;-40.05;-23.34;175.46;-19.52;-15.94;5.0;982.2;61.793;35.957848;-83.924484;806.6;NaN;;4.54;12.226105;146.4;13 / 18;1514;2022-10-12 17:31:36:877
1.0223;2.7832;9.2916;1.0418;3.4416;9.1236;0.5735;-1.0079;4.5653;0.0105;0.0178;0.3092;2556.0;-3.66;-40.24;-24.79;177.72;-20.55;-6.51;5.0;982.19;60.632;35.957848;-83.924484;806.6;NaN;;4.54;12.226105;146.4;13 / 18;2014;2022-10-12 17:31:37:377
2.1823;4.4626;6.7059;1.47;3.8436;8.9015;0.0737;-2.0654;4.1923;-0.9312;-0.4546;-0.5353;2763.0;-0.94;-39.43;-23.62;185.64;-23.08;-9.38;5.0;982.19;61.293;35.95784;-83.92448;807.62;NaN;;4.21;12.226105;155.0;13 / 18;2515;2022-10-12 17:31:37:878
2.3976;2.5113;16.1267;1.0532;3.2961;9.1759;-1.2177;1.5898;0.7068;0.1526;0.4859;0.5317;2671.0;2.74;-37.65;-23.25;190.75;-21.2;-5.46;5.0;982.15;60.91;35.95784;-83.92448;807.62;NaN;;4.21;12.226105;155.0;13 / 18;3014;2022-10-12 17:31:38:377
2.5953;3.8258;9.5393;0.7147;3.6529;9.0728;1.5181;0.2659;1.2482;-0.22;-0.2307;-0.4639;2665.0;0.36;-35.81;-22.57;186.74;-23.98;-6.97;5.0;982.16;62.755;35.957832;-83.92448;810.69;NaN;;3.74;12.226105;158.8;13 / 18;3514;2022-10-12 17:31:38:877
-0.5638;0.4513;13.159;2.3704;3.3292;8.9145;-2.6552;1.1416;-0.5194;-1.5251;-2.5482;-1.5665;2582.0;0.6;-34.5;-22.99;185.96;-23.98;-3.69;5.0;982.2;61.627;35.957832;-83.92448;810.69;NaN;;3.74;12.226105;158.8;13 / 18;4014;2022-10-12 17:31:39:377
16.931;-2.6121;-5.6154;8.4691;2.2272;-4.4142;6.3792;-2.5357;-0.9259;-0.1439;-0.0253;5.3105;1840.0;-6.66;-34.73;-15.15;215.55;-42.67;-88.44;5.0;982.17;62.521;35.957825;-83.92447;808.72;NaN;;3.85;12.226105;159.8;13 / 18;4514;2022-10-12 17:31:39:877
16.7803;0.8091;-2.9925;8.3696;-3.379;-3.8344;-0.6242;4.6227;1.5242;-0.4654;1.077;0.8316;482.0;-27.11;-19.28;26.96;156.21;20.16;-114.61;5.0;982.23;63.173;35.957825;-83.92447;808.72;NaN;;3.85;12.226105;159.8;13 / 18;5014;2022-10-12 17:31:40:377
5.5579;-4.6158;-4.3466;7.9253;4.048;-4.1198;-1.3732;-6.633;0.858;0.9349;-0.9073;1.1202;255.0;-26.89;-23.31;24.94;122.93;-24.38;-117.47;5.0;982.2;63.068;35.957817;-83.92447;803.74;NaN;;3.64;12.226105;163.4;13 / 18;5514;2022-10-12 17:31:40:877
13.11;0.4238;-4.2281;7.3089;-4.9596;-4.2605;3.3865;5.4092;0.7517;0.6162;-0.5217;1.7543;255.0;-26.59;-19.93;29.81;154.35;20.4;-116.89;5.0;982.22;62.874;35.957817;-83.92447;803.74;NaN;;3.64;12.226105;163.4;13 / 18;6015;2022-10-12 17:31:41:378
8.1111;-3.6739;-2.9303;8.7647;2.8338;-3.3644;-0.1052;-7.1321;0.2584;0.2908;-0.4677;-1.3665;207.0;-33.13;-14.25;26.87;133.01;-0.48;-109.19;5.0;982.21;63.395;35.95781;-83.92446;803.91;NaN;;3.17;12.226105;165.7;13 / 18;6515;2022-10-12 17:31:41:878
13.6726;3.5731;-5.723;7.931;-2.3693;-5.2589;0.6279;3.4238;0.9386;-0.5304;-0.0211;1.7385;210.0;-17.47;-28.22;30.54;147.09;0.09;-120.36;5.0;982.18;61.737;35.95781;-83.92446;803.91;NaN;;3.17;12.226105;165.7;13 / 18;7015;2022-10-12 17:31:42:378
8.3136;-1.2903;-4.2269;8.6182;2.5986;-3.8915;1.0811;-3.303;-1.1474;-0.1631;0.3467;-2.0245;169.0;-26.72;-22.29;26.29;133.3;-15.37;-114.3;5.0;982.2;61.912;35.9578;-83.92446;801.09;NaN;;3.6;12.226105;162.5;13 / 18;7515;2022-10-12 17:31:42:878
10.0493;0.5853;-1.8984;8.5087;-1.7274;-4.5594;-0.0674;2.0261;1.0575;-0.5054;-0.5007;2.2982;165.0;-17.12;-27.09;25.93;154.62;10.15;-118.18;5.0;982.22;61.736;35.9578;-83.92446;801.09;NaN;;3.6;12.226105;162.5;13 / 18;8016;2022-10-12 17:31:43:379
7.113;-2.0949;-4.8829;8.0739;3.8828;-3.9883;-0.8976;-5.9687;-0.7615;1.1159;-0.1172;-3.0877;153.0;-28.41;-18.71;20.66;147.83;-9.87;-113.48;5.0;982.2;61.075;35.95779;-83.92446;801.34;NaN;;3.85;12.226105;159.2;13 / 18;8514;2022-10-12 17:31:43:877
9.5285;-0.1041;-3.6197;8.4956;-1.1541;-4.7606;-1.1354;1.397;-0.5315;-0.7239;-0.0357;2.4742;153.0;-17.66;-24.75;26.48;147.15;-6.3;-118.95;5.0;982.19;63.134;35.95779;-83.92446;801.34;NaN;;3.85;12.226105;159.2;13 / 18;9014;2022-10-12 17:31:44:377
7.509;-1.8912;-3.4152;8.2097;3.5325;-4.0364;0.9727;-5.2103;0.066;0.4281;0.334;-3.3795;154.0;-29.14;-14.42;24.86;138.43;-0.99;-112.73;5.0;982.16;61.598;35.957783;-83.92446;802.22;NaN;;4.07;12.226105;156.0;13 / 18;9514;2022-10-12 17:31:44:877
6.5049;0.6452;-4.2039;8.3234;0.0502;-5.1854;0.9726;0.8656;-3.825;-2.2355;0.3893;2.0765;157.0;-19.05;-25.39;31.63;145.42;-0.29;-121.92;5.0;982.19;61.627;35.957783;-83.92446;802.22;NaN;;4.07;12.226105;156.0;13 / 18;10014;2022-10-12 17:31:45:377
8.9109;-2.4215;-3.7516;8.7538;2.4199;-3.6994;2.1379;-4.5122;-0.2584;0.4333;-0.0887;-2.8372;163.0;-28.13;-14.33;32.63;137.96;8.29;-115.64;5.0;982.2;61.537;35.95777;-83.92445;806.2;NaN;;4.5;12.226105;153.6;12 / 18;10514;2022-10-12 17:31:45:877
9.7869;-1.5203;-4.0304;8.7384;-0.749;-4.3875;-0.7711;-2.0738;-2.2357;-2.3005;0.8954;3.0352;194.0;-21.28;-21.54;35.08;138.34;4.38;-116.66;5.0;982.19;60.522;35.95777;-83.92445;806.2;NaN;;4.5;12.226105;153.6;12 / 18;11014;2022-10-12 17:31:46:377
8.3195;-3.2524;-1.7859;9.4972;-0.3869;-2.4134;5.7202;-1.7136;-0.6507;0.7362;-0.2323;-3.8829;173.0;-36.53;-6.39;25.8;115.47;2.26;-104.26;5.0;982.18;60.951;35.95776;-83.924446;804.71;NaN;;4.18;12.226105;148.0;13 / 18;11514;2022-10-12 17:31:46:877
9.9643;-0.1807;-2.217;9.1286;-1.5652;-3.2231;1.2016;0.1651;-1.529;-0.5326;0.4191;2.449;199.0;-26.94;-20.98;33.47;129.29;-6.35;-112.05;5.0;982.16;61.527;35.95776;-83.924446;804.71;NaN;;4.18;12.226105;148.0;13 / 18;12016;2022-10-12 17:31:47:379
18.5746;-2.703;-0.4358;9.0172;-2.1621;-3.1914;5.7915;4.9245;0.0172;-0.0907;1.0286;-3.7395;210.0;-33.79;-5.92;33.34;149.93;31.98;-113.69;5.0;982.18;62.177;35.957752;-83.924446;803.22;NaN;;4.86;12.226105;155.7;13 / 18;12514;2022-10-12 17:31:47:877
8.5241;-1.8589;-3.6221;7.5173;0.3674;-6.2869;1.7433;-4.7103;0.7057;-0.8693;-0.078;4.1988;221.0;-22.67;-20.83;35.64;116.27;-17.52;-124.61;5.0;982.12;61.669;35.957752;-83.924446;803.22;NaN;;4.86;12.226105;155.7;13 / 18;13014;2022-10-12 17:31:48:377
15.7711;-0.6547;-6.4292;8.1132;-1.906;-5.1686;3.8587;7.0987;1.5047;0.7791;1.2454;-2.9577;236.0;-28.59;-14.92;34.67;148.92;11.21;-122.5;5.0;982.16;62.182;35.95774;-83.92444;803.11;NaN;;4.39;12.226105;159.9;13 / 18;13515;2022-10-12 17:31:48:878
8.7721;-1.7201;-7.5006;8.1928;0.6748;-5.3472;-1.4;-1.5899;-0.3963;0.3753;0.0733;2.1955;275.0;-20.91;-28.39;29.01;153.45;-3.95;-123.13;5.0;982.09;60.257;35.95774;-83.92444;803.11;NaN;;4.39;12.226105;159.9;13 / 18;14015;2022-10-12 17:31:49:378
12.5833;-2.5893;-4.2114;9.1314;-1.0477;-3.4191;3.8589;1.7885;-1.5481;-1.0315;0.9257;-0.7849;264.0;-29.59;-13.14;32.16;155.9;24.93;-119.38;5.0;982.14;61.539;35.95773;-83.92444;802.3;NaN;;4.21;12.226105;163.4;13 / 18;14515;2022-10-12 17:31:49:878
14.6997;-2.077;-2.8573;8.9715;1.1012;-3.8039;-1.8824;-3.9942;-0.2468;-1.6377;-0.4353;2.9534;311.0;-31.07;-24.62;24.11;146.51;-15.22;-113.95;5.0;982.11;61.135;35.95773;-83.92444;802.3;NaN;;4.21;12.226105;163.4;13 / 18;15015;2022-10-12 17:31:50:378
14.4951;-1.197;-2.6336;7.6378;-4.5365;-4.1539;5.4251;4.6372;0.7062;0.0284;-0.0502;0.9104;347.0;-39.88;-15.9;17.72;186.88;28.87;-119.77;5.0;982.15;60.336;35.95772;-83.92443;801.48;NaN;;4.25;12.226105;153.3;13 / 18;15514;2022-10-12 17:31:50:877
8.991;-6.1158;-3.0392;8.1696;3.3324;-4.2806;-2.5313;-7.23;0.5636;-0.4634;-0.015;0.3399;343.0;-32.61;-22.57;14.33;197.08;-19.87;-117.65;5.0;982.11;60.634;35.95772;-83.92443;801.48;NaN;;4.25;12.226105;153.3;13 / 18;16015;2022-10-12 17:31:51:378
10.1031;1.1659;-3.7337;7.9274;-4.1646;-3.9978;1.3439;5.1611;0.6308;-0.5731;0.1582;0.4574;473.0;-29.51;-23.32;20.59;169.33;19.67;-114.98;5.0;982.12;60.987;35.95771;-83.92442;800.52;NaN;;4.21;12.226105;151.2;13 / 18;16514;2022-10-12 17:31:51:877
7.1154;-3.1077;-3.6305;8.532;2.6323;-4.0554;-1.9228;-5.7548;1.1579;0.1837;-0.3709;-0.897;399.0;-34.73;-16.72;19.46;159.47;-15.57;-115.42;5.0;982.12;61.514;35.95771;-83.92442;800.52;NaN;;4.21;12.226105;151.2;13 / 18;17014;2022-10-12 17:31:52:377
15.5689;0.0239;-3.6209;7.8437;-4.1999;-4.124;1.1816;3.4396;1.1949;-1.0034;0.1025;1.8439;487.0;-30.71;-21.67;23.14;170.7;25.36;-117.73;5.0;982.13;62.463;35.9577;-83.924416;798.94;NaN;;4.32;12.226105;149.3;12 / 18;17515;2022-10-12 17:31:52:878
6.6616;-3.1149;-4.1189;8.1359;2.8249;-4.6902;-1.5223;-6.0366;0.6661;1.1418;-0.719;-2.4261;417.0;-35.16;-16.63;17.79;163.06;-9.0;-112.49;5.0;982.12;62.378;35.9577;-83.924416;798.94;NaN;;4.32;12.226105;149.3;12 / 18;18014;2022-10-12 17:31:53:377
8.9982;0.5997;-4.7641;7.7446;-3.1566;-5.1214;0.5794;3.7441;0.0031;-0.4666;0.1293;1.775;490.0;-25.37;-25.11;24.02;165.94;7.0;-121.75;5.0;982.13;60.795;35.957687;-83.92441;799.1;NaN;;4.32;12.226105;150.4;12 / 18;18515;2022-10-12 17:31:53:878
6.1756;-2.6994;-3.481;8.1794;2.6762;-4.7017;-1.2664;-5.2174;0.7828;-0.2078;-0.3318;-0.7364;460.0;-33.39;-13.86;21.84;151.08;-5.31;-115.43;5.0;982.13;62.247;35.957687;-83.92441;799.1;NaN;;4.32;12.226105;150.4;12 / 18;19014;2022-10-12 17:31:54:377
9.5309;0.3269;-4.2185;8.4981;-2.479;-4.2199;-0.0405;2.3072;-1.1807;-0.3533;0.1381;1.7096;510.0;-26.46;-20.55;27.32;156.66;14.64;-116.41;5.0;982.12;59.769;35.95768;-83.92441;801.86;NaN;;4.18;12.226105;151.4;12 / 18;19516;2022-10-12 17:31:54:879
5.9806;-2.4993;-3.0452;8.9342;1.8881;-3.5757;-0.2609;-4.6533;0.3989;0.7109;-0.117;-1.5325;434.0;-35.01;-12.47;24.11;112.29;-11.1;-111.81;5.0;982.13;60.021;35.95768;-83.92441;801.86;NaN;;4.18;12.226105;151.4;12 / 18;20014;2022-10-12 17:31:55:377
8.3423;-0.3975;-2.8298;8.5048;-2.8681;-3.9513;-0.8946;2.6444;0.1924;-0.8321;0.429;1.0706;474.0;-30.51;-21.9;28.37;156.57;11.93;-114.12;5.0;982.14;60.273;35.957672;-83.9244;803.24;NaN;;4.03;12.226105;150.9;12 / 18;20514;2022-10-12 17:31:55:877
9.3562;-2.2026;-1.6591;9.3709;0.2908;-2.876;2.3419;-2.0772;0.8688;1.2322;0.035;-2.4763;451.0;-38.03;-10.99;26.59;123.44;-1.7;-107.06;5.0;982.13;63.42;35.957672;-83.9244;803.24;NaN;;4.03;12.226105;150.9;12 / 18;21014;2022-10-12 17:31:56:377
7.9041;0.8453;-3.9251;8.6905;-2.4417;-3.8319;0.3689;2.7071;-1.1322;1.4957;-0.4555;1.5043;486.0;-30.69;-24.39;25.59;156.65;4.17;-113.39;5.0;982.14;60.298;35.95766;-83.9244;803.84;NaN;;4.18;12.226105;155.6;12 / 18;21515;2022-10-12 17:31:56:878
7.812;-2.4742;-2.5905;9.1942;-0.8151;-3.3126;2.9852;1.508;-1.1469;0.4161;0.2671;-2.3991;438.0;-35.81;-13.59;24.75;147.07;4.77;-109.81;5.0;982.14;63.709;35.95766;-83.9244;803.84;NaN;;4.18;12.226105;155.6;12 / 18;22014;2022-10-12 17:31:57:377
9.4196;0.0802;-3.335;8.8828;-2.296;-3.4634;3.5016;0.655;-0.2018;-0.0978;0.0071;1.0446;445.0;-30.41;-22.86;22.69;158.53;1.76;-112.95;5.0;982.16;59.839;35.95765;-83.92439;804.6;NaN;;4.18;12.226105;152.8;12 / 18;22516;2022-10-12 17:31:57:879
11.3958;-2.8753;-2.4227;8.8885;-2.4197;-3.363;6.2934;1.6281;-1.6553;-0.2833;0.5811;-2.3928;420.0;-40.89;-11.72;15.23;181.23;14.28;-110.72;5.0;982.14;64.808;35.95765;-83.92439;804.6;NaN;;4.18;12.226105;152.8;12 / 18;23015;2022-10-12 17:31:58:378
7.8467;0.1866;-3.5336;9.0244;-0.9081;-3.7291;-1.557;-0.0707;1.334;0.3783;-0.2886;1.4106;445.0;-29.12;-21.9;15.79;171.54;5.31;-112.45;5.0;982.13;61.393;35.95764;-83.924385;808.79;NaN;;4.75;12.226105;149.9;12 / 18;23514;2022-10-12 17:31:58:877
15.2862;-1.8625;-2.764;9.3027;-1.0697;-2.9131;5.1184;-0.2437;-0.2556;-0.7666;0.4819;-1.0452;432.0;-34.22;-7.44;16.88;170.53;24.41;-111.4;5.0;982.16;60.795;35.95764;-83.924385;808.79;NaN;;4.75;12.226105;149.9;12 / 18;24014;2022-10-12 17:31:59:377
6.2904;-2.9483;-6.2797;8.8602;1.0546;-4.0688;0.7161;-5.0233;0.2328;-1.1946;0.192;3.1432;446.0;-29.96;-16.44;21.83;123.17;-16.67;-114.7;5.0;982.15;60.386;35.957626;-83.924385;810.25;NaN;;4.25;12.226105;154.1;12 / 18;24514;2022-10-12 17:31:59:877
14.3898;-0.6643;-2.0614;8.8141;-1.8421;-3.8845;3.6754;3.5598;1.7116;2.133;0.8679;-2.9327;483.0;-35.61;-11.61;24.47;183.62;18.52;-125.8;5.0;982.04;68.012;35.957626;-83.924385;810.25;NaN;;4.25;12.226105;154.1;12 / 18;25015;2022-10-12 17:32:00:378
3.6425;-0.9817;-4.4279;8.3441;3.0395;-4.1603;-0.226;-6.2324;-0.0102;-0.8118;-0.668;1.4702;499.0;-31.09;-25.59;27.64;137.5;-18.06;-116.5;5.0;982.12;67.45;35.957615;-83.92438;813.0;NaN;;4.39;12.226105;161.8;12 / 18;25515;2022-10-12 17:32:00:878
13.206;3.4845;-1.8218;8.233;-2.2268;-4.8405;7.601;2.0751;2.1718;-0.564;1.4207;-0.8132;481.0;-36.64;-21.96;24.92;174.93;13.12;-120.45;5.0;982.03;64.356;35.957615;-83.92438;813.0;NaN;;4.39;12.226105;161.8;12 / 18;26016;2022-10-12 17:32:01:379
10.7722;0.1328;-3.1149;9.1373;0.5659;-3.5156;0.2418;-3.7453;-0.4151;-1.5039;0.1045;1.3481;522.0;-36.11;-24.06;17.55;178.95;-14.16;-116.21;5.0;982.07;62.708;35.957607;-83.92437;814.91;NaN;;3.78;12.226105;154.3;12 / 18;26514;2022-10-12 17:32:01:877
12.9772;0.146;-2.3785;8.1763;-3.5571;-4.0825;1.9835;3.9863;2.1185;0.2535;-0.0036;0.8107;500.0;-35.32;-23.03;16.22;181.2;13.95;-115.56;5.0;982.04;60.111;35.957607;-83.92437;814.91;NaN;;3.78;12.226105;154.3;12 / 18;27014;2022-10-12 17:32:02:377
7.8215;-3.335;-2.8023;8.6116;2.946;-3.6514;-0.5909;-6.6852;0.8141;0.1859;-0.6365;-0.8205;524.0;-32.79;-22.01;15.84;173.84;-20.93;-114.61;5.0;982.01;65.771;35.957596;-83.92437;813.07;NaN;;4.32;12.226105;152.6;12 / 18;27514;2022-10-12 17:32:02:877
12.5438;1.8577;-4.2027;8.1995;-4.2646;-3.279;2.2988;6.0826;-1.4534;-0.1126;-0.0113;0.2282;544.0;-32.23;-16.71;24.77;160.65;25.78;-111.8;5.0;982.04;65.326;35.957596;-83.92437;813.07;NaN;;4.32;12.226105;152.6;12 / 18;28014;2022-10-12 17:32:03:377
8.0943;-3.2836;-2.575;8.9683;2.0962;-3.3683;-2.1508;-5.126;0.8804;-0.2042;-0.1269;1.1398;478.0;-33.99;-16.84;24.36;118.47;-14.18;-107.8;5.0;982.02;68.965;35.957584;-83.92436;814.5;NaN;;4.39;12.226105;150.7;12 / 18;28514;2022-10-12 17:32:03:877
10.2431;2.199;-3.4618;8.239;-4.1661;-3.3064;1.0936;3.639;0.2273;-0.5243;0.0715;1.3455;501.0;-31.03;-21.07;25.35;161.67;25.14;-111.87;5.0;982.02;62.1;35.957584;-83.92436;814.5;NaN;;4.39;12.226105;150.7;12 / 18;29015;2022-10-12 17:32:04:378
10.1677;-4.902;-3.4774;8.6642;3.2801;-3.216;-1.6799;-6.7957;0.5736;-0.0385;-0.075;0.2632;475.0;-31.82;-17.96;20.42;121.14;-19.54;-110.36;5.0;982.05;65.548;35.957577;-83.924355;816.27;NaN;;4.25;12.226105;155.7;12 / 18;29514;2022-10-12 17:32:04:877
9.6697;1.8984;-2.0614;7.8825;-4.587;-3.6049;1.9489;6.3511;1.3526;-0.8839;0.3063;1.3116;498.0;-28.91;-12.96;26.03;155.95;25.44;-113.44;5.0;982.06;67.813;35.957577;-83.924355;816.27;NaN;;4.25;12.226105;155.7;12 / 18;30016;2022-10-12 17:32:05:379
4.745;-2.3067;-3.3159;8.3829;3.5323;-3.6635;-3.3293;-6.1832;1.0209;-0.0997;-0.0851;-0.1086;457.0;-31.65;-13.11;26.18;101.69;-14.1;-105.6;5.0;982.01;67.02;35.95757;-83.924355;817.54;NaN;;4.32;12.226105;152.6;13 / 18;30515;2022-10-12 17:32:05:878
9.9787;1.7931;-2.8825;7.2987;-5.5031;-3.5517;2.4678;6.5329;0.4023;-0.8174;-0.1749;0.9397;481.0;-28.28;-20.83;30.71;152.47;25.87;-111.8;5.0;982.11;59.868;35.95757;-83.924355;817.54;NaN;;4.32;12.226105;152.6;13 / 18;31014;2022-10-12 17:32:06:377
5.2813;-3.5922;-1.8661;7.7993;4.6226;-3.7381;0.6105;-9.4987;1.0181;0.5888;-0.6105;-1.7239;435.0;-28.24;-18.39;22.63;85.28;-28.12;-115.61;5.0;982.03;62.31;35.957558;-83.92435;819.65;NaN;;4.36;12.226105;147.8;13 / 18;31514;2022-10-12 17:32:06:877
13.5613;1.2114;-2.3163;7.7485;-3.9705;-4.5129;3.0883;3.9128;1.9111;-0.8876;-0.128;1.5895;451.0;-23.42;-21.64;18.34;172.88;23.88;-120.22;5.0;982.07;60.305;35.957558;-83.92435;819.65;NaN;;4.36;12.226105;147.8;13 / 18;32014;2022-10-12 17:32:07:377
6.0559;-3.967;-3.7457;8.3698;3.1708;-4.0078;-2.8375;-7.2713;0.0037;2.4973;-0.8882;-2.7053;369.0;-32.31;-13.8;16.67;118.09;-17.03;-109.38;5.0;982.03;63.332;35.957542;-83.92434;820.83;NaN;;4.39;12.226105;144.0;13 / 18;32516;2022-10-12 17:32:07:879
11.6426;1.2389;-2.7305;7.9856;-4.2378;-3.8002;0.9855;3.5505;0.8287;-0.5633;-0.1939;1.999;320.0;-26.16;-20.7;28.14;157.63;25.6;-115.45;5.0;982.07;56.447;35.957542;-83.92434;820.83;NaN;;4.39;12.226105;144.0;13 / 18;33014;2022-10-12 17:32:08:377
7.2601;-4.5057;-2.843;8.6648;3.0235;-3.457;-2.9252;-6.5024;0.7595;1.5947;-0.2741;-2.4391;258.0;-33.43;-16.52;23.01;121.31;-13.26;-106.28;5.0;982.03;64.175;35.957535;-83.92434;821.33;NaN;;4.61;12.226105;163.8;13 / 18;33515;2022-10-12 17:32:08:878
9.9547;-0.3832;-1.4952;8.4969;-3.5902;-3.3292;-0.15;3.8815;0.2894;-0.7933;0.1571;1.0536;197.0;-32.59;-19.14;26.53;158.07;21.48;-111.4;5.0;982.07;57.525;35.957535;-83.92434;821.33;NaN;;4.61;12.226105;163.8;13 / 18;34014;2022-10-12 17:32:09:377
7.5353;-3.5515;-2.6791;9.0858;2.1715;-2.984;-1.7534;-5.0244;0.8756;0.194;-0.5274;-0.8108;223.0;-39.06;-12.26;22.14;136.06;-0.46;-104.9;5.0;982.01;60.173;35.957523;-83.92433;821.03;NaN;;4.57;12.226105;148.1;13 / 18;34514;2022-10-12 17:32:09:877
9.9966;0.3162;-2.5774;8.7396;-2.8087;-3.4499;0.0278;2.3577;-0.1449;-0.3191;-0.1077;1.5251;198.0;-32.87;-24.96;24.92;162.52;16.64;-111.54;5.0;981.94;70.931;35.957523;-83.92433;821.03;NaN;;4.57;12.226105;148.1;13 / 18;35015;2022-10-12 17:32:10:378
7.5748;-2.7257;-2.1751;9.3235;1.6892;-2.5275;-0.1056;-4.2905;-0.1049;0.9697;-0.2937;-1.9756;232.0;-39.82;-13.42;23.14;113.57;-9.92;-105.17;5.0;981.95;64.677;35.95751;-83.92432;825.55;NaN;;4.43;12.226105;144.9;13 / 18;35514;2022-10-12 17:32:10:877
9.7642;-0.7732;-2.1655;8.1739;-3.7809;-3.881;0.6483;3.2408;1.1229;-0.5713;0.0207;2.0164;224.0;-33.3;-23.83;28.46;156.62;11.03;-112.03;5.0;982.04;62.493;35.95751;-83.92432;825.55;NaN;;4.43;12.226105;144.9;13 / 18;36015;2022-10-12 17:32:11:378
7.5556;-3.8031;-2.9542;9.2781;1.3535;-2.8732;1.5017;-4.8825;0.4865;2.1346;-0.7509;-2.6484;224.0;-41.51;-11.66;24.92;155.89;12.75;-109.0;5.0;981.97;68.532;35.957504;-83.92431;826.65;NaN;;4.32;12.226105;151.2;14 / 18;36514;2022-10-12 17:32:11:877
9.69;0.0814;-3.7086;8.4703;-3.3971;-3.5894;0.4246;3.7016;-0.2573;-0.6494;0.124;1.3901;208.0;-31.42;-27.15;26.29;158.45;9.74;-111.14;5.0;982.09;67.58;35.957504;-83.92431;826.65;NaN;;4.32;12.226105;151.2;14 / 18;37014;2022-10-12 17:32:12:377
7.2194;-2.9052;-2.6408;9.363;0.4601;-2.8796;1.8999;-3.3243;0.0413;1.0642;-0.0928;-2.2203;217.0;-40.35;-15.58;21.53;146.27;-2.69;-107.1;5.0;981.99;62.699;35.957493;-83.92431;827.79;NaN;;4.54;12.226105;154.5;14 / 18;37515;2022-10-12 17:32:12:878
7.7163;-0.0407;-3.5886;8.8842;-2.4321;-3.3654;-0.7303;2.9323;-0.6978;-0.1594;-0.0044;1.1308;186.0;-31.65;-23.78;23.61;161.28;14.36;-110.75;5.0;982.04;68.521;35.957493;-83.92431;827.79;NaN;;4.54;12.226105;154.5;14 / 18;38015;2022-10-12 17:32:13:378
9.3323;-2.0722;-2.0471;9.3324;1.7444;-2.4562;0.0172;-3.8573;0.3958;0.6814;0.2747;-2.31;215.0;-37.24;-13.69;22.65;147.69;5.5;-106.75;5.0;982.07;66.838;35.95748;-83.9243;828.24;NaN;;4.5;12.226105;160.2;15 / 18;38514;2022-10-12 17:32:13:877
9.4364;0.0359;-2.8059;8.8905;-2.3969;-3.3741;3.1599;0.5081;-0.2932;-0.3078;0.0517;1.9722;197.0;-28.35;-26.08;22.84;153.2;-3.32;-109.88;5.0;982.02;62.586;35.95748;-83.9243;828.24;NaN;;4.5;12.226105;160.2;15 / 18;39014;2022-10-12 17:32:14:377
8.3997;-3.9514;-2.0746;9.4495;1.0912;-2.3848;4.2378;-4.9468;0.2064;0.833;0.5284;-3.0716;213.0;-36.47;-8.03;22.28;155.54;17.32;-109.04;5.0;982.05;68.345;35.957474;-83.9243;829.46;NaN;;4.43;12.226105;157.7;15 / 18;39514;2022-10-12 17:32:14:877
11.7371;-0.0897;-4.6229;9.2044;-0.3116;-3.3692;-0.4021;-3.6968;-0.3483;0.8982;-0.1812;3.0329;207.0;-26.57;-25.18;27.39;148.36;1.82;-110.1;5.0;982.02;58.855;35.957474;-83.9243;829.46;NaN;;4.43;12.226105;157.7;15 / 18;40015;2022-10-12 17:32:15:378
14.9393;-5.3318;-2.6707;9.4531;-1.3267;-2.2472;5.3679;1.6813;0.1005;1.5093;0.7505;-3.9093;207.0;-35.06;-6.92;28.37;160.59;30.67;-115.8;5.0;982.04;63.045;35.95746;-83.92429;828.67;NaN;;4.36;12.226105;152.0;15 / 18;40515;2022-10-12 17:32:15:878
11.7885;-3.3972;-2.7808;9.0501;-1.6488;-3.398;1.8324;-1.6384;0.1034;-0.699;-0.1855;3.209;236.0;-28.95;-23.14;26.1;131.57;-16.6;-112.34;5.0;982.0;60.847;35.95746;-83.92429;828.67;NaN;;4.36;12.226105;152.0;15 / 18;41016;2022-10-12 17:32:16:379
15.5749;-1.0618;-0.821;8.7755;-2.9297;-3.2524;8.3405;4.3587;-0.6264;-0.066;2.2992;-3.5461;249.0;-36.62;-7.46;26.66;147.88;17.38;-110.34;5.0;982.05;57.467;35.95745;-83.924286;828.5;NaN;;4.39;12.459721;144.7;15 / 18;41515;2022-10-12 17:32:16:878
6.5444;-2.8406;-3.7014;9.1983;-0.6245;-3.3425;-1.511;-3.125;-0.1884;-0.2262;-0.0528;1.9953;305.0;-27.99;-24.99;25.99;131.94;-19.66;-113.45;5.0;981.95;67.598;35.95745;-83.924286;828.5;NaN;;4.39;12.459721;144.7;15 / 18;42014;2022-10-12 17:32:17:377
14.1287;1.3442;-1.8242;7.7628;-4.5744;-3.871;5.9655;5.2272;1.5399;-0.9462;1.5509;-1.6164;319.0;-34.76;-11.91;26.04;166.31;29.31;-116.48;5.0;981.99;66.316;35.957443;-83.92428;826.53;NaN;;4.5;12.545963;144.9;15 / 18;42515;2022-10-12 17:32:17:878
7.611;-4.4315;-2.1679;9.2637;1.0577;-3.0391;-0.0062;-6.7834;0.3961;-0.0929;0.2161;2.5976;328.0;-33.02;-18.54;22.8;120.32;-18.55;-111.15;5.0;982.0;65.622;35.957443;-83.92428;826.53;NaN;;4.5;12.545963;144.9;15 / 18;43014;2022-10-12 17:32:18:377
14.6471;1.2556;-1.8996;7.4774;-5.0057;-3.8989;2.569;5.6122;2.0152;-0.9719;0.4575;0.5541;423.0;-37.03;-11.94;23.04;174.22;30.69;-117.54;5.0;981.99;67.923;35.957436;-83.92427;829.78;NaN;;4.36;12.728037;140.0;15 / 18;43515;2022-10-12 17:32:18:878
8.3985;-4.733;-2.3019;8.9212;2.5804;-3.1501;-1.6058;-6.1767;0.5914;-0.588;0.0398;1.7993;415.0;-34.05;-19.16;21.39;133.52;-15.26;-109.45;5.0;981.92;64.542;35.957436;-83.92427;829.78;NaN;;4.36;12.728037;140.0;15 / 18;44015;2022-10-12 17:32:19:378
15.3114;0.3508;-4.046;8.0251;-4.5537;-3.3214;7.1847;4.8614;-0.4687;-0.2636;0.037;1.3;516.0;-33.6;-17.89;23.18;168.27;30.03;-113.65;5.0;981.96;57.842;35.957424;-83.92426;831.7;NaN;;4.72;12.686333;156.4;14 / 18;44515;2022-10-12 17:32:19:878
8.8451;-4.7019;-1.2784;8.7326;2.8188;-3.4594;-1.1112;-6.2661;1.2437;-0.2192;-0.2269;-0.1918;390.0;-35.96;-11.77;22.46;125.98;-6.82;-108.14;5.0;981.93;60.702;35.957424;-83.92426;831.7;NaN;;4.72;12.686333;156.4;14 / 18;45015;2022-10-12 17:32:20:378
13.8906;1.2281;-7.5162;7.4886;-4.8527;-4.0672;3.6511;5.8082;-1.7541;0.0116;0.4418;2.3401;503.0;-28.74;-14.7;29.03;153.56;21.07;-115.25;5.0;981.98;55.7;35.957417;-83.924255;831.88;NaN;;4.46;12.717817;147.5;14 / 18;45515;2022-10-12 17:32:20:878
8.0058;-3.3326;-2.7604;8.8278;2.6123;-3.3788;-1.4099;-5.4953;-0.1107;-0.2561;-0.122;-1.0183;385.0;-32.89;-14.63;22.86;112.74;-15.45;-110.94;5.0;982.04;65.859;35.957417;-83.924255;831.88;NaN;;4.46;12.717817;147.5;14 / 18;46015;2022-10-12 17:32:21:378
10.5305;2.1284;-3.7732;8.0935;-4.2776;-3.5168;2.0821;4.0954;-0.0555;-0.2172;0.0462;1.1991;618.0;-29.19;-21.19;24.38;157.4;13.04;-111.23;5.0;982.0;55.63;35.95741;-83.92425;832.48;NaN;;4.36;12.741523;150.8;14 / 18;46515;2022-10-12 17:32:21:878
6.7801;-3.0787;-3.3099;8.6909;3.3548;-3.0633;-1.9774;-6.4564;-0.2292;0.4465;-0.311;-2.003;477.0;-35.44;-10.76;23.59;95.66;-13.46;-106.43;5.0;981.89;63.772;35.95741;-83.92425;832.48;NaN;;4.36;12.741523;150.8;14 / 18;47016;2022-10-12 17:32:22:379
12.6972;1.3167;-1.4186;8.076;-3.8075;-4.056;2.3294;2.2032;2.1045;-0.7918;-0.379;2.1097;645.0;-31.65;-23.08;23.42;170.32;22.85;-116.67;5.0;981.97;65.256;35.957397;-83.92424;832.64;NaN;;4.39;12.777363;146.7;14 / 18;47515;2022-10-12 17:32:22:878
7.2051;-3.705;-2.7508;8.9074;2.6932;-3.0945;-0.9828;-6.2107;-0.7908;1.1576;-0.3301;-2.7973;567.0;-39.47;-13.13;17.29;153.26;-2.96;-106.2;5.0;981.89;60.86;35.957397;-83.92424;832.64;NaN;;4.39;12.777363;146.7;14 / 18;48015;2022-10-12 17:32:23:378
10.9484;2.0219;-3.6437;8.4764;-3.3495;-3.6197;0.0552;2.6977;0.426;0.3415;-0.09;1.9268;770.0;-31.59;-26.47;19.33;168.34;4.58;-111.49;5.0;981.93;65.12;35.95739;-83.92423;835.61;NaN;;4.46;12.949501;149.7;14 / 18;48514;2022-10-12 17:32:23:877
7.8359;-2.5929;-2.1835;9.2344;1.8564;-2.7295;-1.1018;-4.2752;0.5104;0.594;-0.3104;-1.3515;516.0;-39.51;-10.56;18.19;149.4;1.6;-104.75;5.0;982.01;69.799;35.95739;-83.92423;835.61;NaN;;4.46;12.949501;149.7;14 / 18;49014;2022-10-12 17:32:24:377
8.5205;-0.9111;-3.3565;8.976;-2.1684;-3.3015;-0.2224;0.9049;-1.5347;-0.1563;0.001;1.8482;722.0;-32.51;-22.31;20.66;164.46;12.77;-110.19;5.0;981.94;63.735;35.957375;-83.924225;837.22;NaN;;4.46;12.703527;153.4;14 / 18;49515;2022-10-12 17:32:24:878
8.7446;-3.2106;-2.4658;9.3637;0.9067;-2.7693;0.6951;-4.3254;0.4385;0.3773;-0.1436;-2.1533;522.0;-38.03;-8.36;19.89;115.86;-5.31;-106.48;5.0;981.96;67.362;35.957375;-83.924225;837.22;NaN;;4.46;12.703527;153.4;14 / 18;50016;2022-10-12 17:32:25:379
9.9679;-1.209;-3.3135;8.336;-3.8542;-3.4389;0.1252;2.5242;0.4125;-0.2413;0.3089;2.1316;727.0;-30.43;-22.97;22.52;160.26;7.71;-112.24;5.0;981.95;66.271;35.957367;-83.92422;837.07;NaN;;4.57;12.545906;149.2;14 / 18;50514;2022-10-12 17:32:25:877
9.1059;-3.9407;-1.8769;9.3996;-0.9498;-2.6298;4.148;-2.0425;-0.2727;0.3486;-0.0514;-2.9957;478.0;-35.91;-3.45;22.61;155.44;27.64;-109.01;5.0;982.01;61.376;35.957367;-83.92422;837.07;NaN;;4.57;12.545906;149.2;14 / 18;51014;2022-10-12 17:32:26:377
8.6809;-0.6703;-3.3505;8.7901;-3.0192;-3.1289;1.5964;0.6755;-2.4402;0.4595;0.4089;2.5146;646.0;-30.75;-20.64;24.36;150.47;-0.82;-110.55;5.0;981.98;66.421;35.95736;-83.92421;836.72;NaN;;4.54;12.273918;145.1;14 / 18;51514;2022-10-12 17:32:26:877
7.9364;-3.9156;-1.9247;9.1043;-2.4918;-2.6597;4.3022;2.3756;-1.1568;0.3833;0.2038;-3.4194;478.0;-37.67;-1.86;22.01;140.67;14.72;-106.29;5.0;981.98;60.249;35.95736;-83.92421;836.72;NaN;;4.54;12.273918;145.1;14 / 18;52014;2022-10-12 17:32:27:377
11.3109;-2.5917;-6.1528;9.009;-2.2025;-3.187;2.4084;-1.4939;-1.0592;-0.6493;0.4936;2.4433;593.0;-33.13;-18.88;23.91;141.62;-7.44;-110.55;5.0;981.93;63.726;35.957348;-83.9242;839.2;NaN;;4.86;12.226105;142.3;15 / 18;52514;2022-10-12 17:32:27:877
16.2284;-2.7365;-3.0775;8.3141;-4.4258;-2.7312;7.8872;4.623;-1.3457;-0.4278;0.2959;-2.6451;508.0;-38.53;-1.67;24.0;154.1;26.83;-108.19;5.0;981.92;62.5;35.957348;-83.9242;839.2;NaN;;4.86;12.226105;142.3;15 / 18;53014;2022-10-12 17:32:28:377
11.2187;-3.8809;-4.319;9.1912;-0.1147;-3.4174;-0.0465;-4.3438;0.4457;0.2765;0.0609;2.8763;686.0;-33.28;-23.29;23.89;154.89;0.67;-110.4;5.0;981.94;61.506;35.957336;-83.924194;839.73;NaN;;4.72;12.226105;154.4;15 / 18;53515;2022-10-12 17:32:28:878
16.5685;-1.8434;-2.8466;9.1176;-2.4428;-2.6594;6.7985;1.1163;-0.1141;-0.7364;1.2778;-1.1259;612.0;-40.14;-2.83;24.3;174.83;35.47;-117.69;5.0;981.93;58.009;35.957336;-83.924194;839.73;NaN;;4.72;12.226105;154.4;15 / 18;54014;2022-10-12 17:32:29:377
12.4373;-3.0619;-3.2249;8.8127;2.1657;-3.7172;-3.1663;-8.1774;1.5269;0.3661;0.9316;2.7813;610.0;-32.12;-18.49;24.99;86.74;-24.74;-118.15;5.0;981.93;60.424;35.957325;-83.92419;839.17;NaN;;4.86;12.226105;153.6;15 / 18;54515;2022-10-12 17:32:29:878
9.0963;-4.6576;-2.2816;9.5564;-0.306;-2.1801;5.3675;-2.7015;0.5125;1.7788;-0.2672;-3.1155;540.0;-36.88;-11.16;24.06;168.91;28.12;-115.23;5.0;981.84;69.467;35.957325;-83.92419;839.17;NaN;;4.86;12.226105;153.6;15 / 18;55016;2022-10-12 17:32:30:379
10.9436;-1.0881;-4.0268;9.3121;-0.9192;-2.9342;0.4624;-5.1332;-0.6912;0.1546;0.5614;2.9453;699.0;-33.41;-24.67;20.66;160.42;5.38;-107.49;5.0;982.0;64.589;35.957314;-83.92418;838.56;NaN;;4.57;12.226105;148.6;15 / 18;55515;2022-10-12 17:32:30:878
10.5329;-4.6564;-2.4514;8.968;-3.0705;-2.5135;3.4203;2.5056;-0.5942;0.4856;0.1316;-2.6044;575.0;-41.83;-4.69;18.9;159.9;18.25;-105.66;5.0;981.8;70.141;35.957314;-83.92418;838.56;NaN;;4.57;12.226105;148.6;15 / 18;56016;2022-10-12 17:32:31:379
7.3822;-1.9391;-0.6954;9.1654;-2.2111;-2.6975;-1.6349;-0.1823;1.2661;-0.6022;-0.1339;1.5699;732.0;-38.16;-18.68;16.03;161.74;-2.12;-104.8;5.0;981.87;63.841;35.9573;-83.92417;836.74;NaN;;4.43;12.226105;149.9;15 / 18;56515;2022-10-12 17:32:31:878
12.4624;-0.0957;-2.8968;7.9102;-5.0221;-2.8944;6.1916;3.8812;0.4457;0.3595;0.1823;-1.8935;792.0;-40.71;-7.95;16.93;176.37;30.8;-110.1;5.0;981.82;59.98;35.9573;-83.92417;836.74;NaN;;4.43;12.226105;149.9;15 / 18;57015;2022-10-12 17:32:32:378
11.2534;-4.3059;-2.2158;9.3555;-0.6178;-2.8747;-0.8596;-4.6102;-0.8427;-0.3502;-0.0612;0.8059;693.0;-35.91;-20.36;15.86;155.5;-10.27;-105.49;5.0;981.82;69.625;35.95729;-83.92416;837.79;NaN;;4.36;12.226105;154.7;15 / 18;57514;2022-10-12 17:32:32:877
15.4624;-3.7624;-2.5208;7.2874;-5.6856;-3.2769;5.6824;6.2441;1.6815;-0.0024;1.0035;-1.4546;800.0;-40.67;-7.46;15.71;184.07;35.43;-114.21;5.0;981.82;68.557;35.95729;-83.92416;837.79;NaN;;4.36;12.226105;154.7;15 / 18;58014;2022-10-12 17:32:33:377
6.3514;-3.4905;-2.2863;9.3391;0.678;-2.9139;-0.2386;-6.0371;0.3769;-0.1471;0.2159;2.0789;677.0;-38.32;-15.34;15.28;163.91;-11.28;-108.82;5.0;981.76;64.275;35.95728;-83.92415;836.41;NaN;;4.61;12.226105;159.8;15 / 18;58515;2022-10-12 17:32:33:878
15.6407;-4.0149;-1.1276;9.3149;-2.5333;-1.7278;5.4839;1.5048;1.6183;0.5506;0.4639;-0.7413;842.0;-40.2;-14.12;13.61;181.74;28.98;-110.64;5.0;981.85;64.378;35.95728;-83.92415;836.41;NaN;;4.61;12.226105;159.8;15 / 18;59015;2022-10-12 17:32:34:378
10.6394;-7.5724;-1.9681;9.4949;1.3521;-2.0468;-2.3931;-5.3484;0.2533;-0.8148;0.062;2.482;891.0;-37.48;-21.99;13.22;163.35;-7.93;-102.17;5.0;981.89;63.214;35.957268;-83.92415;837.3;NaN;;4.5;12.226105;168.0;15 / 18;59514;2022-10-12 17:32:34:877
14.8265;-0.1627;1.1252;8.5945;-4.0484;-2.4322;6.2098;4.0576;3.1046;-1.1821;0.387;0.6517;1032.0;-42.36;-9.92;15.08;182.16;31.99;-111.21;5.0;981.91;63.046;35.957268;-83.92415;837.3;NaN;;4.5;12.226105;168.0;15 / 18;60014;2022-10-12 17:32:35:377
8.001;-3.3541;-2.0207;9.6395;1.1445;-1.393;-2.3882;-6.1589;-0.2069;-0.1871;0.0476;1.0138;879.0;-41.68;-14.01;11.94;139.29;-7.82;-96.88;5.0;981.89;68.219;35.957256;-83.92414;836.09;NaN;;4.14;12.226105;160.5;15 / 18;60515;2022-10-12 17:32:35:878
15.4262;-3.2668;-0.0538;8.4215;-4.9104;-1.0663;4.4495;5.7508;0.7782;0.5763;0.2503;-1.4576;1105.0;-42.39;-12.69;13.07;174.03;34.23;-102.37;5.0;981.94;68.486;35.957256;-83.92414;836.09;NaN;;4.14;12.226105;160.5;15 / 18;61014;2022-10-12 17:32:36:377
6.172;-4.0543;-2.2253;9.3765;2.4856;-1.4399;-2.5851;-6.0001;0.3059;-0.2246;-0.2274;-0.1494;828.0;-39.37;-14.42;15.88;107.7;-14.68;-98.73;5.0;982.07;66.975;35.95725;-83.92413;831.51;NaN;;5.18;12.226105;155.6;15 / 18;61515;2022-10-12 17:32:36:878
15.2085;-0.2776;1.1336;6.0139;-6.1889;-4.6585;6.1177;4.7959;5.306;-0.8253;1.0329;-0.5462;979.0;-40.59;-8.64;17.44;198.94;39.13;-127.76;5.0;981.9;68.165;35.95725;-83.92413;831.51;NaN;;5.18;12.226105;155.6;15 / 18;62016;2022-10-12 17:32:37:379
4.9702;-5.6405;-3.9239;8.6401;1.9827;-4.1939;-2.9622;-8.0096;0.2481;-0.3073;0.1651;-1.1534;771.0;-39.36;-9.66;15.69;315.91;-17.38;-116.29;5.0;981.97;73.532;35.957237;-83.924126;827.53;NaN;;4.43;12.226105;159.3;15 / 18;62516;2022-10-12 17:32:37:879
12.0664;1.6663;-2.9889;6.5669;-5.1219;-5.178;4.8194;4.3025;2.8232;-0.8319;0.7119;0.8456;809.0;-32.66;-18.9;22.86;176.53;23.69;-121.97;5.0;981.93;58.619;35.957237;-83.924126;827.53;NaN;;4.43;12.226105;159.3;15 / 18;63014;2022-10-12 17:32:38:377
9.3419;-6.7382;-4.3825;8.9399;1.7557;-3.6285;-2.3454;-6.2436;-0.131;0.719;-0.3504;-1.3739;713.0;-37.33;-15.86;15.94;163.95;-11.34;-110.21;5.0;981.86;65.684;35.957226;-83.92412;824.11;NaN;;4.57;12.226105;156.6;15 / 18;63515;2022-10-12 17:32:38:878
12.6577;1.2664;-2.5125;7.2464;-5.1543;-4.1343;2.8029;3.4191;1.528;-0.5475;0.2315;1.4616;894.0;-37.24;-15.47;18.36;184.5;31.71;-119.71;5.0;981.89;65.279;35.957226;-83.92412;824.11;NaN;;4.57;12.226105;156.6;15 / 18;64015;2022-10-12 17:32:39:378
7.3008;-4.9965;-3.4881;8.7371;2.5118;-3.6776;-1.847;-7.1391;1.1399;0.0955;-0.3751;-0.078;652.0;-40.78;-8.87;14.55;138.8;-6.33;-105.32;5.0;981.98;68.161;35.957214;-83.92411;822.44;NaN;;4.46;12.226105;168.4;14 / 18;64515;2022-10-12 17:32:39:878
12.5809;0.4956;-2.3713;6.726;-5.3233;-4.7533;5.8555;5.6745;2.4448;-0.35;-0.4568;2.1663;884.0;-34.95;-21.64;18.51;183.22;29.48;-121.64;5.0;981.97;61.749;35.957214;-83.92411;822.44;NaN;;4.46;12.226105;168.4;14 / 18;65016;2022-10-12 17:32:40:379
6.3562;-4.5978;-3.6473;8.5569;2.912;-3.8039;-2.1714;-7.9529;0.3127;0.0987;-0.165;-0.556;758.0;-40.56;-11.72;12.9;284.49;-17.27;-113.97;5.0;981.91;62.112;35.957203;-83.92411;822.39;NaN;;4.54;12.226105;170.3;13 / 18;65514;2022-10-12 17:32:40:877
11.269;-0.5411;-3.5216;6.9201;-5.757;-3.891;4.3572;4.9682;0.6149;0.2167;-0.4248;1.8987;948.0;-38.93;-19.41;15.79;181.45;25.23;-113.52;5.0;981.94;67.472;35.957203;-83.92411;822.39;NaN;;4.54;12.226105;170.3;13 / 18;66014;2022-10-12 17:32:41:377
7.5365;-4.3896;-3.6511;9.0465;2.0157;-3.2043;-2.0272;-6.1635;0.4043;0.159;-0.3566;-0.8702;784.0;-43.82;-9.36;10.86;180.65;0.88;-104.18;5.0;981.93;68.027;35.95719;-83.9241;821.28;NaN;;4.5;12.226105;168.3;13 / 18;66514;2022-10-12 17:32:41:877
14.3432;0.2874;-2.9698;7.0739;-5.4278;-4.0829;5.1261;4.9738;1.1984;-1.9483;1.4001;0.7417;995.0;-36.79;-24.0;13.31;184.2;23.53;-113.4;5.0;981.91;68.679;35.95719;-83.9241;821.28;NaN;;4.5;12.226105;168.3;13 / 18;67014;2022-10-12 17:32:42:377
8.6928;-6.5192;-2.4;9.1874;1.8883;-2.8628;-1.0188;-6.3843;0.1743;-0.0318;-0.3269;-1.3252;798.0;-41.47;-13.65;8.83;212.38;-11.1;-107.31;5.0;981.89;67.735;35.95718;-83.9241;821.39;NaN;;4.46;12.226105;170.7;13 / 18;67514;2022-10-12 17:32:42:877
14.8086;0.7026;-3.8426;7.6455;-5.2564;-3.176;2.0436;4.2243;-0.5362;-0.8832;0.3705;1.0739;935.0;-37.67;-20.61;13.37;183.75;32.41;-112.56;5.0;981.93;66.693;35.95718;-83.9241;821.39;NaN;;4.46;12.226105;170.7;13 / 18;68014;2022-10-12 17:32:43:377
7.3307;-3.6006;-1.8039;9.5699;1.5974;-1.4268;-2.2839;-5.256;-0.3472;-0.8191;0.4437;-1.1645;599.0;-41.18;-12.81;11.78;161.99;-7.56;-103.14;5.0;981.97;70.443;35.95717;-83.9241;822.23;NaN;;4.5;12.226105;172.5;13 / 18;68514;2022-10-12 17:32:43:877
11.6342;-1.002;-2.6779;8.1344;-4.1143;-3.616;0.3288;3.0708;1.0171;0.045;-0.1667;1.0988;1021.0;-37.56;-22.67;7.82;190.65;15.43;-110.91;5.0;981.99;68.046;35.95717;-83.9241;822.23;NaN;;4.5;12.226105;172.5;13 / 18;69014;2022-10-12 17:32:44:377
6.6748;-4.5667;-2.6767;9.248;1.4555;-2.92;-2.2401;-5.2775;0.1328;0.8486;-0.0772;-2.4646;698.0;-40.46;-11.77;13.31;166.76;1.95;-103.7;5.0;982.01;67.05;35.957157;-83.924095;820.53;NaN;;4.61;12.226105;166.0;13 / 18;69514;2022-10-12 17:32:44:877
10.3953;-1.063;-2.5259;8.3279;-4.126;-3.1293;-1.2552;2.9931;0.5248;0.1802;-0.1132;1.7189;856.0;-36.06;-19.78;15.79;176.18;24.88;-110.59;5.0;981.95;66.811;35.957157;-83.924095;820.53;NaN;;4.61;12.226105;166.0;13 / 18;70014;2022-10-12 17:32:45:377
6.2773;-4.6828;-3.0212;8.7644;2.6975;-3.4756;-2.3324;-6.4643;0.4013;-0.4448;-0.45;-0.3078;651.0;-39.82;-10.16;14.36;151.58;-3.24;-103.72;5.0;982.06;71.49;35.957146;-83.924095;820.17;NaN;;5.04;12.226105;175.9;14 / 18;70514;2022-10-12 17:32:45:877
10.7399;1.2508;-3.6042;7.2974;-5.6606;-3.2979;3.3981;6.3289;-0.4331;0.1369;0.1019;1.6254;932.0;-32.61;-22.48;18.23;175.1;30.84;-113.63;5.0;982.0;65.707;35.957146;-83.924095;820.17;NaN;;5.04;12.226105;175.9;14 / 18;71014;2022-10-12 17:32:46:377
5.7087;-4.52;-2.1679;8.9377;2.5302;-3.1441;-1.3969;-6.9848;1.9251;1.0381;-0.8679;-1.4831;753.0;-38.19;-10.35;16.43;68.92;-14.95;-109.38;5.0;981.99;58.736;35.95713;-83.924095;820.34;NaN;;4.97;12.226105;175.5;14 / 18;71514;2022-10-12 17:32:46:877
9.3538;-2.1476;-1.8398;7.4777;-5.2085;-3.6231;1.8073;3.1395;1.6827;-1.4231;0.3271;2.0163;897.0;-34.57;-18.84;19.58;167.76;21.86;-109.7;5.0;981.96;60.158;35.95713;-83.924095;820.34;NaN;;4.97;12.226105;175.5;14 / 18;72014;2022-10-12 17:32:47:377
8.4428;-5.1796;-3.3517;9.3751;1.4981;-2.4563;0.1137;-5.6773;0.3403;1.4732;-0.6368;-2.6473;686.0;-41.83;-5.55;12.21;177.83;13.91;-105.14;5.0;981.95;69.9;35.95712;-83.924095;821.34;NaN;;4.82;12.226105;170.5;13 / 18;72515;2022-10-12 17:32:47:878
10.8188;-0.5411;-1.963;7.467;-5.2079;-3.6458;2.447;4.7903;0.5194;-0.1884;-0.2659;1.8361;889.0;-32.94;-25.41;15.92;174.41;16.32;-110.62;5.0;981.93;55.931;35.95712;-83.924095;821.34;NaN;;4.82;12.226105;170.5;13 / 18;73015;2022-10-12 17:32:48:378
7.3152;-4.349;-2.8262;9.3586;1.3636;-2.5936;3.0762;-7.3856;1.0274;1.8396;-0.737;-3.1621;750.0;-40.5;-8.25;13.13;138.42;-7.99;-105.49;5.0;981.95;70.244;35.957104;-83.92409;819.98;NaN;;5.0;12.226105;175.6;13 / 18;73514;2022-10-12 17:32:48:877
12.9197;0.4944;-3.8414;7.8679;-4.6334;-3.5775;2.0095;3.8432;-0.5073;-2.0776;1.315;3.5457;961.0;-30.09;-26.17;18.84;172.97;28.2;-114.45;5.0;981.94;54.125;35.957104;-83.92409;819.98;NaN;;5.0;12.226105;175.6;13 / 18;74015;2022-10-12 17:32:49:378
6.7262;-0.0873;-6.6712;5.16;5.7808;-6.0106;-0.8333;-8.7214;-0.5184;-3.4435;-1.3;-0.9864;809.0;-39.17;-9.34;15.28;291.35;-24.04;-136.83;5.0;981.97;54.832;35.957096;-83.92408;821.39;NaN;;4.75;12.226105;168.0;13 / 18;74514;2022-10-12 17:32:49:877
8.6055;4.3621;-6.7214;6.5852;-1.0693;-7.1876;0.278;3.6257;1.7823;0.2852;-0.0604;1.116;871.0;-21.64;-33.96;18.81;185.41;-4.53;-136.72;5.0;981.91;65.825;35.957096;-83.92408;821.39;NaN;;4.75;12.226105;168.0;13 / 18;75014;2022-10-12 17:32:50:377
9.1633;-3.585;-2.7173;8.4753;2.222;-4.4048;-1.7054;-6.1469;-0.3729;0.0217;-2.4667;-2.8756;849.0;-37.16;-16.63;18.88;171.09;1.06;-113.34;5.0;981.99;65.311;35.957085;-83.92408;818.16;NaN;;4.5;12.226105;167.4;13 / 18;75514;2022-10-12 17:32:50:877
16.0179;2.2313;-4.4973;8.2767;-2.8069;-4.4484;-1.0238;2.1432;-0.1885;-0.4675;0.4894;2.6686;900.0;-31.99;-24.84;20.08;175.94;16.63;-118.26;5.0;981.94;64.864;35.957085;-83.92408;818.16;NaN;;4.5;12.226105;167.4;13 / 18;76014;2022-10-12 17:32:51:377
8.5241;-3.9168;-2.8537;8.8497;2.8572;-3.1127;-1.129;-5.9374;0.3233;0.2763;-0.227;-0.4627;815.0;-39.77;-14.96;16.01;155.3;-7.31;-106.02;5.0;981.96;64.66;35.957073;-83.92407;818.2;NaN;;4.75;12.226105;169.4;14 / 18;76515;2022-10-12 17:32:51:878
10.9759;1.3107;-2.1547;7.4254;-5.0316;-3.9643;3.5206;6.0535;1.7224;-0.8941;-0.0445;2.3248;952.0;-33.15;-25.14;18.6;172.54;23.25;-112.45;5.0;981.92;58.407;35.957073;-83.92407;818.2;NaN;;4.75;12.226105;169.4;14 / 18;77015;2022-10-12 17:32:52:378
7.8969;-3.2453;-4.0543;8.3368;3.0949;-4.134;-0.3335;-6.6762;0.745;-0.4284;-0.9971;-1.7369;716.0;-38.12;-15.3;16.65;236.19;-18.4;-116.38;5.0;981.91;57.781;35.95706;-83.924065;816.75;NaN;;4.68;12.226105;169.2;14 / 18;77514;2022-10-12 17:32:52:877
10.1462;2.1799;-5.0396;7.9717;-3.1574;-4.7595;2.0889;5.0109;-0.2136;-0.9993;0.4062;2.7178;976.0;-24.92;-28.5;21.83;167.13;8.54;-118.07;5.0;981.91;56.602;35.95706;-83.924065;816.75;NaN;;4.68;12.226105;169.2;14 / 18;78015;2022-10-12 17:32:53:378
7.1417;-1.6878;-3.7313;8.5052;3.6612;-3.2292;-0.0334;-5.157;-0.7925;0.5259;0.0285;-1.7268;804.0;-36.45;-19.39;13.89;178.15;-4.72;-110.49;5.0;981.88;63.326;35.957047;-83.924065;814.74;NaN;;4.72;12.226105;167.0;14 / 18;78514;2022-10-12 17:32:53:877
10.9615;0.0826;-3.2285;7.7511;-4.0095;-4.4738;2.0918;3.3114;1.1606;-0.1643;-0.5061;2.8027;1065.0;-25.05;-31.28;14.1;175.29;4.68;-113.77;5.0;981.88;49.387;35.957047;-83.924065;814.74;NaN;;4.72;12.226105;167.0;14 / 18;79015;2022-10-12 17:32:54:378
7.0472;-3.3924;-2.5355;8.6311;2.7561;-3.7521;1.3998;-7.1418;-2.346;-0.7877;0.1798;-2.541;793.0;-35.62;-13.16;16.59;136.23;-16.32;-113.5;5.0;981.94;68.877;35.957035;-83.92406;814.75;NaN;;4.64;12.226105;172.9;14 / 18;79515;2022-10-12 17:32:54:878
19.5634;1.0164;-5.7876;7.398;-4.8722;-4.2074;4.3537;3.6445;0.0745;0.1154;-0.6286;2.5893;828.0;-29.27;-24.73;16.56;172.64;7.26;-115.14;5.0;981.88;58.242;35.957035;-83.92406;814.75;NaN;;4.64;12.226105;172.9;14 / 18;80014;2022-10-12 17:32:55:377
6.7741;-3.3781;-3.4881;8.4228;3.2195;-3.8552;-1.5764;-6.7139;0.2167;0.1652;-0.3633;-2.1476;764.0;-39.92;-9.39;13.76;275.95;-12.32;-112.34;5.0;981.9;65.564;35.957024;-83.92406;812.12;NaN;;4.54;12.226105;175.0;15 / 18;80515;2022-10-12 17:32:55:878
11.3671;1.3633;-2.8095;7.84;-4.4715;-3.8355;2.0201;3.7144;0.1133;0.1155;-0.3598;1.9067;802.0;-34.57;-25.22;14.29;180.26;10.32;-112.02;5.0;981.87;60.65;35.957024;-83.92406;812.12;NaN;;4.54;12.226105;175.0;15 / 18;81014;2022-10-12 17:32:56:377
6.4534;-2.8896;-3.0117;8.9255;2.1191;-3.4664;-2.3659;-5.0466;0.513;0.6541;-0.1671;-1.7035;669.0;-40.44;-14.1;11.44;192.05;-7.84;-107.8;5.0;981.9;64.372;35.957016;-83.92405;811.89;NaN;;4.32;12.226105;177.4;15 / 18;81516;2022-10-12 17:32:56:879
12.2937;0.4466;-2.8825;8.5047;-3.2461;-3.6473;-1.3074;2.3842;0.1702;-1.2749;0.3576;1.8822;646.0;-38.55;-20.96;12.98;185.86;19.33;-113.21;5.0;981.87;55.915;35.957016;-83.92405;811.89;NaN;;4.32;12.226105;177.4;15 / 18;82014;2022-10-12 17:32:57:377
8.7206;-3.451;-4.6289;8.7377;3.0777;-3.2172;0.1512;-5.9481;-0.171;-0.7781;-0.4354;-1.5529;602.0;-43.48;-11.59;5.72;209.13;0.2;-106.92;5.0;981.86;62.61;35.95701;-83.92405;810.94;NaN;;3.6;12.226105;184.7;15 / 18;82514;2022-10-12 17:32:57:877
12.2602;0.2417;-2.3928;6.5656;-5.5833;-4.6787;5.5726;5.7455;2.3716;-0.1095;-0.7966;2.5982;628.0;-29.79;-23.34;0.64;201.99;23.93;-117.41;5.0;981.89;62.504;35.95701;-83.92405;810.94;NaN;;3.6;12.226105;184.7;15 / 18;83014;2022-10-12 17:32:58:377
7.5377;-4.599;-3.0129;8.609;3.3281;-3.3135;1.0945;-9.2488;0.4719;0.7096;-0.369;-2.524;633.0;-36.23;-4.16;-0.54;298.47;-19.84;-111.05;5.0;981.84;67.363;35.957;-83.92405;809.27;NaN;;4.14;12.226105;202.1;16 / 18;83515;2022-10-12 17:32:58:878
10.7698;0.9494;-4.1871;7.1967;-4.2268;-5.149;3.5137;5.1297;0.7635;-1.2181;0.2337;3.4874;682.0;-33.81;-28.8;7.63;193.73;8.86;-116.95;5.0;981.89;54.152;35.957;-83.92405;809.27;NaN;;4.14;12.226105;202.1;16 / 18;84015;2022-10-12 17:32:59:378
10.8464;-4.162;-2.7772;8.956;2.8718;-2.7772;6.1043;-7.1737;-1.1694;1.1531;-0.1644;-3.568;611.0;-45.96;-5.96;6.3;221.08;10.79;-112.97;5.0;981.92;68.656;35.956993;-83.92406;809.32;NaN;;4.0;12.226105;196.4;16 / 18;84516;2022-10-12 17:32:59:879
12.1143;0.443;-1.6244;7.8782;-3.073;-4.9659;4.628;2.4452;2.4971;-1.2925;-0.4433;2.6802;627.0;-31.88;-32.27;2.34;200.24;0.37;-115.31;5.0;981.85;58.054;35.956993;-83.92406;809.32;NaN;;4.0;12.226105;196.4;16 / 18;85014;2022-10-12 17:33:00:377
13.6678;-5.31;-3.1316;9.4051;-0.5929;-2.7134;7.9699;-1.9192;0.7085;3.5902;0.8744;-4.5761;658.0;-43.69;12.49;-2.68;302.14;3.47;-106.09;5.0;981.76;65.342;35.95698;-83.924065;805.76;NaN;;4.79;12.226105;220.3;16 / 18;85514;2022-10-12 17:33:00:877
11.5421;0.5459;-4.8625;8.7397;-1.7452;-4.0917;3.5302;-0.355;-0.1967;0.6294;-0.0864;2.6401;697.0;-36.79;-24.97;-4.65;239.2;-15.64;-112.0;5.0;981.81;54.573;35.95698;-83.924065;805.76;NaN;;4.79;12.226105;220.3;16 / 18;86014;2022-10-12 17:33:01:377
9.2964;-4.4327;-1.6208;8.7835;2.9536;-3.2089;0.6484;-7.4378;1.5174;0.4316;1.256;-3.1546;617.0;-43.87;0.45;-6.75;272.1;-0.85;-102.98;5.0;981.8;56.636;35.95697;-83.92407;804.25;NaN;;4.79;12.226105;223.0;15 / 18;86515;2022-10-12 17:33:01:878
8.8271;-0.8282;-0.6392;8.4475;-3.2278;-3.7936;6.0093;-0.7416;2.7137;-0.3538;-0.7;1.7863;624.0;-40.41;-14.38;-7.91;236.73;2.43;-113.82;5.0;981.8;63.123;35.95697;-83.92407;804.25;NaN;;4.79;12.226105;223.0;15 / 18;87014;2022-10-12 17:33:02:377
13.4501;-7.3834;-2.3366;9.486;0.5932;-2.4153;7.9302;-7.6423;-0.031;0.4371;0.6804;-3.5283;627.0;-37.52;21.66;-7.16;283.42;26.9;-114.24;5.0;981.76;65.309;35.956963;-83.92408;801.72;NaN;;4.46;12.226105;233.7;14 / 18;87515;2022-10-12 17:33:02:878
14.1515;-0.012;-4.3334;9.21;1.9107;-2.7741;-2.5102;-5.488;0.2325;-1.5125;0.4254;3.798;749.0;-38.78;-20.94;-8.96;235.16;-11.24;-106.76;5.0;981.82;54.842;35.956963;-83.92408;801.72;NaN;;4.46;12.226105;233.7;14 / 18;88015;2022-10-12 17:33:03:378
11.9393;-2.8765;-2.691;9.1079;-1.1842;-3.4373;6.0871;-0.6635;1.4361;1.5351;0.8064;-3.1509;726.0;-43.67;1.44;-4.18;245.93;20.45;-120.7;5.0;981.79;50.038;35.956955;-83.924095;800.03;NaN;;4.46;12.226105;226.3;14 / 18;88515;2022-10-12 17:33:03:878
8.8259;-0.5985;-5.4168;9.0371;-1.6491;-3.4324;2.3232;-1.2281;-3.6946;1.815;0.1543;2.0095;692.0;-38.49;-20.59;-3.45;226.29;-9.63;-109.6;5.0;981.87;62.071;35.956955;-83.924095;800.03;NaN;;4.46;12.226105;226.3;14 / 18;89015;2022-10-12 17:33:04:378
14.1024;-2.2445;-1.2425;8.7369;-3.094;-3.2036;5.7266;3.9423;1.5989;1.3775;0.5598;-2.7315;603.0;-43.84;-2.62;-1.18;225.57;18.39;-110.14;5.0;981.87;51.487;35.956947;-83.9241;797.43;NaN;;4.72;12.226105;204.9;14 / 18;89515;2022-10-12 17:33:04:878
7.8144;-3.5013;-3.0873;9.1213;-0.743;-3.5243;-1.6567;-2.2388;0.4681;-0.4739;0.1134;0.8955;638.0;-39.66;-20.08;-4.01;231.16;-10.5;-107.88;5.0;981.88;62.405;35.956947;-83.9241;797.43;NaN;;4.72;12.226105;204.9;14 / 18;90014;2022-10-12 17:33:05:377
12.5557;0.6392;-1.439;8.2259;-3.0698;-4.3682;8.3181;2.7161;2.2282;0.8643;0.926;-2.211;631.0;-42.94;-6.96;-0.99;228.09;27.5;-124.11;5.0;981.86;60.187;35.95694;-83.92411;797.21;NaN;;4.39;12.226105;212.9;15 / 18;90515;2022-10-12 17:33:05:878
7.5078;-1.4641;-2.5786;8.8045;0.6143;-4.2748;-2.3662;-3.9865;0.5827;1.1282;-0.4772;2.203;674.0;-38.31;-17.91;-1.42;252.14;-19.69;-115.17;5.0;981.89;60.657;35.95694;-83.92411;797.21;NaN;;4.39;12.226105;212.9;15 / 18;91015;2022-10-12 17:33:06:378
12.0266;-0.1783;-0.7409;7.5749;-4.145;-4.6487;5.323;5.2165;0.6918;-1.4068;1.8228;-0.6122;620.0;-41.93;-6.86;3.94;219.69;25.0;-121.54;5.0;981.82;62.594;35.95693;-83.92412;796.16;NaN;;4.54;12.226105;197.6;14 / 18;91515;2022-10-12 17:33:06:878
12.3416;-1.3358;-4.8218;9.1505;1.169;-3.3276;-1.2219;-5.2677;0.1187;0.1132;-0.1615;2.4427;636.0;-38.42;-20.06;-3.06;225.15;-6.85;-109.98;5.0;981.88;68.013;35.95693;-83.92412;796.16;NaN;;4.54;12.226105;197.6;14 / 18;92015;2022-10-12 17:33:07:378
11.0357;0.1974;-1.3143;8.5624;-3.0122;-3.7124;6.6921;2.2254;0.7753;-1.1245;0.493;0.6205;601.0;-41.59;-11.76;0.41;219.05;25.08;-120.43;5.0;981.82;66.746;35.95692;-83.924126;795.0;NaN;;4.57;12.226105;214.7;14 / 18;92514;2022-10-12 17:33:07:877
7.9388;-3.1077;-2.5869;9.0291;1.9219;-3.3095;-1.5425;-5.3759;0.1939;-0.2858;0.0958;0.9243;618.0;-41.68;-11.1;-2.16;258.94;-11.3;-110.13;5.0;981.87;65.287;35.95692;-83.924126;795.0;NaN;;4.57;12.226105;214.7;14 / 18;93015;2022-10-12 17:33:08:378
13.6128;1.0845;-4.9475;8.0621;-4.227;-3.6476;5.0453;5.4719;-1.2342;-0.0333;-0.1923;1.4007;594.0;-41.98;-11.38;-0.15;210.77;26.87;-112.78;5.0;981.84;61.167;35.956913;-83.92413;795.0;NaN;;4.72;12.226105;211.3;14 / 18;93515;2022-10-12 17:33:08:878
10.2526;-5.656;-4.7486;9.1728;2.0695;-2.7834;-1.8274;-4.6285;0.9562;1.0607;-0.2475;-0.6864;574.0;-40.95;-13.26;-2.98;252.67;-12.18;-106.88;5.0;981.85;65.75;35.956913;-83.92413;795.0;NaN;;4.72;12.226105;211.3;14 / 18;94015;2022-10-12 17:33:09:378
16.815;-2.2875;-4.0137;7.6287;-4.7786;-3.8909;2.5033;4.8325;1.7809;0.1824;0.0037;0.3047;595.0;-40.22;-17.06;-0.08;209.23;20.8;-113.83;5.0;981.83;63.839;35.956905;-83.92414;794.27;NaN;;4.46;12.226105;209.9;14 / 18;94515;2022-10-12 17:33:09:878
8.2896;-4.4865;-1.8589;9.139;2.1007;-2.87;-1.6135;-5.5084;1.0231;-0.3057;0.0622;-1.3306;558.0;-41.77;-7.97;0.64;259.38;-8.06;-108.25;5.0;981.91;63.914;35.956905;-83.92414;794.27;NaN;;4.46;12.226105;209.9;14 / 18;95015;2022-10-12 17:33:10:378
10.0193;-0.3269;-3.4726;8.1352;-4.4534;-3.1867;1.1564;3.7594;-0.8623;-0.5582;0.1859;1.2596;589.0;-38.01;-20.08;1.67;199.32;27.01;-111.39;5.0;981.87;63.103;35.956898;-83.92415;795.15;NaN;;4.75;12.226105;193.9;14 / 18;95515;2022-10-12 17:33:10:878
7.3642;-3.1436;-1.4004;9.1923;1.6918;-2.9683;-1.9268;-4.8672;1.5361;0.1316;0.1452;-2.2037;534.0;-40.31;-9.24;1.03;227.1;1.77;-107.33;5.0;981.91;65.811;35.956898;-83.92415;795.15;NaN;;4.75;12.226105;193.9;14 / 18;96014;2022-10-12 17:33:11:377
8.5576;-1.118;-2.7269;8.9257;-3.0879;-2.6395;-0.892;2.4509;-0.6896;-0.091;-0.0022;1.8606;600.0;-35.85;-23.06;2.31;197.27;5.85;-106.37;5.0;981.9;52.813;35.956882;-83.92415;795.35;NaN;;4.57;12.226105;204.1;13 / 18;96514;2022-10-12 17:33:11:877
6.7202;-3.3398;-2.2146;9.1723;2.1004;-2.7619;-1.0629;-6.0568;0.7015;0.444;-0.2965;-1.7167;534.0;-41.77;-4.99;0.15;230.07;5.0;-104.05;5.0;981.92;68.174;35.956882;-83.92415;795.35;NaN;;4.57;12.226105;204.1;13 / 18;97014;2022-10-12 17:33:12:377
8.7829;-0.1005;-3.6437;8.7797;-2.9595;-3.2139;3.6507;0.7494;-2.1471;-0.8675;0.3938;1.744;590.0;-35.03;-21.71;3.06;196.45;17.56;-110.11;5.0;981.86;62.645;35.956875;-83.92416;795.73;NaN;;4.82;12.226105;219.7;13 / 18;97516;2022-10-12 17:33:12:879
7.8335;-4.0807;-1.6639;9.4089;0.4079;-2.7345;2.5694;-4.1378;0.149;0.4874;0.0495;-3.0891;536.0;-41.04;-2.14;1.54;267.97;-2.38;-106.21;5.0;981.93;66.866;35.956875;-83.92416;795.73;NaN;;4.82;12.226105;219.7;13 / 18;98014;2022-10-12 17:33:13:377
7.5736;-1.7608;-0.8306;8.9424;-1.3829;-3.7803;-1.8488;0.199;0.038;-2.0816;0.5289;2.7545;601.0;-32.27;-25.29;6.83;202.7;-6.42;-118.13;5.0;981.91;67.736;35.956863;-83.92417;797.52;NaN;;5.26;12.226105;185.1;13 / 18;98514;2022-10-12 17:33:13:877
9.6183;-3.1603;-2.6109;9.3233;-1.4692;-2.6624;2.9897;-1.2415;0.2544;1.2291;-0.2479;-3.0729;557.0;-41.16;-5.21;2.34;207.8;28.25;-109.95;5.0;981.92;70.909;35.956863;-83.92417;797.52;NaN;;5.26;12.226105;185.1;13 / 18;99015;2022-10-12 17:33:14:378
7.5652;-1.5263;-4.1812;8.4517;-2.5867;-4.2483;0.3369;0.0744;-1.2422;1.1452;-0.7367;1.7183;578.0;-36.26;-23.72;4.22;203.17;1.73;-113.55;5.0;981.9;66.26;35.956856;-83.92417;799.34;NaN;;4.36;12.226105;192.1;14 / 18;99514;2022-10-12 17:33:14:877
8.1748;-2.8322;-3.7528;8.9308;-2.0265;-3.5076;3.1489;1.7752;0.3213;1.5711;-0.3325;-2.9678;547.0;-41.83;-7.13;4.93;214.96;11.93;-111.44;5.0;981.87;59.572;35.956856;-83.92417;799.34;NaN;;4.36;12.226105;192.1;14 / 18;100015;2022-10-12 17:33:15:378
9.3;-1.6842;-5.9148;8.8995;-1.4787;-3.8448;1.823;-0.8315;-1.3695;-0.1386;0.1141;1.6129;580.0;-33.53;-24.58;5.85;201.46;-5.22;-114.41;5.0;981.85;53.941;35.956844;-83.92418;797.84;NaN;;4.5;12.226105;179.5;14 / 18;100515;2022-10-12 17:33:15:878
8.4571;-3.0703;-2.9722;9.2073;0.6377;-3.3151;2.0388;-3.7093;0.2201;0.8633;0.0906;-2.5628;558.0;-39.47;-11.68;7.13;201.47;14.64;-112.44;5.0;981.86;62.661;35.956844;-83.92418;797.84;NaN;;4.5;12.226105;179.5;14 / 18;101014;2022-10-12 17:33:16:377
11.8962;-1.7847;-6.865;8.7774;-1.9927;-3.8933;1.7577;1.5633;0.4351;0.6589;-0.5847;1.2143;580.0;-31.86;-23.03;6.23;194.5;11.72;-113.92;5.0;981.87;61.469;35.956837;-83.92417;798.88;NaN;;4.57;12.226105;169.0;14 / 18;101515;2022-10-12 17:33:16:878
9.3778;-2.8561;-3.0595;9.1369;-0.5486;-3.5194;4.0362;-1.6336;0.7632;-0.2101;0.4487;-1.9381;545.0;-37.97;-7.44;6.34;210.47;22.54;-117.22;5.0;981.91;61.075;35.956837;-83.92417;798.88;NaN;;4.57;12.226105;169.0;14 / 18;102015;2022-10-12 17:33:17:378
10.6789;-1.914;-2.8884;8.9497;-0.4388;-3.985;-0.967;-3.0007;1.3095;1.1629;0.0102;1.8121;549.0;-31.84;-20.51;9.79;205.74;-12.38;-118.51;5.0;981.91;63.793;35.956825;-83.92417;798.46;NaN;;4.54;12.226105;171.0;14 / 18;102514;2022-10-12 17:33:17:877
12.6769;-2.9961;-3.3936;8.8224;-1.3238;-4.0721;3.8036;0.7724;0.449;0.4659;-0.5769;-2.779;521.0;-38.55;-7.52;11.25;194.64;25.22;-114.76;5.0;981.88;61.125;35.956825;-83.92417;798.46;NaN;;4.54;12.226105;171.0;14 / 18;103016;2022-10-12 17:33:18:379
9.7702;-2.0004;-5.3785;8.7156;-0.8709;-4.4102;0.2622;-5.0028;0.426;0.1958;0.2474;1.783;562.0;-35.64;-21.62;11.55;192.39;5.09;-116.84;5.0;981.86;58.029;35.956814;-83.92418;797.89;NaN;;4.64;12.226105;191.1;14 / 18;103514;2022-10-12 17:33:18:877
10.2921;-3.7098;-2.9506;8.3375;-3.4498;-3.8412;4.7355;4.9421;-0.584;0.2565;0.7526;-2.792;535.0;-42.24;-3.99;9.77;204.5;20.6;-114.74;5.0;981.85;58.743;35.956814;-83.92418;797.89;NaN;;4.64;12.226105;191.1;14 / 18;104014;2022-10-12 17:33:19:377
9.9978;-1.9379;-3.0272;8.9117;-1.4724;-3.819;0.1838;-0.5388;0.4111;0.3186;0.0304;1.3965;559.0;-39.34;-17.59;6.34;210.61;-4.01;-111.98;5.0;981.83;64.921;35.956802;-83.92418;797.3;NaN;;4.32;12.226105;185.0;15 / 18;104515;2022-10-12 17:33:19:878
10.887;-0.309;-6.0392;8.0101;-4.2698;-3.7119;2.8914;4.4332;-2.9928;-1.3387;0.6066;-1.3882;549.0;-41.68;-13.31;12.43;188.76;30.28;-112.65;5.0;981.85;50.443;35.956802;-83.92418;797.3;NaN;;4.32;12.226105;185.0;15 / 18;105016;2022-10-12 17:33:20:379
3.7158;0.1914;-7.1477;6.4541;6.5606;-3.3872;-2.5983;-7.9789;-1.1459;0.4868;0.874;-3.0891;565.0;-22.26;-29.21;5.81;199.87;-37.34;-113.8;5.0;981.84;58.97;35.95679;-83.92419;797.78;NaN;;4.5;12.226105;179.8;15 / 18;105515;2022-10-12 17:33:20:878
6.0631;9.4615;-0.6619;7.7052;5.6901;-2.103;-4.6758;2.1492;2.8906;-0.3487;0.6922;0.2333;586.0;-7.52;-36.41;-0.53;187.0;-35.47;-105.27;5.0;981.87;55.926;35.95679;-83.92419;797.78;NaN;;4.5;12.226105;179.8;15 / 18;106014;2022-10-12 17:33:21:377
4.8697;0.122;-2.9219;7.8244;5.6211;-1.8312;-3.889;-3.2601;-1.3049;-0.6651;-1.608;1.1216;618.0;-12.39;-33.92;-3.54;195.56;-36.71;-98.4;5.0;981.88;61.584;35.956783;-83.92419;797.23;NaN;;4.36;12.226105;202.4;14 / 18;106516;2022-10-12 17:33:21:879
11.3384;2.2971;-1.9152;7.0636;-4.7631;-4.8567;4.9828;5.8756;2.2802;0.7611;-0.8258;1.4927;565.0;-26.21;-13.41;3.47;208.86;24.3;-123.45;5.0;981.83;64.668;35.956783;-83.92419;797.23;NaN;;4.36;12.226105;202.4;14 / 18;107014;2022-10-12 17:33:22:377
4.6971;-3.5575;-3.2393;8.3874;3.9735;-3.1676;1.0806;-8.6791;0.5729;2.0286;-0.5684;-2.5851;506.0;-33.77;1.31;-0.22;318.97;-23.9;-110.69;5.0;981.87;69.704;35.956776;-83.924194;796.7;NaN;;3.82;12.226105;195.5;14 / 18;107514;2022-10-12 17:33:22:877
11.3946;1.7058;-4.2039;7.5823;-4.8363;-3.9102;3.1856;3.718;0.3698;-0.7463;0.4791;2.8475;504.0;-33.6;-21.64;0.83;205.29;13.47;-115.15;5.0;981.88;60.166;35.956776;-83.924194;796.7;NaN;;3.82;12.226105;195.5;14 / 18;108014;2022-10-12 17:33:23:377
5.479;-3.207;-4.168;8.7746;2.178;-3.7992;0.0089;-6.0696;0.8437;1.4538;-0.9764;-2.3207;490.0;-40.61;0.71;-2.64;258.86;6.55;-109.8;5.0;981.89;64.607;35.956768;-83.9242;796.45;NaN;;4.25;12.226105;196.8;14 / 18;108514;2022-10-12 17:33:23:877
10.0277;0.9529;-3.4666;7.0173;-3.6673;-5.7861;2.1052;3.6146;1.6971;-0.3044;-0.2869;1.6625;517.0;-37.41;-19.63;2.83;215.2;12.98;-125.09;5.0;981.88;60.685;35.956768;-83.9242;796.45;NaN;;4.25;12.226105;196.8;14 / 18;109016;2022-10-12 17:33:24:379
4.9259;-3.329;-4.162;8.6309;1.7682;-4.3072;3.6446;-5.2173;-0.1584;2.1558;-0.3643;-3.8903;532.0;-41.06;2.44;1.2;296.45;-10.39;-116.52;5.0;981.83;70.825;35.95676;-83.92421;798.18;NaN;;4.68;12.226105;219.0;14 / 18;109514;2022-10-12 17:33:24:877
10.139;0.3114;-2.6252;8.0753;-2.5102;-4.9658;1.6995;2.8627;-0.0129;-0.7998;0.0583;2.2539;547.0;-36.23;-21.26;2.98;211.54;-1.04;-117.47;5.0;981.82;62.207;35.95676;-83.92421;798.18;NaN;;4.68;12.226105;219.0;14 / 18;110014;2022-10-12 17:33:25:377
9.2243;-3.2154;-3.687;8.345;3.6234;-3.661;0.8856;-6.9403;0.049;2.1725;0.3417;-3.6267;491.0;-42.96;2.34;-2.64;284.95;-3.05;-107.07;5.0;981.74;69.538;35.956753;-83.92422;796.7;NaN;;4.28;12.226105;229.5;15 / 18;110514;2022-10-12 17:33:25:877
10.9277;0.984;-2.6252;8.166;-1.9641;-5.0625;3.6441;0.5372;-1.5198;-1.8205;-0.3203;3.2564;488.0;-35.32;-24.81;-2.93;220.84;-9.28;-114.13;5.0;981.84;65.429;35.956753;-83.92422;796.7;NaN;;4.28;12.226105;229.5;15 / 18;111014;2022-10-12 17:33:26:377
8.5552;-3.9622;-3.6942;8.6248;2.8337;-3.7086;1.4407;-6.509;0.3532;2.6216;0.8472;-3.8859;442.0;-40.91;5.33;-1.37;281.46;2.58;-112.02;5.0;981.74;64.601;35.956745;-83.92423;796.77;NaN;;4.39;12.226105;221.5;15 / 18;111515;2022-10-12 17:33:26:878
10.4922;0.6511;-1.8673;8.9229;-1.3136;-3.8504;3.3261;-0.1677;-2.5325;-1.2606;0.0015;2.5717;465.0;-37.16;-21.86;-3.49;213.62;7.7;-113.34;5.0;981.87;62.676;35.956745;-83.92423;796.77;NaN;;4.39;12.226105;221.5;15 / 18;112015;2022-10-12 17:33:27:378
10.4049;-3.1627;-2.7808;9.4264;0.3912;-2.6758;3.1555;-3.4661;-0.0961;1.3161;-0.0786;-2.9573;398.0;-42.71;3.24;-4.74;248.18;17.33;-112.4;5.0;981.92;64.446;35.956738;-83.92424;797.41;NaN;;4.32;12.226105;220.9;17 / 18;112516;2022-10-12 17:33:27:879
8.7123;1.0917;-4.0603;8.5776;-2.0723;-4.278;-0.5843;3.3233;-0.1062;0.541;-0.6923;2.0448;424.0;-39.45;-22.5;-6.6;228.47;-4.33;-113.47;5.0;981.88;66.266;35.956738;-83.92424;797.41;NaN;;4.32;12.226105;220.9;17 / 18;113014;2022-10-12 17:33:28:377
7.5604;-3.0057;-2.1464;8.9595;0.1201;-3.9854;2.3005;-2.2738;0.0429;-0.1742;0.0626;-2.2796;387.0;-44.25;-5.01;-2.94;257.63;-0.7;-113.98;5.0;981.95;70.495;35.95673;-83.92425;796.27;NaN;;4.28;12.226105;225.2;17 / 18;113514;2022-10-12 17:33:28:877
7.8574;0.1292;-4.7557;8.4669;-3.3177;-3.6708;-0.6798;3.1066;-1.0593;5.0E-4;0.0539;2.1923;404.0;-39.0;-17.74;-4.82;220.75;6.6;-111.3;5.0;981.88;62.042;35.95673;-83.92425;796.27;NaN;;4.28;12.226105;225.2;17 / 18;114014;2022-10-12 17:33:29:377
9.379;-3.6054;-1.9104;9.3322;-0.7495;-2.9187;6.738;-1.2907;-1.9201;-0.2394;0.4157;-3.2508;403.0;-42.13;2.27;-6.79;233.3;27.11;-109.24;5.0;982.0;71.959;35.956722;-83.92426;791.53;NaN;;4.72;12.226105;245.0;17 / 18;114515;2022-10-12 17:33:29:878
9.9655;0.5303;-4.1752;9.104;-1.6838;-3.2329;4.8435;1.351;-2.6153;-0.1796;0.1461;2.2982;441.0;-36.09;-22.07;-6.66;230.32;-8.49;-113.66;5.0;981.89;61.044;35.956722;-83.92426;791.53;NaN;;4.72;12.226105;245.0;17 / 18;115015;2022-10-12 17:33:30:378
7.4504;-3.5934;-2.8262;9.4278;-0.235;-2.6893;6.5242;-0.787;0.3039;0.4905;0.7688;-3.4347;430.0;-41.47;0.43;-9.15;267.45;1.37;-105.92;5.0;981.98;66.471;35.95672;-83.92427;787.37;NaN;;4.28;12.226105;249.4;16 / 18;115514;2022-10-12 17:33:30:877
10.5245;-0.1472;-2.7556;8.6946;-2.4971;-3.7866;3.3391;0.6239;-1.2551;-1.1795;0.2226;2.5569;448.0;-37.52;-18.84;-6.69;219.14;14.75;-113.53;5.0;981.9;62.201;35.95672;-83.92427;787.37;NaN;;4.28;12.226105;249.4;16 / 18;116014;2022-10-12 17:33:31:377
8.7912;-2.6384;-2.5259;9.287;1.4249;-2.8091;2.4134;-4.9751;-0.3508;0.3112;0.3949;-2.8007;413.0;-40.63;6.47;-7.16;268.79;10.27;-111.34;5.0;981.94;69.279;35.956715;-83.924286;783.95;NaN;;4.61;12.226105;254.2;16 / 18;116514;2022-10-12 17:33:31:877
9.9763;0.8246;-3.2285;9.3151;0.2742;-3.0537;2.2416;-0.7276;0.6871;0.3709;-0.3147;1.7574;495.0;-38.61;-15.06;-10.18;257.4;-16.25;-111.14;5.0;981.89;62.366;35.956715;-83.924286;783.95;NaN;;4.61;12.226105;254.2;16 / 18;117015;2022-10-12 17:33:32:378
9.3108;-1.2915;-1.081;9.5891;0.5604;-1.9764;1.7273;-1.5666;1.2106;-0.9857;0.8781;-1.4684;420.0;-41.14;-0.45;-10.69;251.53;12.85;-108.64;5.0;981.94;70.421;35.95671;-83.9243;782.3;NaN;;4.46;12.226105;246.7;16 / 18;117514;2022-10-12 17:33:32:877
7.6469;0.7146;-0.8608;9.3431;-0.0745;-2.9784;1.8581;0.8597;-0.673;-0.3056;-0.4191;1.2695;471.0;-39.39;-12.58;-12.52;241.33;0.44;-107.68;5.0;981.91;65.087;35.95671;-83.9243;782.3;NaN;;4.46;12.226105;246.7;16 / 18;118015;2022-10-12 17:33:33:378
7.3546;-1.5658;-3.0117;9.4238;-0.2957;-2.6972;4.6679;-0.4583;0.3527;0.5108;0.3176;-2.3572;396.0;-42.09;-3.09;-8.16;240.1;15.52;-110.29;5.0;981.98;73.265;35.956707;-83.92431;777.68;NaN;;4.64;12.226105;248.7;14 / 18;118514;2022-10-12 17:33:33:877
9.1621;1.209;-2.4586;9.1368;-1.0428;-3.4061;2.9918;0.1687;-1.5265;-0.6548;2.0E-4;1.8367;439.0;-37.78;-16.97;-9.32;233.89;-3.85;-107.79;5.0;981.95;67.782;35.956707;-83.92431;777.68;NaN;;4.64;12.226105;248.7;14 / 18;119015;2022-10-12 17:33:34:378
8.6991;-1.5395;-2.2349;9.4817;0.847;-2.3558;6.0943;-0.4944;-1.1787;0.2317;1.0192;-2.2819;466.0;-40.61;-6.43;-7.54;261.28;-4.95;-103.95;5.0;981.88;72.378;35.956703;-83.92433;776.09;NaN;;4.5;12.226105;251.9;14 / 18;119515;2022-10-12 17:33:34:878
7.4922;1.5203;-1.4665;9.3565;-0.3704;-2.9135;0.3273;1.805;-0.36;0.532;-0.1956;1.4048;540.0;-29.57;-20.36;-8.48;227.28;-9.54;-107.51;5.0;981.83;64.95;35.956703;-83.92433;776.09;NaN;;4.5;12.226105;251.9;14 / 18;120014;2022-10-12 17:33:35:377
10.0182;-1.8194;-0.7038;9.5186;-0.4185;-2.3221;7.9539;1.7838;-2.1526;0.0718;0.7804;-2.6641;396.0;-34.11;-5.4;-8.94;232.18;16.63;-104.88;5.0;981.89;66.758;35.9567;-83.92434;774.62;NaN;;4.39;12.226105;252.0;13 / 18;120515;2022-10-12 17:33:35:878
9.5572;0.4621;-3.6751;8.7861;-2.4727;-3.5862;4.1675;1.076;-0.7019;-0.0977;-0.1278;2.0178;440.0;-35.89;-14.42;-8.72;241.54;-5.52;-108.91;5.0;981.8;63.455;35.9567;-83.92434;774.62;NaN;;4.39;12.226105;252.0;13 / 18;121016;2022-10-12 17:33:36:379
13.5123;-3.4558;-2.636;8.9602;-2.1531;-3.3539;4.976;2.5929;0.6007;0.9267;0.1481;-2.8047;375.0;-38.4;6.23;-4.87;265.0;12.68;-110.52;5.0;981.87;65.359;35.956696;-83.924355;779.3;NaN;;4.75;12.226105;233.3;13 / 18;121516;2022-10-12 17:33:36:879
9.204;0.0957;-4.3729;9.278;-0.8055;-3.0726;0.861;-1.7863;1.3437;1.3043;-0.2263;2.1351;471.0;-35.01;-16.33;-3.81;218.55;4.71;-108.32;5.0;981.93;69.438;35.956696;-83.924355;779.3;NaN;;4.75;12.226105;233.3;13 / 18;122015;2022-10-12 17:33:37:378
11.1733;-3.8498;-1.8386;9.4523;0.7543;-2.5012;4.9881;-5.0903;0.5189;-0.9432;0.3439;-2.5343;375.0;-38.34;-0.97;-4.56;235.32;18.19;-108.66;5.0;981.99;71.251;35.956688;-83.92436;783.61;NaN;;4.46;12.504972;231.9;14 / 18;122514;2022-10-12 17:33:37:877
11.5158;-0.1184;-4.8254;9.3582;0.0529;-2.9312;-1.6541;-3.93;0.5663;0.8871;-0.0035;2.7383;444.0;-35.72;-19.18;-5.89;252.87;-22.16;-111.71;5.0;981.92;64.576;35.956688;-83.92436;783.61;NaN;;4.46;12.504972;231.9;14 / 18;123015;2022-10-12 17:33:38:378
9.9464;-3.3302;-2.1428;9.4417;-0.6182;-2.5775;6.2692;-1.0302;-0.4476;0.1238;0.7465;-3.1395;416.0;-41.61;0.77;-6.45;236.06;23.35;-110.77;5.0;981.94;66.651;35.95668;-83.92437;787.33;NaN;;4.68;13.085061;217.9;15 / 18;123515;2022-10-12 17:33:38:878
8.9049;-1.427;-6.3682;9.2063;0.9637;-3.2383;0.5165;-5.7462;0.7423;1.202;-0.2711;1.3036;463.0;-37.22;-21.43;-7.26;226.85;-5.64;-109.38;5.0;981.86;63.741;35.95668;-83.92437;787.33;NaN;;4.68;13.085061;217.9;15 / 18;124014;2022-10-12 17:33:39:377
12.4421;-2.211;-2.2074;9.2702;-0.7365;-3.113;4.4368;1.2636;-0.1384;0.3873;0.4975;-2.1832;486.0;-42.51;-9.79;-5.61;227.36;17.22;-113.02;5.0;981.92;64.729;35.95667;-83.92438;786.97;NaN;;4.28;13.761396;202.1;15 / 18;124514;2022-10-12 17:33:39:877
13.2012;2.3892;-4.7186;8.9332;-1.4141;-3.7905;3.4954;3.237;-0.8072;0.1684;0.1274;2.9224;526.0;-36.58;-21.9;-5.34;226.35;-6.95;-112.55;5.0;982.0;67.448;35.95667;-83.92438;786.97;NaN;;4.28;13.761396;202.1;15 / 18;125014;2022-10-12 17:33:40:377
14.9417;0.8572;-4.7462;8.7436;-2.9548;-3.3149;2.1527;3.3757;-1.7031;0.5662;-0.4773;-1.0529;427.0;-40.56;-11.87;-1.82;215.76;17.54;-110.76;5.0;982.01;71.471;35.956657;-83.92438;787.26;NaN;;4.39;14.597087;193.7;15 / 18;125515;2022-10-12 17:33:40:878
4.902;-0.9434;-2.3258;7.95;4.4898;-3.5791;-2.3938;-6.0327;1.5359;-0.9694;-0.1253;-0.7287;392.0;-31.33;-25.65;4.86;215.29;-24.29;-113.78;5.0;982.06;71.955;35.956657;-83.92438;787.26;NaN;;4.39;14.597087;193.7;15 / 18;126014;2022-10-12 17:33:41:377
16.3672;2.3557;-0.4872;7.0695;-5.8207;-3.5088;1.826;9.2449;-7.4342;-2.3832;-0.1129;1.6329;523.0;-32.72;-20.25;-1.71;201.78;28.97;-109.46;5.0;982.03;69.136;35.956642;-83.92438;789.58;NaN;;4.5;15.233229;194.3;15 / 18;126515;2022-10-12 17:33:41:878
4.6863;-3.9168;-2.7748;6.0882;5.4794;-5.3927;0.0498;-9.4358;2.0866;0.2282;0.0164;-0.7018;384.0;-34.05;-10.67;4.2;284.62;-24.96;-119.03;5.0;982.09;66.432;35.956642;-83.92438;789.58;NaN;;4.5;15.233229;194.3;15 / 18;127015;2022-10-12 17:33:42:378
12.1705;2.9016;-3.0464;8.6321;-2.3509;-4.0162;0.671;3.5838;-0.2916;-0.9044;-0.2488;3.2979;487.0;-23.7;-27.79;8.03;184.94;13.87;-114.95;5.0;982.02;67.646;35.95663;-83.92438;789.8;NaN;;4.57;15.07922;181.2;15 / 18;127516;2022-10-12 17:33:42:879
3.7588;-2.9973;-3.2524;6.5281;5.5101;-4.816;1.2291;-8.8239;0.5343;0.2818;-0.4772;-1.5157;421.0;-33.19;-15.96;2.57;278.89;-34.19;-126.42;5.0;982.06;69.979;35.95663;-83.92438;789.8;NaN;;4.57;15.07922;181.2;15 / 18;128014;2022-10-12 17:33:43:377
11.7897;3.9586;-2.5977;7.3259;-3.3569;-5.5887;3.6574;5.851;2.8173;-1.2853;-0.5077;3.0664;485.0;-25.03;-28.86;5.72;192.76;9.06;-120.14;5.0;982.03;66.491;35.956623;-83.92438;788.53;NaN;;4.36;14.944472;183.6;15 / 18;128516;2022-10-12 17:33:43:879
4.398;-2.4622;-4.1824;7.4027;4.8152;-4.2643;0.2601;-8.7033;0.3145;1.2234;-0.4191;-1.6927;444.0;-37.63;-8.06;-0.56;272.15;-13.34;-108.09;5.0;981.98;64.94;35.956623;-83.92438;788.53;NaN;;4.36;14.944472;183.6;15 / 18;129016;2022-10-12 17:33:44:379
12.7941;3.7732;-4.2257;8.2556;-2.916;-4.4173;1.2645;4.7737;1.2738;-0.3213;0.0173;1.0912;588.0;-31.71;-24.22;3.21;202.29;6.85;-115.83;5.0;981.98;63.486;35.95661;-83.924385;791.69;NaN;;4.46;15.249294;199.1;15 / 18;129515;2022-10-12 17:33:44:878
6.0344;-1.884;-3.3733;8.7339;2.9861;-3.3126;-1.167;-4.7992;0.9766;0.8908;-0.2824;-1.6307;484.0;-38.98;-12.6;-1.61;264.56;-17.73;-110.77;5.0;982.0;67.694;35.95661;-83.924385;791.69;NaN;;4.46;15.249294;199.1;15 / 18;130014;2022-10-12 17:33:45:377
8.426;1.1492;-3.256;7.9273;-3.5876;-4.523;0.4709;4.1096;1.2275;0.044;0.0603;1.4274;643.0;-36.58;-21.84;-1.37;211.91;10.23;-115.99;5.0;981.99;60.475;35.9566;-83.924385;796.4;NaN;;4.75;14.989316;224.4;15 / 18;130514;2022-10-12 17:33:45:877
5.8152;-2.9506;-4.3765;7.9985;3.5085;-4.4593;-2.5486;-7.2665;2.4486;1.9849;-0.5487;-2.6405;417.0;-41.14;-6.51;-1.22;286.81;-17.28;-110.49;5.0;981.97;71.392;35.9566;-83.924385;796.4;NaN;;4.75;14.989316;224.4;15 / 18;131014;2022-10-12 17:33:46:377
9.5489;2.1643;-1.9175;8.5185;-1.8558;-4.4901;0.6413;2.9734;3.0985;0.1903;-0.4247;1.113;653.0;-35.46;-21.37;0.21;211.65;10.91;-117.79;5.0;981.97;62.951;35.956593;-83.9244;797.08;NaN;;4.46;15.733645;215.8;15 / 18;131514;2022-10-12 17:33:46:877
6.9344;-2.1165;-3.3254;8.1616;4.0373;-3.6413;-0.7942;-6.3647;0.619;2.8221;0.2921;-3.274;586.0;-39.26;-9.98;-6.21;269.06;-14.73;-100.77;5.0;982.01;64.358;35.956593;-83.9244;797.08;NaN;;4.46;15.733645;215.8;15 / 18;132014;2022-10-12 17:33:47:377
9.4711;1.9932;-2.636;9.1372;-1.6998;-3.1292;-0.8746;3.6343;0.1451;0.0138;-0.1962;1.6804;718.0;-33.84;-24.81;-4.74;211.77;-1.28;-107.61;5.0;981.99;64.329;35.956585;-83.9244;796.76;NaN;;4.57;15.320133;200.8;15 / 18;132515;2022-10-12 17:33:47:878
8.2729;-1.4306;-1.9499;9.043;3.6509;-1.0326;-1.304;-5.775;-1.0134;-0.173;0.1519;-1.0375;529.0;-40.54;-6.32;-8.66;269.74;-8.63;-99.0;5.0;982.05;70.33;35.956585;-83.9244;796.76;NaN;;4.57;15.320133;200.8;15 / 18;133014;2022-10-12 17:33:48:377
6.9177;0.1172;-3.2584;9.4898;-1.0221;-2.2516;3.5573;1.4025;-1.4111;0.1384;-0.0957;0.6156;1161.0;-34.91;-21.02;-12.6;220.67;5.98;-103.35;5.0;982.01;69.093;35.956577;-83.924416;800.19;NaN;;4.93;15.337266;224.4;16 / 18;133515;2022-10-12 17:33:48:878
9.7977;-0.0455;-2.2134;9.5458;-0.9807;-2.0213;5.1594;2.6095;1.5164;1.1712;0.6653;-2.1416;912.0;-41.08;-3.96;-9.92;246.93;5.74;-101.96;5.0;981.99;66.761;35.956577;-83.924416;800.19;NaN;;4.93;15.337266;224.4;16 / 18;134016;2022-10-12 17:33:49:379
8.5289;-0.8656;-2.12;9.3315;-0.695;-2.9344;2.5226;0.0448;-0.5541;-0.9199;-0.0184;1.4945;827.0;-38.42;-14.61;-10.31;236.85;-2.72;-106.72;5.0;981.99;68.806;35.95657;-83.92442;800.19;NaN;;4.21;15.033028;229.9;16 / 18;134515;2022-10-12 17:33:49:878
9.7008;-2.0961;-2.2038;9.1474;-1.5842;-3.1601;6.0514;4.2959;-1.0147;-1.0434;0.773;-2.497;761.0;-41.25;-2.66;-8.68;236.07;20.2;-109.87;5.0;981.94;66.072;35.95657;-83.92442;800.19;NaN;;4.21;15.033028;229.9;16 / 18;135015;2022-10-12 17:33:50:378
15.6311;-1.1874;-4.5547;9.1919;-0.527;-3.3766;0.9582;-1.2516;0.4241;0.6451;-0.4642;2.5416;736.0;-37.11;-18.86;-8.66;250.9;-19.35;-111.76;5.0;981.91;49.305;35.95657;-83.92443;801.48;NaN;;4.61;14.783112;239.1;16 / 18;135514;2022-10-12 17:33:50:877
13.0741;-2.5101;-1.5826;8.8063;-2.8942;-3.2006;5.8685;5.2282;0.2814;-0.1071;0.4072;-2.4318;781.0;-41.85;2.14;-6.98;246.65;17.17;-109.97;5.0;981.98;47.88;35.95657;-83.92443;801.48;NaN;;4.61;14.783112;239.1;16 / 18;136016;2022-10-12 17:33:51:379
8.3387;2.1308;-2.8549;8.5582;4.1071;-2.4615;0.0665;-4.7867;-0.4168;-0.7541;0.8743;1.7615;813.0;-34.76;-17.83;-9.64;274.81;-33.99;-109.0;5.0;981.95;68.555;35.95656;-83.92444;801.31;NaN;;4.43;14.707178;235.3;16 / 18;136516;2022-10-12 17:33:51:879
14.2017;1.5263;-3.2788;9.3652;2.3227;-1.7519;4.7751;-0.1577;-1.4774;0.8838;0.0341;-0.6989;1054.0;-32.74;-22.03;-10.59;220.93;-3.67;-101.51;5.0;981.95;63.53;35.95656;-83.92444;801.31;NaN;;4.43;14.707178;235.3;16 / 18;137014;2022-10-12 17:33:52:377
11.1673;2.0506;-0.5853;9.2664;2.1547;-2.3794;3.1915;-2.0629;-1.9972;-3.2783;0.4766;1.8322;964.0;-22.2;-30.0;-12.47;214.11;-12.69;-104.4;5.0;981.92;66.086;35.956554;-83.924446;801.36;NaN;;4.61;14.396974;211.4;16 / 18;137515;2022-10-12 17:33:52:878
15.7591;1.64;-2.9698;9.3783;0.2951;-2.8513;5.7544;4.5001;-1.4226;0.4196;-0.6909;0.6396;909.0;-38.18;-9.99;-13.56;241.96;7.02;-109.35;5.0;981.96;62.011;35.956554;-83.924446;801.36;NaN;;4.61;14.396974;211.4;16 / 18;138015;2022-10-12 17:33:53:378
8.2418;-0.8198;-5.0169;8.6538;2.2172;-4.0455;-1.048;-4.2422;-0.6653;-1.5219;-0.2738;3.3574;801.0;-38.62;-14.85;-10.63;268.01;-24.14;-113.73;5.0;981.95;63.375;35.95655;-83.92446;800.87;NaN;;4.54;14.021127;238.1;16 / 18;138515;2022-10-12 17:33:53:878
13.1243;1.8661;-3.1711;8.5948;-2.7447;-3.8427;6.694;3.3321;1.2462;-0.0444;1.0155;-1.7918;809.0;-41.36;2.93;-6.23;252.81;18.66;-118.77;5.0;981.91;63.175;35.95655;-83.92446;800.87;NaN;;4.54;14.021127;238.1;16 / 18;139015;2022-10-12 17:33:54:378
11.2869;-4.2257;-4.2293;8.9494;2.1014;-3.4152;-2.8934;-5.5039;-0.5524;-1.0156;0.0722;0.9906;798.0;-39.41;-7.56;-9.6;268.1;-12.37;-110.89;5.0;981.91;63.809;35.956547;-83.92448;800.64;NaN;;4.21;13.429711;251.1;16 / 18;139516;2022-10-12 17:33:54:879
14.5047;1.6316;-1.319;7.9165;-3.7873;-4.3768;6.8185;5.3971;2.1834;0.1506;1.2597;-1.6174;827.0;-39.39;7.48;-5.79;256.92;22.72;-118.94;5.0;981.92;66.358;35.956547;-83.92448;800.64;NaN;;4.21;13.429711;251.1;16 / 18;140015;2022-10-12 17:33:55:378
7.3522;-3.0272;-3.128;9.2788;1.4069;-2.8451;-0.1082;-6.5704;-0.5192;-0.2941;-0.1455;0.4992;808.0;-37.07;-3.64;-9.28;294.85;-24.36;-109.14;5.0;981.93;63.98;35.956547;-83.924484;800.72;NaN;;4.03;12.635073;256.4;15 / 18;140514;2022-10-12 17:33:55:877
14.732;0.0239;5.0719;8.0165;-2.9647;-4.808;4.0679;4.8203;3.3821;-2.0629;2.1237;-0.533;930.0;-37.93;1.89;-9.43;256.5;17.6;-120.95;5.0;981.93;60.457;35.956547;-83.924484;800.72;NaN;;4.03;12.635073;256.4;15 / 18;141015;2022-10-12 17:33:56:378
14.7069;-3.7181;-3.4857;9.0332;2.262;-3.0749;-2.3602;-7.7052;0.5568;-0.1738;-0.1571;3.4727;963.0;-37.56;-5.89;-8.72;289.51;-26.35;-114.04;5.0;981.94;64.604;35.95655;-83.92451;800.9;NaN;;4.14;12.226105;258.5;16 / 18;141515;2022-10-12 17:33:56:878
17.9737;-1.5179;0.9601;7.7257;-5.0655;-3.2901;3.5089;7.1404;2.3223;0.1659;0.2001;-0.5362;930.0;-39.84;7.24;-11.59;248.38;31.1;-113.07;5.0;981.97;65.968;35.95655;-83.92451;800.9;NaN;;4.14;12.226105;258.5;16 / 18;142015;2022-10-12 17:33:57:378
9.2315;-7.034;-1.9606;9.0373;2.5718;-2.8078;-2.3392;-6.7735;0.456;-1.0382;0.0421;3.2015;721.0;-37.54;-3.66;-13.69;292.62;-24.75;-106.17;5.0;981.95;70.266;35.956547;-83.92452;799.57;NaN;;4.36;12.226105;239.3;16 / 18;142514;2022-10-12 17:33:57:877
14.7284;2.9602;-4.0831;9.3411;-2.0495;-2.171;6.7318;3.9071;-1.2676;0.8204;0.0447;-0.5619;754.0;-40.73;-2.94;-11.49;230.08;27.8;-107.86;5.0;981.97;63.098;35.956547;-83.92452;799.57;NaN;;4.36;12.226105;239.3;16 / 18;143014;2022-10-12 17:33:58:377
10.7889;-0.431;-2.3964;8.5194;3.4738;-3.3946;-1.2387;-7.793;0.9691;-1.0786;-0.4735;2.0829;653.0;-36.99;-15.81;-11.96;260.05;-20.75;-111.73;5.0;981.96;68.214;35.956547;-83.92454;799.23;NaN;;3.82;12.226105;248.8;16 / 18;143515;2022-10-12 17:33:58:878
14.7105;4.0926;-3.0284;9.2126;-3.0502;-1.4121;6.0288;6.6201;-0.9378;0.496;0.5086;0.5077;750.0;-39.96;-1.86;-12.36;213.77;33.11;-104.57;5.0;982.01;71.49;35.956547;-83.92454;799.23;NaN;;3.82;12.226105;248.8;16 / 18;144015;2022-10-12 17:33:59:378
10.0588;-1.7692;-3.2333;9.4426;1.1225;-2.3973;-1.8666;-4.0333;1.174;-0.3169;-0.045;1.94;686.0;-38.78;-8.14;-15.17;272.14;-14.57;-103.76;5.0;981.96;64.144;35.956547;-83.92455;800.15;NaN;;3.74;12.226105;249.0;16 / 18;144515;2022-10-12 17:33:59:878
15.8692;0.012;-2.569;8.7919;-4.0205;-1.6459;4.9802;4.7742;-1.0523;-0.2201;-0.5965;-1.5047;701.0;-41.32;-4.69;-14.27;224.8;27.4;-101.02;5.0;981.99;67.524;35.956547;-83.92455;800.15;NaN;;3.74;12.226105;249.0;16 / 18;145015;2022-10-12 17:34:00:378
6.288;-3.3589;-2.3079;8.3683;4.4887;-2.448;-1.3832;-8.0924;0.9003;-0.6489;0.1334;-0.524;676.0;-37.82;-13.22;-14.31;277.88;-27.24;-106.31;5.0;981.93;59.508;35.956547;-83.92456;799.7;NaN;;4.36;12.226105;253.5;16 / 18;145515;2022-10-12 17:34:00:878
14.6554;5.8857;-2.7138;8.5152;-4.0515;-2.6919;3.3322;8.5575;2.093;0.8237;0.0128;-1.0911;767.0;-40.44;-5.12;-12.11;231.32;24.4;-107.54;5.0;981.95;52.555;35.956547;-83.92456;799.7;NaN;;4.36;12.226105;253.5;16 / 18;146015;2022-10-12 17:34:01:378
5.4574;-2.5379;-2.3163;7.8836;5.1627;-2.7141;-1.8885;-8.7604;0.4908;-0.4892;-0.1758;-1.3733;681.0;-37.35;-9.75;-12.71;289.08;-37.47;-114.2;5.0;981.93;61.296;35.956547;-83.924576;798.73;NaN;;4.39;12.226105;247.5;16 / 18;146514;2022-10-12 17:34:01:877
14.1574;1.7548;-0.1675;8.2739;-3.0277;-4.3066;3.8376;8.7271;2.7721;-1.4001;0.5122;-0.3186;719.0;-36.07;-15.67;-10.14;227.14;17.98;-117.5;5.0;981.98;61.357;35.956547;-83.924576;798.73;NaN;;4.39;12.226105;247.5;16 / 18;147014;2022-10-12 17:34:02:377
7.9065;-1.2293;-3.6018;8.0582;4.2624;-3.6148;-1.913;-6.1254;0.5874;-0.2705;0.1097;3.0233;684.0;-37.16;-16.07;-8.81;274.88;-32.84;-117.37;5.0;981.93;64.98;35.956543;-83.92459;798.92;NaN;;4.28;12.226105;252.2;16 / 18;147514;2022-10-12 17:34:02:877
17.1538;2.6468;-3.3589;7.9834;-3.6328;-4.3861;1.3335;6.6048;1.8805;-0.9876;-0.0608;0.9165;693.0;-41.79;-7.03;-6.39;233.19;21.74;-118.78;5.0;981.96;65.252;35.956543;-83.92459;798.92;NaN;;4.28;12.226105;252.2;16 / 18;148014;2022-10-12 17:34:03:377
8.3734;-2.2804;-3.1484;7.4988;5.1772;-3.6242;-3.2506;-7.6646;0.4912;-0.4172;-0.5343;2.3165;666.0;-38.74;-8.81;-9.28;289.27;-32.82;-117.14;5.0;981.91;56.037;35.956543;-83.92461;798.36;NaN;;4.32;12.226105;242.5;15 / 18;148515;2022-10-12 17:34:03:878
16.0549;1.7058;-2.1763;9.1867;-0.8345;-3.3285;6.1433;3.3695;0.852;0.2358;-0.0706;0.2439;668.0;-39.3;-18.56;-9.0;223.36;9.21;-111.54;5.0;981.94;52.728;35.956543;-83.92461;798.36;NaN;;4.32;12.226105;242.5;15 / 18;149014;2022-10-12 17:34:04:377
6.4606;-2.5271;-2.4909;8.8111;3.2678;-2.8029;-3.7587;-5.8286;0.1183;-0.8606;-0.0076;2.4313;561.0;-39.02;-18.21;-11.59;256.0;-19.46;-107.65;5.0;981.95;58.888;35.956543;-83.924614;797.7;NaN;;4.43;12.226105;252.9;15 / 18;149514;2022-10-12 17:34:04:877
11.6904;2.7532;-2.3103;8.9498;-2.9668;-2.6962;2.9352;5.3688;0.3187;0.0054;0.0113;0.4357;548.0;-43.44;-6.51;-10.95;228.43;21.91;-107.22;5.0;981.96;60.277;35.956543;-83.924614;797.7;NaN;;4.43;12.226105;252.9;15 / 18;150014;2022-10-12 17:34:05:377
8.5624;-2.5546;-3.3733;8.4457;4.4561;-2.2322;-3.2674;-6.972;-0.1015;-0.2437;-0.5328;0.6768;489.0;-39.84;-11.23;-13.82;280.11;-22.14;-100.16;5.0;981.96;64.108;35.95654;-83.92463;797.67;NaN;;4.39;12.226105;239.9;15 / 18;150515;2022-10-12 17:34:05:878
11.2092;3.6197;-2.1559;7.8357;-3.4815;-4.7594;1.3116;7.5742;1.8084;-1.2293;0.7886;-0.5178;490.0;-40.93;-11.87;-7.13;226.63;22.87;-117.76;5.0;981.98;55.252;35.95654;-83.92463;797.67;NaN;;4.39;12.226105;239.9;15 / 18;151014;2022-10-12 17:34:06:377
4.5308;-3.274;-3.402;6.901;6.0352;-3.4818;2.525;-8.8035;0.5411;1.6184;-0.2744;-2.7871;453.0;-37.12;-12.84;-7.89;288.28;-37.98;-116.77;5.0;981.96;64.308;35.956535;-83.924644;797.81;NaN;;4.28;12.226105;237.0;15 / 18;151515;2022-10-12 17:34:06:878
14.2591;3.4487;-2.3976;7.5266;-3.9424;-4.8967;4.1709;6.4192;1.5676;-1.503;0.0817;1.6385;550.0;-32.96;-21.67;-2.1;212.55;23.7;-123.05;5.0;981.99;58.066;35.956535;-83.924644;797.81;NaN;;4.28;12.226105;237.0;15 / 18;152015;2022-10-12 17:34:07:378
5.2944;-3.0691;-3.1962;7.798;5.6855;-1.7427;-2.2574;-8.6912;-1.7598;-0.4111;0.9599;-2.2704;451.0;-40.84;-4.73;-7.11;309.98;-28.49;-103.65;5.0;981.96;64.318;35.95653;-83.92466;796.5;NaN;;3.56;12.226105;234.8;16 / 18;152515;2022-10-12 17:34:07:878
13.1267;4.1536;-0.9123;7.3733;-4.9207;-4.1942;4.5448;5.6258;1.9016;-0.9084;0.773;1.3603;461.0;-30.97;-21.39;-11.23;220.68;30.12;-119.63;5.0;981.98;54.917;35.95653;-83.92466;796.5;NaN;;3.56;12.226105;234.8;16 / 18;153016;2022-10-12 17:34:08:379
6.0751;-4.532;-2.5869;7.1498;5.1768;-4.2721;-2.4219;-9.3066;1.0819;-0.6788;0.2973;0.8305;465.0;-31.03;-11.36;-9.81;278.34;-29.35;-110.34;5.0;981.97;65.137;35.956528;-83.92467;796.57;NaN;;4.21;12.226105;240.0;16 / 18;153514;2022-10-12 17:34:08:877
12.2207;2.6539;-2.059;6.5182;-5.7594;-4.5291;6.8597;4.6101;1.4537;-2.5988;0.8516;2.3392;457.0;-27.82;-12.26;-5.27;222.99;35.97;-124.79;5.0;981.98;51.527;35.956528;-83.92467;796.57;NaN;;4.21;12.226105;240.0;16 / 18;154015;2022-10-12 17:34:09:378
4.7895;-4.8254;-3.7038;7.9108;3.7335;-4.4329;-2.4436;-9.4732;0.6255;-0.7896;-0.0276;0.038;426.0;-29.78;5.4;-7.91;302.28;-12.28;-107.33;5.0;981.97;62.801;35.956528;-83.92468;797.33;NaN;;4.43;12.226105;246.7;15 / 18;154515;2022-10-12 17:34:09:878
17.0004;0.5112;-1.0857;7.0612;-5.1215;-4.4812;6.3394;7.4607;2.913;-1.0284;-0.1448;2.3959;421.0;-32.87;-8.1;-5.91;226.66;31.48;-119.53;5.0;981.96;49.035;35.956528;-83.92468;797.33;NaN;;4.43;12.226105;246.7;15 / 18;155014;2022-10-12 17:34:10:377
6.1481;-5.9399;-2.3282;8.1229;4.0502;-3.7127;-1.4389;-8.8949;0.1121;-0.4807;-0.0305;-0.1358;446.0;-34.56;2.53;-8.01;303.61;-24.39;-114.56;5.0;981.96;64.91;35.956524;-83.9247;797.3;NaN;;4.36;12.226105;252.4;15 / 18;155515;2022-10-12 17:34:10:878
12.69;2.4395;-0.9805;6.9874;-5.0924;-4.6276;5.7556;7.3297;3.6425;-0.4973;-0.751;2.2091;446.0;-37.89;0.54;-7.13;241.62;29.27;-119.93;5.0;981.94;50.854;35.956524;-83.9247;797.3;NaN;;4.36;12.226105;252.4;15 / 18;156015;2022-10-12 17:34:11:378
5.219;-5.4945;-2.1787;8.2269;4.2096;-3.2815;-0.1905;-9.3183;0.1242;-0.8782;0.0363;-0.4403;392.0;-37.63;9.43;-7.71;310.99;-10.19;-104.53;5.0;981.96;60.266;35.95652;-83.924706;797.05;NaN;;4.36;12.226105;252.0;15 / 18;156514;2022-10-12 17:34:11:877
13.5039;1.7189;-1.3657;6.9451;-5.4986;-4.2073;5.8395;7.6105;1.5305;-1.0196;1.091;-0.2172;378.0;-40.33;-5.42;-9.54;231.05;32.53;-115.64;5.0;981.96;51.734;35.95652;-83.924706;797.05;NaN;;4.36;12.226105;252.0;15 / 18;157014;2022-10-12 17:34:12:377
10.9723;-5.3557;-3.9431;8.5108;3.3747;-3.5141;-1.8401;-8.2889;1.2292;-0.1584;-0.0973;0.1256;354.0;-39.02;-1.33;-9.04;293.9;-20.13;-112.44;5.0;981.93;55.317;35.956516;-83.92472;795.34;NaN;;4.64;12.226105;233.1;15 / 18;157514;2022-10-12 17:34:12:877
14.5837;0.431;-2.8765;7.0594;-5.3172;-4.25;2.5722;4.3532;1.9244;-0.7795;0.3897;1.1298;342.0;-43.46;-0.6;-4.5;232.43;32.83;-121.05;5.0;981.94;50.03;35.956516;-83.92472;795.34;NaN;;4.64;12.226105;233.1;15 / 18;158015;2022-10-12 17:34:13:378
5.6572;-6.5037;-1.628;8.3325;4.122;-3.1224;-1.0914;-9.11;0.0846;0.782;-0.8876;-2.2725;356.0;-41.96;7.05;-7.52;310.48;-19.65;-110.39;5.0;981.96;55.066;35.956512;-83.92473;793.78;NaN;;4.28;12.226105;244.0;14 / 18;158515;2022-10-12 17:34:13:878
10.084;2.5041;-0.7002;7.534;-4.6225;-4.2475;4.2361;5.2484;2.8341;-0.3533;-1.0E-4;0.7189;364.0;-42.77;-10.82;-5.76;225.41;28.12;-119.41;5.0;981.94;50.309;35.956512;-83.92473;793.78;NaN;;4.28;12.226105;244.0;14 / 18;159015;2022-10-12 17:34:14:378
5.4658;-6.7083;0.5746;8.6694;3.1097;-3.3676;-5.7575;-7.2998;-4.0816;-3.494;0.8882;2.5498;364.0;-42.47;-1.35;-6.32;297.3;-16.85;-109.0;5.0;981.92;59.502;35.95651;-83.92474;794.04;NaN;;4.43;12.226105;245.0;14 / 18;159516;2022-10-12 17:34:14:879
14.0641;1.9741;-1.4797;7.2257;-4.8311;-4.5408;1.8859;4.0198;2.148;0.0188;-0.459;1.3685;355.0;-42.92;1.54;-6.54;243.5;29.51;-122.15;5.0;981.93;51.096;35.95651;-83.92474;794.04;NaN;;4.43;12.226105;245.0;14 / 18;160014;2022-10-12 17:34:15:377
4.902;-3.973;-2.5953;8.2766;4.2697;-3.0722;-1.1284;-8.9648;-0.3993;-0.4199;-0.4609;-0.5592;370.0;-41.23;6.81;-6.69;314.15;-12.58;-102.46;5.0;981.9;56.833;35.95651;-83.92476;800.39;NaN;;4.39;12.226105;252.3;14 / 18;160515;2022-10-12 17:34:15:878
14.7081;2.7592;-2.0746;6.8764;-5.4464;-4.3843;5.3458;8.0271;1.9723;-1.1762;0.2276;2.4555;311.0;-39.81;-13.86;-6.07;217.31;31.61;-115.28;5.0;981.92;51.905;35.95651;-83.92476;800.39;NaN;;4.39;12.226105;252.3;14 / 18;161014;2022-10-12 17:34:16:377
4.18;-5.7924;-0.8163;8.3727;4.0;-3.173;-0.8168;-8.9725;-0.5332;-0.0606;0.1906;-0.7172;363.0;-39.9;1.89;-6.36;309.34;-24.07;-110.76;5.0;981.88;60.505;35.956505;-83.92477;801.05;NaN;;4.28;12.226105;240.1;14 / 18;161516;2022-10-12 17:34:16:879
12.3392;2.7138;-1.5239;7.3854;-5.2467;-3.7547;5.2385;9.5111;1.1405;-0.5256;-0.0856;1.7247;341.0;-40.09;-2.57;-2.19;220.42;36.15;-116.45;5.0;981.93;52.501;35.956505;-83.92477;801.05;NaN;;4.28;12.226105;240.1;14 / 18;162014;2022-10-12 17:34:17:377
3.1914;-4.7812;-3.0284;8.0236;4.3599;-3.5753;-0.2614;-9.4397;1.2556;0.8785;-0.7893;-0.734;328.0;-40.67;0.86;-1.12;319.16;-14.89;-102.26;5.0;981.9;59.144;35.956497;-83.92478;799.12;NaN;;4.46;12.226105;246.0;14 / 18;162515;2022-10-12 17:34:17:878
14.5274;4.3238;0.2261;5.8876;-6.9121;-3.7053;8.641;9.2918;3.4502;1.1039;0.0074;-0.7471;336.0;-39.82;-13.14;3.21;207.68;32.48;-117.96;5.0;981.89;61.36;35.956497;-83.92478;799.12;NaN;;4.46;12.226105;246.0;14 / 18;163014;2022-10-12 17:34:18:377
5.7864;-6.6485;-1.2867;8.0629;4.4851;-3.3232;1.9608;-10.3667;1.3536;0.6078;-0.512;-2.1074;331.0;-39.26;-2.83;-3.66;305.27;-27.22;-112.4;5.0;981.93;61.814;35.956493;-83.9248;800.24;NaN;;4.39;12.226105;247.4;14 / 18;163515;2022-10-12 17:34:18:878
15.7831;4.6899;-2.2337;9.2318;-1.4807;-2.9585;1.1122;7.8558;0.2622;-0.2248;-0.0436;0.1064;350.0;-40.01;-17.64;-7.88;220.54;8.68;-107.77;5.0;981.92;57.007;35.956493;-83.9248;800.24;NaN;;4.39;12.226105;247.4;14 / 18;164016;2022-10-12 17:34:19:379
7.0986;-3.5862;-2.7544;7.745;4.791;-3.6375;-1.9116;-7.3087;0.9565;-0.4608;-0.327;-0.9811;394.0;-40.12;-15.0;-10.35;276.13;-30.08;-115.99;5.0;981.92;66.676;35.95649;-83.924805;797.97;NaN;;4.46;12.226105;248.1;14 / 18;164514;2022-10-12 17:34:19:877
9.9141;3.9132;-1.5191;8.1093;-4.0746;-3.7159;2.9089;6.0068;2.7231;0.3598;-0.3196;0.9769;429.0;-36.9;-13.22;-10.03;225.51;24.55;-114.62;5.0;981.91;56.848;35.95649;-83.924805;797.97;NaN;;4.46;12.226105;248.1;14 / 18;165016;2022-10-12 17:34:20:379
5.8319;-3.8557;-2.1129;7.9852;4.745;-3.1451;-0.9692;-8.3146;0.165;-0.7855;-0.2158;0.197;460.0;-38.38;-1.24;-12.15;294.13;-19.23;-106.35;5.0;981.94;65.824;35.95648;-83.92483;796.63;NaN;;4.43;12.226105;248.8;14 / 18;165514;2022-10-12 17:34:20:877
13.5206;4.113;-3.1962;7.3276;-5.882;-2.807;5.6804;5.042;-0.6927;0.2602;-0.3072;2.2255;478.0;-37.57;-6.9;-11.21;224.22;36.86;-110.96;5.0;981.95;51.427;35.95648;-83.92483;796.63;NaN;;4.43;12.226105;248.8;14 / 18;166014;2022-10-12 17:34:21:377
3.3111;-4.5392;-2.6276;7.4913;5.3181;-3.4305;-0.1509;-10.0543;1.526;0.7342;-0.4594;-1.0484;401.0;-37.8;7.41;-13.46;311.62;-17.67;-100.17;5.0;981.91;65.957;35.956474;-83.92484;798.19;NaN;;4.36;12.226105;249.6;15 / 18;166514;2022-10-12 17:34:21:877
12.0939;2.9841;-0.5315;6.8672;-5.4591;-4.3829;5.527;7.9662;2.7555;-1.2154;-0.0654;2.7667;471.0;-37.46;-15.83;-8.61;220.59;29.08;-115.82;5.0;981.94;63.928;35.956474;-83.92484;798.19;NaN;;4.36;12.226105;249.6;15 / 18;167014;2022-10-12 17:34:22:377
5.8944;-3.772;-2.5678;8.6343;3.6511;-2.8789;0.5169;-8.292;0.6712;0.929;-0.6092;-1.7408;474.0;-39.81;8.59;-10.71;312.54;-21.86;-108.44;5.0;981.88;62.085;35.956467;-83.92485;799.5;NaN;;4.57;12.226105;245.2;15 / 18;167514;2022-10-12 17:34:22:877
12.1107;3.1292;-2.5343;7.4681;-5.8745;-2.4264;2.6669;7.2282;-0.579;-0.1088;0.3848;2.8365;512.0;-41.23;-12.04;-10.26;222.24;20.19;-107.06;5.0;981.9;60.804;35.956467;-83.92485;799.5;NaN;;4.57;12.226105;245.2;15 / 18;168014;2022-10-12 17:34:23:377
4.6528;-3.2297;-1.1982;8.6707;4.2487;-1.7141;-0.3243;-9.5675;0.3033;0.6086;-0.0871;-1.8348;460.0;-40.93;2.4;-13.72;288.88;-6.53;-96.86;5.0;981.94;63.982;35.95646;-83.924866;800.81;NaN;;4.46;12.226105;241.2;15 / 18;168515;2022-10-12 17:34:23:878
10.7782;4.5858;-0.8668;7.8741;-4.5797;-3.6326;3.9084;8.0531;1.2012;-0.4093;-0.1816;0.248;531.0;-37.93;-14.33;-11.53;225.08;19.72;-109.47;5.0;981.9;57.633;35.95646;-83.924866;800.81;NaN;;4.46;12.226105;241.2;15 / 18;169015;2022-10-12 17:34:24:378
4.04;-3.2501;-3.39;8.2955;4.5153;-2.6395;0.7371;-8.6025;-0.4479;1.125;-0.3118;-1.5144;446.0;-40.18;-3.04;-10.97;300.56;-27.41;-107.65;5.0;981.94;65.816;35.956455;-83.92487;802.19;NaN;;4.57;12.226105;256.5;15 / 18;169515;2022-10-12 17:34:24:878
11.7144;4.3645;-0.7361;7.2686;-5.1107;-4.1494;6.1719;7.6598;1.1751;-0.7252;0.3348;0.4019;483.0;-40.44;-4.56;-7.05;231.56;31.41;-119.72;5.0;981.93;59.682;35.956455;-83.92487;802.19;NaN;;4.57;12.226105;256.5;15 / 18;170015;2022-10-12 17:34:25:378
2.5941;-3.4403;-4.0304;7.3729;4.9311;-4.1826;-3.0824;-9.238;0.461;3.8809;-0.7558;-3.4439;414.0;-41.47;8.74;-7.46;324.57;-24.09;-104.26;5.0;981.89;64.271;35.956448;-83.92489;802.29;NaN;;4.57;12.226105;246.8;15 / 18;170516;2022-10-12 17:34:25:879
10.686;3.2847;-0.8847;8.1722;-4.3532;-3.2304;2.4136;4.8234;1.0286;-0.5677;-0.1799;2.0925;480.0;-41.02;-20.49;-5.06;210.09;26.35;-111.57;5.0;981.94;60.337;35.956448;-83.92489;802.29;NaN;;4.57;12.226105;246.8;15 / 18;171015;2022-10-12 17:34:26:378
4.0986;-4.2437;-3.0428;7.8446;4.8429;-3.3434;0.8847;-9.7087;1.7282;1.3051;-0.6656;-1.7986;418.0;-44.7;3.77;-10.16;305.57;-11.56;-99.69;5.0;981.99;66.468;35.956444;-83.924904;799.53;NaN;;4.61;12.226105;243.8;15 / 18;171514;2022-10-12 17:34:26:877
12.5581;1.2138;-2.6085;8.685;-3.1593;-3.2802;2.9519;3.0915;-0.3254;-1.0383;0.0645;3.2455;483.0;-40.56;-23.31;-6.75;212.25;18.79;-110.69;5.0;981.93;58.37;35.956444;-83.924904;799.53;NaN;;4.61;12.226105;243.8;15 / 18;172014;2022-10-12 17:34:27:377
8.6067;-3.8653;-1.9343;8.6364;3.8345;-2.6228;0.9934;-7.7445;0.699;1.4129;-0.4479;-2.3883;421.0;-44.55;4.63;-10.8;289.55;-2.91;-101.89;5.0;981.91;68.145;35.95644;-83.92491;798.58;NaN;;4.54;12.226105;258.2;15 / 18;172516;2022-10-12 17:34:27:879
10.4324;1.9175;-1.0678;8.0249;-4.0494;-3.9208;3.2179;4.8825;2.0674;-1.9368;0.2885;2.8742;498.0;-36.39;-20.06;-10.95;220.28;14.05;-109.97;5.0;981.93;58.477;35.95644;-83.92491;798.58;NaN;;4.54;12.226105;258.2;15 / 18;173015;2022-10-12 17:34:28:378
11.4784;-4.8422;-2.0363;9.3203;2.2281;-2.0828;4.5815;-7.5516;0.801;3.2989;-0.4961;-4.0114;475.0;-37.59;12.21;-11.23;315.81;-13.13;-102.6;5.0;981.92;65.448;35.956436;-83.92493;799.21;NaN;;4.5;12.226105;257.3;15 / 18;173514;2022-10-12 17:34:28:877
12.3248;-0.419;-3.475;8.2346;-4.0279;-3.4841;4.2365;3.3882;-0.0811;-0.8995;0.5737;3.9391;511.0;-35.61;-20.89;-7.95;223.18;-0.31;-109.48;5.0;981.95;59.718;35.956436;-83.92493;799.21;NaN;;4.5;12.226105;257.3;15 / 18;174014;2022-10-12 17:34:29:377
11.3025;-4.8242;-1.7405;9.5602;1.043;-1.9199;7.5144;-6.8712;0.5394;2.7752;0.0069;-4.046;482.0;-37.99;12.51;-10.71;271.07;21.73;-111.29;5.0;981.97;63.83;35.956432;-83.92494;798.64;NaN;;4.57;12.226105;247.9;15 / 18;174515;2022-10-12 17:34:29:878
13.2443;0.7624;-3.9467;8.445;-3.6295;-3.4175;7.2466;0.906;-0.0089;0.3562;-0.5853;3.4459;519.0;-35.42;-21.96;-8.16;231.48;-8.9;-114.41;5.0;981.96;62.731;35.956432;-83.92494;798.64;NaN;;4.57;12.226105;247.9;15 / 18;175015;2022-10-12 17:34:30:378
11.6354;-5.5101;-1.2748;9.6567;-0.1956;-1.6971;9.2652;-2.8494;1.4213;2.7532;1.0374;-4.0356;456.0;-37.09;15.58;-9.75;313.28;1.14;-99.97;5.0;981.92;64.405;35.956425;-83.92495;796.22;NaN;;4.25;12.226105;241.5;15 / 18;175516;2022-10-12 17:34:30:879
14.8986;-0.0407;-6.4666;9.0864;-1.9824;-3.111;6.1023;-1.7358;-0.6802;-0.8162;-0.5566;3.956;571.0;-34.37;-24.54;-7.03;210.02;11.66;-108.9;5.0;981.96;66.257;35.956425;-83.92495;796.22;NaN;;4.25;12.226105;241.5;15 / 18;176014;2022-10-12 17:34:31:377
16.73;-6.938;-3.0057;9.1426;3.0879;-1.7461;7.6144;-10.0328;-1.1069;0.3302;2.1037;-4.4222;551.0;-37.82;13.28;-5.1;283.96;13.68;-112.76;5.0;981.95;66.688;35.956425;-83.924965;796.52;NaN;;4.79;12.226105;261.4;15 / 18;176514;2022-10-12 17:34:31:877
13.5805;-0.7828;-3.5551;9.2561;-1.0687;-3.0582;7.042;-1.4855;0.0277;-1.0858;0.0552;4.2135;566.0;-34.56;-21.97;-10.58;220.47;6.26;-108.28;5.0;981.96;50.743;35.956425;-83.924965;796.52;NaN;;4.79;12.226105;261.4;15 / 18;177014;2022-10-12 17:34:32:377
9.4998;-4.6911;-4.5751;8.9363;2.8825;-2.8292;6.1212;-8.385;0.0493;3.2991;-0.2996;-4.6312;525.0;-37.78;16.73;-5.49;301.33;8.99;-112.29;5.0;981.9;62.251;35.956417;-83.92499;797.1;NaN;;4.64;12.226105;253.9;15 / 18;177514;2022-10-12 17:34:32:877
13.159;-0.3724;-5.1832;9.0402;0.192;-3.7957;2.0475;-2.6631;-0.6236;0.0803;0.1703;4.3386;565.0;-37.24;-22.26;-7.73;225.41;-1.12;-112.78;5.0;981.95;54.747;35.956417;-83.92499;797.1;NaN;;4.64;12.226105;253.9;15 / 18;178015;2022-10-12 17:34:33:378
12.3141;-5.1927;-2.3282;9.4702;1.4155;-2.117;7.0906;-7.0113;0.444;2.6649;0.1923;-4.1063;514.0;-40.46;12.02;-6.98;273.27;17.36;-112.73;5.0;981.98;60.117;35.956413;-83.925;795.17;NaN;;4.46;12.226105;259.4;16 / 18;178515;2022-10-12 17:34:33:878
12.2243;-0.5028;-4.3813;8.5761;-3.0824;-3.6221;3.0462;1.7625;-1.1376;-0.4226;0.1481;3.659;590.0;-36.82;-22.95;-9.58;228.1;-6.02;-109.55;5.0;981.99;50.645;35.956413;-83.925;795.17;NaN;;4.46;12.226105;259.4;16 / 18;179015;2022-10-12 17:34:34:378
10.7806;-4.6708;-2.1607;9.3992;-1.1766;-2.5379;6.7277;-0.9265;1.6937;2.4356;1.0097;-4.0146;473.0;-40.99;13.05;-7.27;295.65;6.89;-105.11;5.0;981.98;55.587;35.95641;-83.92501;796.76;NaN;;4.5;12.226105;250.4;16 / 18;179516;2022-10-12 17:34:34:879
9.3275;-2.2205;-5.2609;8.0605;-2.8224;-4.8201;1.8016;-0.4491;-1.6583;0.2178;-0.3476;3.1102;545.0;-39.6;-20.76;-6.82;236.93;-9.7;-114.84;5.0;981.98;59.451;35.95641;-83.92501;796.76;NaN;;4.5;12.226105;250.4;16 / 18;180014;2022-10-12 17:34:35:377
10.1581;-4.3442;-4.0998;9.3259;-1.043;-2.8478;6.232;-0.0963;0.6158;2.6684;0.6147;-4.5231;464.0;-41.4;10.11;-1.5;256.19;28.12;-127.2;5.0;981.98;65.242;35.9564;-83.925026;794.23;NaN;;4.18;12.226105;247.3;16 / 18;180514;2022-10-12 17:34:35:877
5.5508;3.888;-3.5372;8.1981;2.1044;-4.953;1.7572;1.3291;-1.5447;-0.9157;0.1274;0.5683;532.0;-37.48;-23.44;-3.47;237.64;-15.45;-122.89;5.0;981.97;54.837;35.9564;-83.925026;794.23;NaN;;4.18;12.226105;247.3;16 / 18;181014;2022-10-12 17:34:36:377
7.1357;2.7532;0.1208;8.2447;4.2479;-3.1859;8.6299;3.2403;-0.8062;-1.2987;2.1724;-1.7733;555.0;-40.11;-22.01;-6.86;257.2;-25.67;-111.13;5.0;982.02;57.821;35.95639;-83.92504;794.09;NaN;;5.22;12.226105;242.0;16 / 18;181515;2022-10-12 17:34:36:878
2.3426;4.1524;8.9013;2.5702;3.2379;8.8927;-1.2984;-0.0757;0.1055;-0.1251;0.0357;0.0977;643.0;10.78;-16.41;-39.71;261.02;-19.28;-16.12;5.0;981.96;52.525;35.95639;-83.92504;794.09;NaN;;5.22;12.226105;242.0;16 / 18;182014;2022-10-12 17:34:37:377
2.1523;5.7697;6.355;2.9527;6.7262;6.4969;-0.8841;-0.977;0.0883;0.0596;0.3798;0.1861;2727.0;18.56;-21.71;-35.42;270.64;-39.52;-18.46;5.0;981.98;51.367;35.956383;-83.92505;794.76;NaN;;4.5;12.226105;236.4;16 / 18;182514;2022-10-12 17:34:37:877
8.2669;-0.4968;9.7319;7.0622;-0.664;6.7716;4.9656;-2.7802;9.9905;1.0768;-1.1461;-0.8666;2467.0;9.56;-20.14;-36.58;237.77;3.88;-46.2;5.0;981.94;69.979;35.956383;-83.92505;794.76;NaN;;4.5;12.226105;236.4;16 / 18;183016;2022-10-12 17:34:38:379
5.0886;1.0044;4.6265;6.1902;0.7894;7.5649;1.7465;-2.4317;-0.8544;1.2741;0.3938;-0.3466;3166.0;-6.73;9.23;-45.51;282.42;4.7;-43.38;5.0;981.94;51.456;35.956375;-83.925064;796.03;NaN;;4.18;12.226105;252.1;16 / 18;183514;2022-10-12 17:34:38:877
6.8686;1.0893;5.7218;7.3933;-0.4782;6.425;3.6746;-2.2944;4.8604;0.8005;-0.2198;-0.0692;3171.0;-5.83;3.92;-45.94;274.28;2.8;-49.01;5.0;981.94;48.181;35.956375;-83.925064;796.03;NaN;;4.18;12.226105;252.1;16 / 18;184016;2022-10-12 17:34:39:379
7.6612;-1.2449;7.113;7.3866;0.0275;6.4504;4.5279;-2.0679;4.7782;1.1715;0.8689;-0.2584;3043.0;-11.21;11.57;-44.36;286.62;5.99;-51.08;5.0;981.97;63.097;35.956367;-83.92507;794.32;NaN;;3.42;12.226105;239.4;16 / 18;184514;2022-10-12 17:34:39:877
6.1899;0.8366;6.3311;7.2789;-0.9865;6.4973;1.2267;-1.4403;3.6484;-0.4491;0.4416;0.1548;2994.0;-8.46;5.98;-45.47;267.06;12.11;-49.88;5.0;981.93;54.486;35.956367;-83.92507;794.32;NaN;;3.42;12.226105;239.4;16 / 18;185014;2022-10-12 17:34:40:377
6.7669;-1.3956;5.8247;6.9099;-0.6958;6.9238;3.8477;-2.2547;6.3466;1.3415;-0.0571;0.0215;3175.0;-8.51;14.08;-42.21;296.08;4.07;-44.94;5.0;981.95;65.585;35.956364;-83.92509;792.43;NaN;;3.46;12.226105;252.8;16 / 18;185515;2022-10-12 17:34:40:878
12.023;-6.4161;-4.4853;8.7357;-4.2184;-1.4364;7.4177;0.3879;-0.5575;-0.203;-0.13;3.8141;2523.0;-26.44;-7.84;-30.69;257.12;1.1;-104.28;5.0;981.98;56.383;35.956364;-83.92509;792.43;NaN;;3.46;12.226105;252.8;16 / 18;186016;2022-10-12 17:34:41:379
13.8811;-7.6708;0.8186;8.7818;-4.0796;-1.5512;6.1087;-0.7334;1.7189;0.9608;1.2671;-2.4726;404.0;-35.79;15.21;-16.18;260.97;37.06;-112.08;5.0;981.97;66.131;35.956364;-83.92509;792.43;NaN;;3.46;12.226105;252.8;16 / 18;186514;2022-10-12 17:34:41:877
10.6119;-3.0176;-0.5949;9.182;-3.1204;-1.4574;1.5913;-2.0582;1.1457;-0.8804;-0.8441;2.8498;467.0;-37.31;-3.84;-20.94;265.75;-3.52;-97.79;5.0;981.98;63.948;35.956364;-83.92509;792.43;NaN;;3.46;12.226105;252.8;16 / 18;187014;2022-10-12 17:34:42:377
9.0353;-5.9076;-1.1743;8.5905;-4.2408;-2.0949;9.1318;1.4099;2.9711;1.2064;1.9515;-3.4332;374.0;-33.19;20.63;-15.41;286.44;25.62;-103.7;5.0;981.95;64.733;35.956352;-83.9251;792.9;NaN;;4.9;12.226105;249.0;0 / 18;187515;2022-10-12 17:34:42:878
12.2411;-2.9794;-1.0965;9.7031;-0.7776;-1.1896;-0.6614;-2.5348;-2.2921;-1.6206;0.4761;3.0513;494.0;-36.19;-13.11;-21.19;277.68;-13.27;-92.86;5.0;981.98;63.733;35.956352;-83.9251;792.9;NaN;;4.9;12.226105;249.0;0 / 18;188015;2022-10-12 17:34:43:378
13.2682;-7.4527;1.7106;9.3042;-2.8323;-1.2574;6.6922;-0.7465;-0.0586;-0.3141;0.6237;-0.8778;418.0;-38.83;6.13;-17.87;240.84;33.59;-101.47;5.0;982.02;60.064;35.95635;-83.92512;792.26;NaN;;4.79;12.226105;251.4;16 / 18;188514;2022-10-12 17:34:43:877
12.7582;-6.2964;-0.5148;9.5097;1.7534;-1.6312;-5.5867;-6.5859;-0.6207;-1.6867;-1.3283;2.5235;433.0;-36.82;-11.62;-18.88;256.8;-10.3;-99.73;5.0;982.02;62.151;35.95635;-83.92512;792.26;NaN;;4.79;12.226105;251.4;16 / 18;189014;2022-10-12 17:34:44:377
14.0629;-3.4869;-0.8955;7.6184;-5.3878;-3.0169;3.5525;5.2651;2.4913;0.1554;1.1713;-1.4807;448.0;-36.86;13.99;-11.4;258.63;39.61;-121.24;5.0;981.97;64.641;35.95634;-83.92513;791.0;NaN;;4.57;12.226105;249.6;15 / 18;189515;2022-10-12 17:34:44:878
7.8969;-3.8174;-2.8669;8.3936;4.3988;-2.5237;-3.8573;-9.1464;-0.4143;-0.6251;0.1218;0.6152;463.0;-34.57;-6.45;-17.14;285.84;-26.65;-106.73;5.0;982.02;70.799;35.95634;-83.92513;791.0;NaN;;4.57;12.226105;249.6;15 / 18;190014;2022-10-12 17:34:45:377
12.708;0.8979;2.1069;7.3743;-5.3435;-3.6383;5.383;6.8231;5.6219;0.4887;0.5734;-0.5831;525.0;-36.6;-4.05;-14.31;238.4;30.45;-115.04;5.0;981.98;62.835;35.956337;-83.925156;791.35;NaN;;4.82;12.226105;253.5;15 / 18;190514;2022-10-12 17:34:45:877
3.4965;-4.9487;-3.2441;9.4192;1.8256;-2.0287;-5.305;-7.3283;-0.9871;0.112;-0.297;-0.6354;513.0;-35.87;4.95;-16.72;305.97;-23.42;-101.44;5.0;981.97;61.225;35.956337;-83.925156;791.35;NaN;;4.82;12.226105;253.5;15 / 18;191014;2022-10-12 17:34:46:377
16.092;-2.9315;0.2225;6.7808;-5.7693;-4.1116;6.3663;7.2422;3.688;-0.9244;1.2587;-0.279;491.0;-37.39;8.18;-14.87;256.7;36.04;-121.23;5.0;981.96;62.986;35.95633;-83.92516;791.65;NaN;;5.08;12.226105;252.5;15 / 18;191514;2022-10-12 17:34:46:877
6.9416;-5.1329;-2.9016;9.1806;2.8178;-1.9866;-3.7166;-7.158;0.164;1.0106;-0.1193;-1.4745;483.0;-37.2;3.32;-17.12;301.35;-17.84;-97.93;5.0;981.96;62.835;35.95633;-83.92516;791.65;NaN;;5.08;12.226105;252.5;15 / 18;192014;2022-10-12 17:34:47:377
14.6219;2.9865;-3.5779;7.2237;-6.0779;-2.6548;5.3756;7.3192;-1.2047;-0.5703;0.0203;0.2711;526.0;-39.98;-3.99;-17.04;235.33;24.32;-103.73;5.0;981.97;59.408;35.956326;-83.925186;792.48;NaN;;5.83;12.226105;255.4;15 / 18;192514;2022-10-12 17:34:47:877
3.8115;-4.0149;-2.083;8.7228;4.2028;-1.5556;-3.9061;-8.2832;0.3737;0.5112;-0.1355;-0.1678;453.0;-39.06;2.68;-17.04;301.42;-15.42;-95.84;5.0;982.01;64.708;35.956326;-83.925186;792.48;NaN;;5.83;12.226105;255.4;15 / 18;193014;2022-10-12 17:34:48:377
12.3667;2.3426;-0.8608;9.4104;-2.3721;-1.4101;-0.6383;3.4405;0.1996;-0.8333;-0.4174;1.9277;583.0;-35.44;-16.89;-19.2;224.75;14.0;-98.52;5.0;982.0;56.729;35.95632;-83.9252;790.26;NaN;;5.76;12.226105;258.4;15 / 18;193514;2022-10-12 17:34:48:877
5.0324;-3.8067;-2.065;9.1323;3.2078;-1.5752;-2.6517;-6.8183;-1.4844;-0.1996;-0.287;-0.2995;493.0;-38.14;-0.13;-18.36;292.0;-6.99;-96.52;5.0;982.05;65.168;35.95632;-83.9252;790.26;NaN;;5.76;12.226105;258.4;15 / 18;194014;2022-10-12 17:34:49:377
12.3224;0.9996;-0.565;7.9333;-4.9008;-3.0356;2.9567;6.0622;1.7696;0.0815;-0.5579;1.6563;522.0;-38.23;-7.52;-17.66;236.37;23.06;-108.26;5.0;982.0;60.807;35.956318;-83.92522;789.36;NaN;;5.11;12.226105;256.4;15 / 18;194514;2022-10-12 17:34:49:877
7.491;-3.1328;-2.2158;9.5258;1.8611;-1.4022;-2.3521;-4.9196;-0.5163;-0.1996;0.0121;-1.1417;406.0;-38.03;8.01;-16.71;303.01;-10.94;-98.37;5.0;982.04;66.782;35.956318;-83.92522;789.36;NaN;;5.11;12.226105;256.4;15 / 18;195014;2022-10-12 17:34:50:377
10.255;-0.4406;0.2345;8.0041;-4.6564;-3.2284;2.2917;3.3077;3.2191;-0.3871;-0.5269;1.2349;505.0;-39.34;-2.42;-18.39;245.21;18.72;-104.52;5.0;981.96;63.254;35.95631;-83.92523;790.99;NaN;;5.47;12.226105;254.3;15 / 18;195514;2022-10-12 17:34:50:877
6.7023;-3.8737;-2.2899;9.6922;0.7582;-1.2876;-0.9267;-4.7301;-0.5045;0.7255;-0.0997;-1.834;512.0;-36.92;13.71;-15.56;308.73;-4.43;-97.57;5.0;981.96;70.144;35.95631;-83.92523;790.99;NaN;;5.47;12.226105;254.3;15 / 18;196014;2022-10-12 17:34:51:377
11.281;0.0227;-2.0423;8.0122;-4.9706;-2.6958;2.1522;3.6895;0.5125;-0.606;0.037;1.2365;540.0;-40.2;-0.58;-19.63;248.3;17.93;-103.58;5.0;981.94;63.473;35.956303;-83.92525;792.89;NaN;;5.22;12.226105;251.8;15 / 18;196514;2022-10-12 17:34:51:877
6.2904;-4.4279;-1.7177;9.4636;2.1022;-1.4805;-3.1802;-5.7647;-0.9408;0.8428;-0.3467;-2.2175;483.0;-36.77;15.32;-18.0;307.12;-3.13;-96.85;5.0;981.99;61.852;35.956303;-83.92525;792.89;NaN;;5.22;12.226105;251.8;15 / 18;197014;2022-10-12 17:34:52:377
13.5458;0.5985;-1.2652;7.951;-4.8811;-3.0209;1.9123;3.9464;1.51;-0.1342;-0.3627;1.1971;558.0;-39.43;4.95;-18.99;251.71;29.85;-110.8;5.0;981.95;67.424;35.956303;-83.92526;793.15;NaN;;4.93;12.226105;250.2;14 / 18;197514;2022-10-12 17:34:52:877
6.5551;-4.4889;-2.144;9.35;2.3674;-1.7727;-2.4329;-6.4312;-0.6387;0.9428;-0.0934;-2.1015;534.0;-37.67;10.67;-17.53;302.07;-6.13;-98.49;5.0;981.99;70.375;35.956303;-83.92526;793.15;NaN;;4.93;12.226105;250.2;14 / 18;198014;2022-10-12 17:34:53:377
10.4551;1.3334;-1.3454;7.9064;-5.1345;-2.7012;2.2566;4.5272;0.1376;-0.2543;-0.0625;1.2414;548.0;-40.43;-1.63;-18.83;245.49;19.34;-104.92;5.0;982.01;63.413;35.9563;-83.92528;794.04;NaN;;5.18;12.226105;255.5;14 / 18;198514;2022-10-12 17:34:53:877
5.3207;-4.0113;-2.5113;9.4815;1.939;-1.5847;-3.5863;-5.5793;-0.3139;-0.8137;-0.1273;0.307;469.0;-37.48;11.21;-19.48;300.55;-3.62;-95.33;5.0;982.03;64.38;35.9563;-83.92528;794.04;NaN;;5.18;12.226105;255.5;14 / 18;199014;2022-10-12 17:34:54:377
10.8141;1.433;-0.2994;7.5128;-5.5262;-3.0313;3.4408;6.7298;2.5894;-0.5496;-0.2094;1.4385;555.0;-39.09;5.87;-19.33;250.11;32.31;-109.5;5.0;982.02;62.556;35.9563;-83.925285;793.82;NaN;;4.82;12.226105;263.1;15 / 18;199515;2022-10-12 17:34:54:878
4.9211;-4.4363;-2.6958;8.9889;3.3346;-2.0616;-2.4372;-7.6304;-0.28;-0.5918;-0.2424;0.0082;521.0;-37.24;4.16;-18.83;298.56;-19.88;-102.92;5.0;982.11;68.932;35.9563;-83.925285;793.82;NaN;;4.82;12.226105;263.1;15 / 18;200014;2022-10-12 17:34:55:377
10.442;1.6579;-1.1109;7.612;-5.6091;-2.601;3.0957;7.0667;1.3097;0.0474;-0.2286;1.2843;558.0;-40.24;-2.12;-19.35;238.3;31.98;-107.9;5.0;982.05;65.42;35.956295;-83.9253;793.0;NaN;;5.18;12.226105;256.6;15 / 18;200514;2022-10-12 17:34:55:877
7.6289;-4.6708;-2.5005;9.0198;3.3753;-1.8498;-1.853;-7.8986;0.1667;0.2582;-0.296;-0.8775;503.0;-38.66;9.66;-19.59;307.64;-20.13;-101.59;5.0;982.17;69.58;35.956295;-83.9253;793.0;NaN;;5.18;12.226105;256.6;15 / 18;201014;2022-10-12 17:34:56:377
14.6112;1.0104;-0.2261;7.6519;-4.8675;-3.7318;3.8449;4.9744;4.0048;-0.7623;-0.2229;0.5572;578.0;-40.84;-1.42;-18.06;245.89;20.44;-106.38;5.0;982.13;69.794;35.956295;-83.92532;791.77;NaN;;5.11;12.226105;255.8;15 / 18;201514;2022-10-12 17:34:56:877
6.5958;-3.7026;-3.2034;9.1886;2.5497;-2.289;-1.6546;-6.628;-0.2029;0.8144;-0.4442;-1.2119;576.0;-39.66;8.42;-15.51;303.71;-15.07;-103.99;5.0;982.15;69.948;35.956295;-83.92532;791.77;NaN;;5.11;12.226105;255.8;15 / 18;202015;2022-10-12 17:34:57:378
17.2807;-0.996;-1.4426;7.6522;-5.2931;-3.0981;3.113;5.7246;0.633;-0.5418;0.0327;0.7042;566.0;-42.47;-4.26;-17.12;239.8;21.99;-107.51;5.0;982.09;68.069;35.956295;-83.92534;790.68;NaN;;5.11;12.226105;251.8;15 / 18;202515;2022-10-12 17:34:57:878
4.398;-4.1895;-1.2066;9.0544;2.8934;-2.4118;-4.1807;-7.3728;0.8751;-0.144;-0.41;-1.5016;512.0;-40.18;7.39;-15.58;302.92;-17.97;-106.12;5.0;982.16;71.233;35.956295;-83.92534;790.68;NaN;;5.11;12.226105;251.8;15 / 18;203014;2022-10-12 17:34:58:377
11.0453;1.7429;-2.455;7.4567;-5.672;-2.8976;3.2487;6.2717;0.4932;-0.3434;0.0599;0.6514;550.0;-40.57;1.74;-16.22;240.09;35.34;-111.24;5.0;982.08;66.146;35.956287;-83.925354;792.1;NaN;;5.29;12.226105;250.1;15 / 18;203514;2022-10-12 17:34:58:877
6.3455;1.1444;-7.1237;2.7272;6.4175;-6.8956;4.5624;-7.268;0.9744;0.4106;-2.2528;-3.4707;500.0;-32.74;-13.29;-3.32;266.27;-28.07;-135.91;5.0;982.11;66.997;35.956287;-83.925354;792.1;NaN;;5.29;12.226105;250.1;15 / 18;204015;2022-10-12 17:34:59:378
-2.3151;6.8112;-6.3395;-1.0878;5.7413;-7.8756;-0.8601;-0.2344;3.5897;0.7723;-0.1758;-0.142;755.0;-4.26;-45.66;11.44;190.36;-41.06;174.31;5.0;982.01;66.829;35.956287;-83.92537;794.21;NaN;;5.29;12.226105;255.2;15 / 18;204514;2022-10-12 17:34:59:877
-3.213;2.3246;-5.3207;-2.6594;3.7411;-8.6661;-0.5232;-1.9857;2.8308;0.4652;0.1528;0.3383;792.0;6.3;-42.32;21.94;178.35;-25.65;166.77;5.0;981.99;61.777;35.956287;-83.92537;794.21;NaN;;5.29;12.226105;255.2;15 / 18;205015;2022-10-12 17:35:00:378
-4.028;6.5121;-7.6828;-1.531;5.0847;-8.2445;-0.8356;1.0312;1.505;0.0722;-0.2203;0.3788;794.0;9.17;-40.33;23.7;167.49;-31.11;170.03;5.0;982.02;59.297;35.956284;-83.925385;796.25;NaN;;5.18;12.226105;255.4;15 / 18;205514;2022-10-12 17:35:00:877
0.5016;3.8976;-9.2231;0.7962;4.3068;-8.7743;-0.7381;-0.9703;1.4203;0.0555;0.2724;0.2957;793.0;5.12;-42.04;22.33;166.17;-26.05;-174.81;5.0;982.01;66.931;35.956284;-83.925385;796.25;NaN;;5.18;12.226105;255.4;15 / 18;206014;2022-10-12 17:35:01:377
2.7353;-3.5336;3.1878;7.8001;5.7392;1.5458;-8.7325;-7.3359;1.4017;-3.9385;-0.6953;3.3521;779.0;-3.54;-41.89;12.62;118.08;-70.73;-113.48;5.0;982.08;63.621;35.95628;-83.9254;797.16;NaN;;5.22;12.226105;255.9;15 / 18;206514;2022-10-12 17:35:01:877
2.0495;-0.5207;-2.6348;5.8479;4.3639;6.552;7.9149;-1.37;-10.9165;-0.5191;0.3767;-2.3214;1035.0;-25.01;-3.52;-33.53;345.22;-26.42;-41.75;5.0;982.04;68.521;35.95628;-83.9254;797.16;NaN;;5.22;12.226105;255.9;15 / 18;207014;2022-10-12 17:35:02:377
16.748;1.8458;1.7261;6.3814;-5.8705;-4.581;10.082;3.2055;5.2895;-0.4778;0.0032;0.8547;1925.0;-22.28;11.87;-28.35;281.57;23.07;-111.23;5.0;981.91;62.266;35.95628;-83.92541;796.14;NaN;;4.97;12.226105;268.4;15 / 18;207514;2022-10-12 17:35:02:877
6.7119;-4.325;-1.774;9.765;-0.0531;-0.9017;-1.2164;-6.4764;0.1024;1.7146;-0.2465;-1.9162;1063.0;-29.17;27.71;-14.68;332.97;14.8;-96.97;5.0;981.92;72.761;35.95628;-83.92541;796.14;NaN;;4.97;12.226105;268.4;15 / 18;208015;2022-10-12 17:35:03:378
11.0513;-2.4287;-0.7433;7.2401;-5.6067;-3.5095;3.6679;2.7744;1.8954;-1.6475;0.0815;1.7169;772.0;-39.77;7.95;-22.11;260.01;23.95;-106.51;5.0;981.96;53.56;35.956276;-83.92542;796.56;NaN;;5.29;12.226105;250.2;15 / 18;208514;2022-10-12 17:35:03:877
6.7609;-4.7414;-1.992;9.6879;1.0468;-1.1044;-2.5083;-5.8407;-0.9522;1.6902;0.0108;-2.2908;762.0;-29.57;28.76;-15.73;324.6;5.22;-95.27;5.0;981.99;58.179;35.956276;-83.92542;796.56;NaN;;5.29;12.226105;250.2;15 / 18;209014;2022-10-12 17:35:04:377
10.6071;-1.7477;-1.0319;8.1234;-4.7397;-2.7779;1.6054;2.9699;1.0813;-1.1136;-0.1699;1.642;763.0;-40.35;7.05;-23.36;256.13;28.9;-108.88;5.0;982.01;50.311;35.956272;-83.92544;796.06;NaN;;5.0;12.226105;254.9;14 / 18;209515;2022-10-12 17:35:04:878
7.818;-4.6217;-1.7477;9.739;0.4908;-1.0397;-1.8992;-5.0115;-0.6774;1.9123;0.4911;-2.5882;732.0;-33.66;22.24;-18.39;303.84;12.49;-96.66;5.0;982.01;70.979;35.956272;-83.92544;796.06;NaN;;5.0;12.226105;254.9;14 / 18;210015;2022-10-12 17:35:05:378
10.7064;-1.9908;-1.9944;8.6193;-4.0402;-2.3567;1.2955;1.9902;-0.7;-1.2124;-0.4315;1.9413;714.0;-39.64;-0.09;-25.35;259.13;9.67;-99.17;5.0;982.02;59.901;35.956272;-83.92545;794.99;NaN;;4.54;12.226105;246.5;14 / 18;210515;2022-10-12 17:35:05:878
5.0049;-3.3541;-4.2556;9.5027;1.1726;-2.12;-0.3976;-5.9779;0.0011;1.8706;-0.729;-1.9904;667.0;-33.71;25.33;-17.23;308.81;14.41;-95.39;5.0;981.98;67.349;35.956272;-83.92545;794.99;NaN;;4.54;12.226105;246.5;14 / 18;211014;2022-10-12 17:35:06:377
9.4077;-0.9314;-1.829;8.3501;-4.0659;-3.1488;0.1591;3.6637;0.7902;0.037;-0.369;1.1451;700.0;-41.4;0.24;-21.36;252.83;16.99;-106.27;5.0;982.0;60.6;35.956264;-83.92546;794.76;NaN;;4.79;12.226105;243.3;15 / 18;211514;2022-10-12 17:35:06:877
6.8195;-3.3577;-2.7329;9.7146;0.4183;-1.2735;0.3896;-4.0718;-0.2734;1.6929;-0.3267;-2.1887;685.0;-37.74;18.56;-18.83;310.74;-2.44;-97.47;5.0;982.04;65.509;35.956264;-83.92546;794.76;NaN;;4.79;12.226105;243.3;15 / 18;212014;2022-10-12 17:35:07:377
9.5118;-0.7361;-1.2389;8.3235;-4.1318;-3.1335;1.8822;4.3465;1.6238;-0.2039;-0.7398;1.9222;696.0;-41.51;-0.79;-24.34;252.82;17.33;-106.82;5.0;981.97;63.57;35.95626;-83.92547;796.26;NaN;;5.0;12.226105;243.3;15 / 18;212515;2022-10-12 17:35:07:878
6.9512;-3.7947;-2.1691;9.725;-0.6355;-1.0912;3.3131;-3.2924;-0.1964;1.6142;0.3169;-2.587;673.0;-37.95;22.13;-18.6;310.35;3.72;-96.4;5.0;981.94;67.833;35.95626;-83.92547;796.26;NaN;;5.0;12.226105;243.3;15 / 18;213014;2022-10-12 17:35:08:377
10.2299;-1.0223;-1.7022;8.4844;-3.8273;-3.0881;2.6988;2.8306;0.0024;-1.195;0.0986;1.6095;662.0;-42.15;-0.94;-26.23;258.97;9.18;-102.09;5.0;981.98;62.511;35.956257;-83.92549;796.22;NaN;;4.97;12.226105;242.9;15 / 18;213514;2022-10-12 17:35:08:877
7.8993;-3.8438;-2.3701;9.5442;-1.6844;-1.497;3.4478;-1.0745;0.9058;1.9766;0.5057;-2.5886;655.0;-37.24;26.33;-19.54;307.93;9.89;-98.91;5.0;981.86;68.714;35.956257;-83.92549;796.22;NaN;;4.97;12.226105;242.9;15 / 18;214014;2022-10-12 17:35:09:377
8.9109;-0.285;-3.1292;8.8209;-3.1071;-2.9509;3.2972;0.9118;-2.6542;-1.9513;0.3472;1.8569;766.0;-42.28;4.35;-25.03;273.84;2.84;-101.19;5.0;981.99;58.858;35.95625;-83.9255;797.69;NaN;;4.9;12.226105;246.4;15 / 18;214514;2022-10-12 17:35:09:877
11.0321;-4.5954;-1.4474;9.7546;0.1201;-1.0016;2.4003;-4.9912;-0.0946;1.7826;1.1259;-2.5007;783.0;-33.49;29.59;-12.04;312.16;19.91;-105.54;5.0;981.87;68.151;35.95625;-83.9255;797.69;NaN;;4.9;12.226105;246.4;15 / 18;215015;2022-10-12 17:35:10:378
13.3651;-1.7477;-3.5791;9.3014;-2.036;-2.3473;0.0133;-3.3904;-0.1116;-0.4861;-0.8719;2.9848;788.0;-41.59;-0.37;-20.1;255.93;11.98;-104.16;5.0;982.07;60.831;35.95625;-83.925514;798.93;NaN;;5.04;12.226105;248.6;15 / 18;215514;2022-10-12 17:35:10:877
13.9229;-5.3868;-2.7604;9.6743;0.2702;-1.5826;7.03;-6.0567;-1.5587;1.0352;0.7675;-3.1122;729.0;-35.66;23.59;-13.71;293.19;22.91;-107.87;5.0;982.05;66.41;35.95625;-83.925514;798.93;NaN;;5.04;12.226105;248.6;15 / 18;216014;2022-10-12 17:35:11:377
12.9126;-2.8908;-5.2825;9.191;0.6737;-3.3528;-1.4448;-6.0162;-0.1936;-0.429;0.0363;3.6841;735.0;-38.87;-8.57;-18.11;279.65;-23.88;-106.57;5.0;981.99;58.868;35.956245;-83.92553;797.64;NaN;;4.54;12.226105;253.8;15 / 18;216514;2022-10-12 17:35:11:877
13.11;-4.9271;-2.2086;9.0111;0.1919;-3.8644;12.1682;1.7753;-4.4118;0.6416;-0.6559;-4.1179;668.0;-38.38;16.28;-11.12;265.21;33.49;-118.04;5.0;981.99;61.567;35.956245;-83.92553;797.64;NaN;;4.54;12.226105;253.8;15 / 18;217014;2022-10-12 17:35:12:377
10.9508;-2.3306;-4.4806;9.2014;-0.0423;-3.3916;1.4784;-2.4744;-1.1964;-0.3209;0.3488;2.5176;711.0;-39.26;-17.23;-8.19;262.93;-23.57;-116.42;5.0;982.0;58.571;35.956245;-83.925545;796.59;NaN;;4.97;12.226105;270.3;15 / 18;217514;2022-10-12 17:35:12:877
15.8297;1.4509;-3.5468;8.3104;-3.3415;-3.9928;7.0804;6.6128;0.3068;-0.8766;1.2468;-2.7715;677.0;-37.91;13.67;-11.01;276.74;19.92;-115.66;5.0;981.99;61.476;35.956245;-83.925545;796.59;NaN;;4.97;12.226105;270.3;15 / 18;218015;2022-10-12 17:35:13:378
7.0639;-6.6245;-3.0933;9.1224;1.1747;-3.4019;-2.7891;-5.9079;0.3417;-0.0651;0.0316;1.1372;718.0;-37.74;-0.54;-13.63;297.96;-30.02;-111.39;5.0;982.02;67.873;35.95625;-83.92555;798.0;NaN;;4.75;12.226105;272.7;16 / 18;218514;2022-10-12 17:35:13:877
19.7848;-0.7624;-0.4382;6.8217;-4.4754;-5.4411;3.9548;6.4467;4.8541;-0.9902;1.5367;-0.5224;764.0;-35.06;14.96;-7.26;275.96;27.15;-128.58;5.0;981.88;69.866;35.95625;-83.92555;798.0;NaN;;4.75;12.226105;272.7;16 / 18;219015;2022-10-12 17:35:14:378
6.652;-4.4961;-1.884;8.8051;2.8951;-3.2029;-4.2914;-6.3191;1.236;-0.3602;-0.4946;3.4473;794.0;-37.71;4.11;-11.33;306.06;-26.5;-111.44;5.0;982.02;70.731;35.95625;-83.92557;796.53;NaN;;4.64;12.226105;281.4;15 / 18;219515;2022-10-12 17:35:14:878
17.6216;-1.2616;-2.1655;7.1501;-5.3884;-4.0015;4.3462;8.0142;1.0341;-0.5738;0.3776;-0.248;783.0;-37.39;15.73;-12.67;247.32;28.83;-114.22;5.0;982.01;62.34;35.95625;-83.92557;796.53;NaN;;4.64;12.226105;281.4;15 / 18;220015;2022-10-12 17:35:15:378
9.7905;-4.0854;-2.3139;8.9883;3.1215;-2.3744;-4.3353;-7.1687;0.0684;-0.3603;-0.5153;2.3021;754.0;-37.73;9.73;-15.52;309.53;-20.86;-105.11;5.0;982.01;63.38;35.95625;-83.92558;796.53;NaN;;4.86;12.226105;261.7;15 / 18;220515;2022-10-12 17:35:15:878
15.9039;-1.5766;-1.8972;8.3926;-3.7608;-3.4045;7.4333;3.382;2.343;-0.6486;0.0866;0.2926;886.0;-38.42;10.5;-15.11;261.05;33.37;-119.34;5.0;982.02;63.561;35.95625;-83.92558;796.53;NaN;;4.86;12.226105;261.7;15 / 18;221015;2022-10-12 17:35:16:378
8.7075;-6.6425;-2.5415;8.9099;3.4089;-2.2721;-4.3071;-6.5408;-0.3212;-0.2903;-0.2243;1.0831;762.0;-38.12;3.75;-17.55;299.21;-20.34;-104.31;5.0;982.0;69.184;35.95625;-83.9256;796.9;NaN;;4.75;12.226105;267.2;15 / 18;221515;2022-10-12 17:35:16:878
11.7191;1.0678;-0.4573;7.391;-5.0487;-4.0068;2.7606;6.9599;2.9518;-0.7386;-0.1921;1.0377;803.0;-37.87;13.65;-14.94;264.92;32.37;-116.8;5.0;982.02;60.48;35.95625;-83.9256;796.9;NaN;;4.75;12.226105;267.2;15 / 18;222014;2022-10-12 17:35:17:377
5.4526;-2.9219;-2.26;8.5337;3.8315;-2.9437;-3.2978;-7.1401;-0.4341;-0.47;-0.2112;-0.2327;693.0;-36.39;12.23;-15.21;310.08;-12.2;-101.76;5.0;982.04;69.499;35.95625;-83.925606;797.9;NaN;;4.72;12.226105;253.4;15 / 18;222515;2022-10-12 17:35:17:878
18.6571;-3.0835;1.0965;6.6558;-5.7542;-4.3313;4.5757;8.2106;1.8412;-1.2503;0.7238;-0.0706;741.0;-39.07;3.36;-16.76;246.93;32.51;-113.08;5.0;982.04;60.376;35.95625;-83.925606;797.9;NaN;;4.72;12.226105;253.4;15 / 18;223014;2022-10-12 17:35:18:377
4.78;-3.7493;-2.4239;8.4661;3.9933;-2.924;-5.7543;-8.6696;0.2718;1.0715;-0.6228;-1.6251;646.0;-36.17;9.15;-16.44;311.45;-29.06;-106.28;5.0;982.03;65.867;35.956245;-83.92562;796.91;NaN;;4.61;12.226105;251.4;16 / 18;223515;2022-10-12 17:35:18:878
15.5234;-0.862;-1.0929;6.8605;-5.6227;-4.182;5.1101;6.5716;2.8629;-0.5405;0.0227;0.5304;739.0;-38.57;6.71;-15.41;254.98;34.98;-121.37;5.0;982.03;61.478;35.956245;-83.92562;796.91;NaN;;4.61;12.226105;251.4;16 / 18;224014;2022-10-12 17:35:19:377
5.4873;-4.2293;-2.1835;8.7915;3.7152;-2.2533;-3.1382;-7.7537;-0.6274;0.9299;-0.2506;-1.9816;679.0;-35.98;17.93;-16.61;316.89;-18.08;-103.65;5.0;982.04;66.056;35.95624;-83.92563;796.2;NaN;;4.57;12.226105;257.1;16 / 18;224514;2022-10-12 17:35:19:877
13.1243;1.3513;0.3592;7.0075;-5.4428;-4.1763;4.8114;4.1779;2.5248;-1.4934;-0.1019;1.6425;765.0;-39.69;-0.24;-19.84;250.43;33.71;-120.79;5.0;982.02;61.562;35.95624;-83.92563;796.2;NaN;;4.57;12.226105;257.1;16 / 18;225015;2022-10-12 17:35:20:378
5.8594;-4.7115;-1.9439;9.0517;3.0797;-2.18;-3.5336;-7.4357;-0.7351;-0.5113;-0.14;0.757;668.0;-35.53;16.26;-16.71;313.76;-13.06;-101.45;5.0;981.98;70.613;35.95624;-83.92565;795.79;NaN;;4.64;12.226105;254.9;16 / 18;225515;2022-10-12 17:35:20:878
11.895;0.2946;-1.4139;7.992;-4.6477;-3.2707;1.8879;4.0041;1.0861;-0.5688;-0.034;1.2428;767.0;-40.56;10.2;-19.37;260.12;28.29;-112.26;5.0;982.01;62.806;35.95624;-83.92565;795.79;NaN;;4.64;12.226105;254.9;16 / 18;226015;2022-10-12 17:35:21:378
6.1337;-3.2967;-2.1667;9.5593;1.6827;-1.3994;-2.7625;-5.3239;0.1123;0.5953;-0.3879;-0.6152;648.0;-36.56;21.56;-18.36;314.55;-0.19;-97.15;5.0;981.96;64.178;35.95624;-83.92567;796.34;NaN;;3.82;12.226105;263.5;16 / 18;226515;2022-10-12 17:35:21:878
9.1872;0.8548;-0.9338;7.8235;-4.92;-3.2797;1.7381;4.4026;1.9469;-0.3811;-0.1943;1.1225;769.0;-39.9;8.19;-20.92;259.79;25.67;-109.85;5.0;982.0;60.213;35.95624;-83.92567;796.34;NaN;;3.82;12.226105;263.5;16 / 18;227014;2022-10-12 17:35:22:377
5.9411;-3.4104;-2.7592;9.6157;1.2079;-1.4998;-1.1969;-5.5055;-0.2891;1.1336;-0.2637;-1.7169;644.0;-35.18;20.33;-19.07;314.5;-7.08;-98.87;5.0;981.97;68.614;35.956238;-83.92568;798.43;NaN;;4.39;12.226105;256.1;16 / 18;227515;2022-10-12 17:35:22:878
9.2172;-1.1444;-1.8422;8.1903;-4.4912;-2.9863;0.8533;3.3963;0.5514;-0.4132;-0.1053;1.6398;795.0;-40.01;4.37;-22.61;260.54;16.53;-105.16;5.0;982.04;58.523;35.956238;-83.92568;798.43;NaN;;4.39;12.226105;256.1;16 / 18;228015;2022-10-12 17:35:23:378
7.8084;-4.3621;-3.5492;9.7134;0.9457;-0.9626;1.3251;-5.1818;0.2491;2.734;-0.3534;-2.9448;657.0;-33.49;24.81;-18.43;303.93;15.54;-101.91;5.0;981.92;66.116;35.95623;-83.92569;799.0;NaN;;4.61;12.226105;259.4;16 / 18;228515;2022-10-12 17:35:23:878
11.2977;1.7859;-0.8548;8.4651;-4.1012;-2.7736;2.3897;3.9423;0.4502;-0.8598;-0.1122;2.119;764.0;-40.03;-1.74;-23.96;258.16;8.45;-103.62;5.0;981.98;61.484;35.95623;-83.92569;799.0;NaN;;4.61;12.226105;259.4;16 / 18;229015;2022-10-12 17:35:24:378
6.4618;-3.7026;-2.0016;9.1946;2.8334;-1.8978;-0.869;-6.9569;0.2666;1.8515;0.2207;-2.8667;607.0;-35.4;21.9;-19.5;313.92;-0.59;-97.11;5.0;981.95;68.992;35.956226;-83.925705;800.57;NaN;;4.75;12.226105;245.2;16 / 18;229514;2022-10-12 17:35:24:877
10.9337;-0.6105;-2.0925;9.0153;-2.9711;-2.4633;3.4741;0.9123;-0.8703;-0.8667;0.0728;2.3069;700.0;-41.08;-3.36;-22.33;247.78;17.64;-105.28;5.0;982.02;59.461;35.956226;-83.925705;800.57;NaN;;4.75;12.226105;245.2;16 / 18;230015;2022-10-12 17:35:25:378
8.3937;-3.5886;-2.6169;9.6051;0.9054;-1.7587;1.1106;-4.83;0.5834;1.0606;0.7012;-2.3832;572.0;-36.41;23.49;-18.56;303.38;10.3;-101.49;5.0;981.99;59.921;35.956223;-83.92572;802.61;NaN;;4.54;12.226105;247.9;16 / 18;230514;2022-10-12 17:35:25:877
10.1175;0.4741;-3.6966;9.1829;-2.3073;-2.5537;1.3755;-2.3671;1.7876;1.2483;-1.9489;1.7347;623.0;-42.6;-0.32;-20.85;255.14;13.61;-105.54;5.0;982.01;66.187;35.956223;-83.92572;802.61;NaN;;4.54;12.226105;247.9;16 / 18;231014;2022-10-12 17:35:26:377
11.0704;-4.6708;-0.4789;9.6056;-0.3126;-1.9506;6.8495;-4.3228;-0.1872;1.0512;1.0406;-3.181;535.0;-36.88;24.17;-15.52;291.4;22.68;-109.72;5.0;982.02;65.38;35.95622;-83.92573;805.64;NaN;;4.57;12.226105;258.5;16 / 18;231514;2022-10-12 17:35:26:877
13.9696;-3.2094;-0.8501;9.2536;1.3865;-2.9359;-2.6344;-5.82;-0.078;-2.8034;0.609;4.1225;549.0;-40.52;-7.61;-18.28;263.89;-8.13;-107.6;5.0;982.05;54.832;35.95622;-83.92573;805.64;NaN;;4.57;12.226105;258.5;16 / 18;232014;2022-10-12 17:35:27:377
21.8127;-6.0559;-2.9004;8.4484;-4.0354;-2.9172;5.7367;2.6004;1.2359;-0.7562;0.8805;-3.4744;515.0;-35.36;19.82;-16.37;272.32;36.31;-114.48;5.0;982.07;54.786;35.956215;-83.92574;807.19;NaN;;4.72;12.226105;246.2;15 / 18;232514;2022-10-12 17:35:27:877
13.0681;-0.0742;-5.8834;8.6724;2.1583;-4.0375;-1.2448;-5.4524;1.1411;0.1974;-0.5244;1.3693;522.0;-33.24;-8.16;-17.04;279.87;-35.58;-119.32;5.0;982.11;57.871;35.956215;-83.92574;807.19;NaN;;4.72;12.226105;246.2;15 / 18;233014;2022-10-12 17:35:28:377
17.2472;0.2034;-3.8055;8.2412;-4.1278;-3.3488;3.1467;7.6725;1.3554;-0.1462;-0.0056;-0.455;521.0;-37.71;1.26;-14.29;246.8;24.89;-112.11;5.0;982.13;59.478;35.95621;-83.92576;807.74;NaN;;4.68;12.226105;263.7;16 / 18;233514;2022-10-12 17:35:28:877
8.6498;-5.4287;-1.8589;9.0736;2.1811;-3.0137;-3.4236;-5.2749;1.3474;-0.8085;-0.1251;-0.2722;517.0;-36.04;-1.99;-16.48;287.15;-20.28;-108.47;5.0;982.13;60.173;35.95621;-83.92576;807.74;NaN;;4.68;12.226105;263.7;16 / 18;234015;2022-10-12 17:35:29:378
12.3978;1.9765;-2.892;7.7108;-4.9786;-3.4536;3.6508;7.3783;0.1777;-0.0728;-0.0105;-0.5946;517.0;-34.63;4.33;-15.75;253.59;26.25;-111.68;5.0;982.13;59.603;35.956207;-83.92577;807.97;NaN;;4.57;12.226105;255.2;15 / 18;234515;2022-10-12 17:35:29:878
4.9355;-3.3015;-2.4347;8.6534;3.5189;-2.9844;-3.1143;-6.2824;0.0179;-0.7496;-0.3891;0.8064;496.0;-32.18;5.12;-15.64;296.55;-16.88;-106.98;5.0;982.12;63.21;35.956207;-83.92577;807.97;NaN;;4.57;12.226105;255.2;15 / 18;235014;2022-10-12 17:35:30:377
14.3827;-0.2886;-0.9434;7.1674;-5.2192;-4.1903;4.3415;8.155;3.1379;-1.2047;0.1939;1.5768;459.0;-29.23;7.76;-13.88;261.82;34.83;-119.85;5.0;982.11;56.512;35.956207;-83.92579;807.45;NaN;;4.54;12.226105;263.6;15 / 18;235514;2022-10-12 17:35:30:877
1.1551;-4.0448;-3.9754;7.0886;4.8394;-4.7436;-1.77;-10.0454;0.6771;0.1206;-0.7991;-0.5588;473.0;-27.22;9.54;-11.51;303.4;-29.57;-123.79;5.0;982.11;66.097;35.956207;-83.92579;807.45;NaN;;4.54;12.226105;263.6;15 / 18;236014;2022-10-12 17:35:31:377
11.7646;2.0913;-2.3282;7.4947;-5.1793;-3.6297;4.5237;7.0583;1.0923;-0.1475;-0.5599;2.4988;420.0;-31.2;-0.64;-10.69;244.05;21.55;-110.17;5.0;982.13;58.308;35.956207;-83.9258;808.57;NaN;;4.64;12.226105;271.6;15 / 18;236515;2022-10-12 17:35:31:878
2.9124;-3.3398;-3.1077;8.587;3.8802;-2.7163;1.1434;-8.655;1.0836;2.1804;-0.8883;-2.5848;466.0;-24.43;21.73;-10.26;329.14;-23.31;-107.55;5.0;982.11;65.146;35.956207;-83.9258;808.57;NaN;;4.64;12.226105;271.6;15 / 18;237015;2022-10-12 17:35:32:378
13.1435;1.5156;-1.6579;7.3946;-4.9986;-4.0626;5.9094;5.6477;2.107;-0.5588;-0.2125;1.1685;489.0;-30.15;6.66;-9.11;268.77;16.56;-110.44;5.0;982.12;64.478;35.95621;-83.92582;807.67;NaN;;4.54;12.226105;289.0;15 / 18;237515;2022-10-12 17:35:32:878
6.1337;-3.414;-3.699;9.489;1.8484;-1.6469;4.9686;-7.6028;0.5544;2.926;-0.2105;-3.508;531.0;-22.07;23.48;-6.38;339.93;-10.86;-99.85;5.0;982.12;67.269;35.95621;-83.92582;807.67;NaN;;4.54;12.226105;289.0;15 / 18;238015;2022-10-12 17:35:33:378
13.4166;1.8864;-3.6209;8.6705;-3.471;-2.9908;3.2806;4.1593;-0.9548;-0.2951;0.0237;2.938;458.0;-34.89;0.64;-10.89;279.26;-4.16;-105.29;5.0;982.11;60.324;35.956215;-83.92583;808.32;NaN;;4.61;12.226105;273.0;14 / 18;238515;2022-10-12 17:35:33:878
7.1883;-3.7636;-3.0835;8.9588;3.3219;-2.2081;-0.1443;-7.5931;1.0882;2.005;0.3467;-3.1798;443.0;-25.59;25.52;-10.71;330.59;-2.39;-99.65;5.0;982.18;61.613;35.956215;-83.92583;808.32;NaN;;4.61;12.226105;273.0;14 / 18;239015;2022-10-12 17:35:34:378
12.8085;-0.6165;-1.6663;8.6077;-3.6214;-2.9939;6.1207;-0.2829;-1.3034;-1.6698;0.2134;3.3643;399.0;-36.68;3.32;-10.76;248.72;21.67;-109.18;5.0;982.12;59.162;35.956215;-83.92584;809.58;NaN;;4.39;12.226105;270.2;14 / 18;239514;2022-10-12 17:35:34:877
10.4444;-6.1433;-0.7696;9.7118;0.8964;-1.0233;4.2528;-8.4395;0.4697;2.4561;-0.2775;-3.4775;359.0;-21.6;30.9;-5.31;335.13;21.18;-103.55;5.0;982.18;68.171;35.956215;-83.92584;809.58;NaN;;4.39;12.226105;270.2;14 / 18;240015;2022-10-12 17:35:35:378
11.7431;-1.057;-2.6827;9.5432;-0.6794;-2.1532;1.1415;-2.1454;0.1303;-0.0076;-0.6586;2.9276;364.0;-36.11;-1.07;-8.34;300.07;-20.48;-106.46;5.0;982.16;55.054;35.956215;-83.92586;811.21;NaN;;4.28;12.226105;268.5;14 / 18;240514;2022-10-12 17:35:35:877
13.8368;-6.0547;-1.8805;9.6293;-1.0546;-1.5282;4.6112;-2.0366;0.7733;1.3694;0.4704;-3.0154;337.0;-30.86;21.28;-6.41;289.96;27.88;-110.0;5.0;982.18;52.6;35.956215;-83.92586;811.21;NaN;;4.28;12.226105;268.5;14 / 18;241014;2022-10-12 17:35:36:377
11.5899;-2.3593;-2.5798;8.6105;-3.919;-2.5827;5.5658;-0.2802;0.1935;-1.0946;0.237;3.6027;350.0;-35.96;-0.15;-16.93;269.83;0.14;-103.65;5.0;982.14;53.504;35.95622;-83.925865;810.15;NaN;;4.32;12.226105;269.0;14 / 18;241515;2022-10-12 17:35:36:878
14.0988;-8.505;-1.4916;8.9496;-3.0762;-2.5712;8.9385;0.0841;8.2186;3.288;1.0623;-4.1176;330.0;-22.18;29.42;-8.08;327.49;18.28;-106.03;5.0;982.09;55.494;35.95622;-83.925865;810.15;NaN;;4.32;12.226105;269.0;14 / 18;242014;2022-10-12 17:35:37:377
15.7747;-4.8613;-1.4761;9.5273;-0.5257;-2.2638;-1.0173;-4.8335;-0.2484;-0.5198;-0.3127;2.4337;358.0;-35.61;-3.26;-11.38;256.02;3.07;-103.37;5.0;982.12;55.788;35.95622;-83.92588;811.47;NaN;;4.5;12.226105;273.0;15 / 18;242515;2022-10-12 17:35:37:878
16.8867;-1.3155;-0.5435;7.5727;-5.1152;-3.5579;6.1708;6.5414;3.5028;-0.0018;1.1503;-2.5391;326.0;-25.67;22.65;-9.92;295.44;31.44;-115.17;5.0;982.18;63.69;35.95622;-83.92588;811.47;NaN;;4.5;12.226105;273.0;15 / 18;243015;2022-10-12 17:35:38:378
5.9351;-7.3044;-3.2166;9.256;1.4778;-2.8831;-5.141;-7.6164;0.0693;-1.2172;0.4908;4.4422;340.0;-33.71;3.86;-10.12;310.74;-29.76;-109.23;5.0;982.14;64.721;35.956223;-83.92589;811.22;NaN;;4.39;12.226105;273.9;15 / 18;243514;2022-10-12 17:35:38:877
