sep=;
ACCELEROMETER X (m/s²);ACCELEROMETER Y (m/s²);ACCELEROMETER Z (m/s²);GRAVITY X (m/s²);GRAVITY Y (m/s²);GRAVITY Z (m/s²);LINEAR ACCELERATION X (m/s²);LINEAR ACCELERATION Y (m/s²);LINEAR ACCELERATION Z (m/s²);GYROSCOPE X (rad/s);GYROSCOPE Y (rad/s);GYROSCOPE Z (rad/s);LIGHT (lux);MAGNETIC FIELD X (μT);MAGNETIC FIELD Y (μT);MAGNETIC FIELD Z (μT);ORIENTATION Z (azimuth °);ORIENTATION X (pitch °);ORIENTATION Y (roll °);PROXIMITY (i);ATMOSPHERIC PRESSURE (hPa);SOUND LEVEL (dB);LOCATION Latitude : ;LOCATION Longitude : ;LOCATION Altitude ( m);LOCATION Altitude-google ( m);LOCATION Altitude-atmospheric pressure ( m);LOCATION Speed ( Kmh);LOCATION Accuracy ( m);LOCATION ORIENTATION (°);Satellites in range;Time since start in ms ;YYYY-MO-DD HH-MI-SS_SSS
-1.1551;4.1704;7.4444;-0.6281;4.5753;8.6512;-0.1705;-1.0781;0.4141;-0.0878;0.2441;0.1772;18016.0;1.89;-3.0;-40.63;3.38;-27.81;4.15;5.0;979.03;52.828;35.956078;-83.92755;797.45;NaN;;3.71;17.81264;45.5;11 / 15;34;2022-10-13 13:21:28:208
0.8127;3.7756;9.4639;-0.5911;3.5572;9.1196;-0.5142;-0.9777;0.7771;0.6774;-1.2824;-1.5903;21066.0;-2.49;-2.79;-40.48;34.25;-23.83;9.94;5.0;979.0;53.1;35.95609;-83.92755;792.74;NaN;;3.96;15.370852;45.4;11 / 15;535;2022-10-13 13:21:28:709
-0.3221;4.3143;8.8618;-0.529;4.0423;8.9191;-0.4092;-0.6289;5.2575;0.7629;0.3485;1.0067;20862.0;-8.06;-5.42;-38.21;43.24;-24.34;3.39;5.0;978.99;55.62;35.95609;-83.92755;792.74;NaN;;3.96;15.370852;45.4;11 / 15;1035;2022-10-13 13:21:29:209
3.7469;4.9989;2.8681;3.4914;5.0448;7.6505;2.8676;1.0777;3.8593;-1.8826;2.1396;-1.269;19570.0;-12.09;-5.68;-33.24;347.79;-30.96;-24.53;5.0;978.97;55.77;35.956127;-83.927536;791.74;NaN;;4.9;14.103614;37.4;11 / 15;1535;2022-10-13 13:21:29:709
-7.2386;-5.54;11.6234;-4.2024;0.2861;8.856;-0.955;-3.4563;2.1795;-0.2971;1.8825;2.4862;25566.0;1.05;16.22;-33.23;38.12;-1.67;25.39;5.0;979.02;61.945;35.956127;-83.927536;791.74;NaN;;4.9;14.103614;37.4;11 / 15;2035;2022-10-13 13:21:30:209
-2.5391;1.1779;6.4845;-3.7158;0.2508;9.072;-1.9987;-1.8145;2.0547;-0.0412;-0.1697;-0.0172;24190.0;15.02;17.83;-30.13;352.42;-1.47;22.27;5.0;978.98;59.891;35.956154;-83.92752;793.03;NaN;;4.72;12.226105;38.9;11 / 15;2534;2022-10-13 13:21:30:708
-1.4115;0.5662;8.8331;-2.6316;0.6303;9.4259;-3.8531;-2.4199;2.0746;-0.4867;-0.6189;0.2223;24497.0;12.45;17.94;-29.25;356.39;-9.12;19.86;5.0;979.02;56.642;35.956154;-83.92752;793.03;NaN;;4.72;12.226105;38.9;11 / 15;3034;2022-10-13 13:21:31:208
-0.5518;2.5427;8.013;0.5548;3.26;9.2323;0.4753;-0.2163;-0.0305;-0.3228;0.4538;-0.192;23994.0;-0.92;13.26;-33.43;357.58;-19.42;-3.44;5.0;979.0;58.731;35.956158;-83.92751;788.73;NaN;;4.93;12.226105;38.2;11 / 15;3535;2022-10-13 13:21:31:709
-0.8788;2.6731;8.4535;-0.5154;3.213;9.251;-1.1051;-2.1727;5.0808;0.1717;0.2295;0.5882;22726.0;-4.78;5.78;-37.44;21.74;-19.13;3.19;5.0;979.03;57.708;35.956158;-83.92751;788.73;NaN;;4.93;12.226105;38.2;11 / 15;4035;2022-10-13 13:21:32:209
-3.1807;3.5348;8.4452;-1.2313;3.6875;9.0031;0.4427;-0.5843;2.4347;1.1795;1.1679;0.2539;23401.0;-1.26;7.78;-38.81;9.96;-19.23;3.79;5.0;979.02;57.879;35.95617;-83.927505;786.26;NaN;;4.61;12.226105;35.7;11 / 15;4535;2022-10-13 13:21:32:709
-3.711;4.9905;4.9905;-2.3527;4.0548;8.6136;-2.0985;-0.9125;2.5657;0.7433;-0.76;0.3789;24846.0;1.89;4.56;-38.66;22.32;-24.42;15.28;5.0;979.04;58.557;35.95617;-83.927505;786.26;NaN;;4.61;12.226105;35.7;11 / 15;5035;2022-10-13 13:21:33:209
-0.7181;2.3809;11.9166;0.0809;3.7728;9.0515;0.6221;-0.8354;2.7532;-0.1834;0.0602;-0.1193;23532.0;3.38;8.18;-39.04;353.41;-21.81;0.68;5.0;978.99;58.683;35.956177;-83.9275;781.07;NaN;;4.61;12.226105;34.3;11 / 15;5535;2022-10-13 13:21:33:709
-0.5243;1.7824;8.2442;0.0717;3.8005;9.04;-0.2102;0.0696;-0.7096;-1.018;-1.134;-0.6715;28351.002;0.53;6.94;-39.82;356.57;-22.8;-0.45;5.0;979.07;61.889;35.956177;-83.9275;781.07;NaN;;4.61;12.226105;34.3;11 / 15;6035;2022-10-13 13:21:34:209
-6.7944;1.6783;7.8383;-5.9789;3.7956;6.7836;2.6832;0.5677;2.1682;3.1217;6.3733;-2.3411;22916.0;-4.05;8.98;-37.28;5.66;-15.46;-3.33;5.0;979.04;62.782;35.956177;-83.9275;781.07;NaN;;4.61;12.226105;34.3;11 / 15;6535;2022-10-13 13:21:34:709
-13.8117;-4.6481;1.1324;-8.8908;-4.0102;-1.0212;-9.7023;-2.9381;-1.822;-3.0319;-4.9016;-2.1544;2505.0;33.62;6.41;-3.15;81.07;5.96;119.64;5.0;979.04;62.192;35.95619;-83.92749;776.13;NaN;;4.5;12.226105;36.9;11 / 15;7036;2022-10-13 13:21:35:210
-14.3611;-2.7736;-0.8186;-9.0577;-3.4535;-1.4837;-5.6074;1.361;-1.4246;-1.4398;-1.2908;2.9753;3017.0;24.94;33.3;1.28;23.75;38.21;103.17;5.0;978.97;59.015;35.956196;-83.92749;778.04;NaN;;3.78;12.226105;25.7;12 / 15;7535;2022-10-13 13:21:35:709
-12.4851;-2.6874;-3.3625;-9.1367;2.9668;-1.9723;-0.0474;-5.8757;-0.1881;-0.6905;0.7297;-1.5693;4154.0;30.66;18.62;2.01;9.5;-17.61;102.18;5.0;979.02;58.98;35.956196;-83.92749;778.04;NaN;;3.78;12.226105;25.7;12 / 15;8034;2022-10-13 13:21:36:208
-10.1964;-1.4916;-2.2361;-8.8069;-3.3824;-2.6775;-7.1788;2.7752;0.9831;0.5769;0.0042;1.7454;2237.0;22.63;27.28;5.46;8.33;24.94;107.48;5.0;978.98;61.811;35.956196;-83.92749;778.04;NaN;;3.78;12.226105;25.7;12 / 15;8535;2022-10-13 13:21:36:709
-10.1498;-1.6591;-3.1292;-9.3316;0.9708;-2.8545;-0.5899;-2.8937;-1.9957;-1.0543;-0.5097;-2.2473;2036.0;33.94;23.21;9.86;0.83;-5.68;107.01;5.0;979.02;58.461;35.956207;-83.92749;782.44;NaN;;3.38;12.226105;18.7;12 / 15;9035;2022-10-13 13:21:37:209
-12.6781;-3.6595;-1.6316;-8.4371;-4.4003;-2.3716;-7.0221;3.6284;-0.2788;-0.6626;-0.6008;1.1124;1911.0;26.89;31.44;12.43;343.68;23.86;104.52;5.0;979.0;56.983;35.956215;-83.92749;784.07;NaN;;3.85;12.228628;15.8;13 / 15;9535;2022-10-13 13:21:37:709
-10.261;-1.2568;-3.1364;-9.278;1.8897;-2.5531;0.4548;-2.8713;0.3468;-0.4345;0.0697;-1.4475;1667.0;35.19;27.0;16.33;342.35;-10.9;98.49;5.0;979.0;55.537;35.956215;-83.92749;784.07;NaN;;3.85;12.228628;15.8;13 / 15;10035;2022-10-13 13:21:38:209
-12.0748;-1.0463;-0.8234;-8.7232;-3.4598;-2.8473;-4.4245;4.1191;0.96;-0.6421;-0.6834;0.2372;1654.0;35.81;32.53;22.97;332.59;15.23;107.81;5.0;978.96;53.973;35.956215;-83.92749;784.07;NaN;;3.85;12.228628;15.8;13 / 15;10535;2022-10-13 13:21:38:709
-11.5182;-3.2656;-2.2911;-9.696;0.5755;-1.3517;-0.742;-5.5663;-1.0028;-0.5487;0.1865;-2.2712;3563.0;47.08;25.11;14.19;345.14;-3.36;97.94;5.0;978.99;54.012;35.956226;-83.92748;788.18;NaN;;3.78;12.226105;30.3;13 / 15;11034;2022-10-13 13:21:39:208
-14.3982;-5.0946;-1.2317;-8.2962;-4.7965;-2.0825;-6.3633;2.5664;0.2212;0.2553;-0.0431;1.6181;1915.0;40.74;38.7;12.99;348.12;27.84;103.54;5.0;978.99;51.849;35.95624;-83.927475;784.53;NaN;;3.96;12.456687;39.8;13 / 15;11535;2022-10-13 13:21:39:709
-7.4013;-3.2429;-0.0634;-9.2297;0.1127;-3.3121;0.3961;-6.3134;2.46;-1.1827;-0.0121;-0.5554;2724.0;44.78;25.28;10.56;12.11;0.33;110.31;5.0;979.04;53.259;35.95624;-83.927475;784.53;NaN;;3.96;12.456687;39.8;13 / 15;12034;2022-10-13 13:21:40:208
-12.647;-4.8015;-1.2532;-7.7681;-5.7557;-1.6429;-4.3779;2.7396;-2.2272;1.0613;0.5626;-1.103;2955.0;39.54;25.24;6.41;56.09;30.57;100.57;5.0;978.98;56.52;35.95625;-83.92747;786.07;NaN;;4.21;12.454271;40.3;13 / 15;12535;2022-10-13 13:21:40:709
-7.7378;-6.8495;-2.5738;-9.5087;-0.2776;-2.3827;3.7486;-3.4746;0.858;-0.7078;0.2169;-0.876;3622.0;34.93;31.13;0.73;14.09;1.62;104.07;5.0;979.03;56.845;35.95625;-83.92747;786.07;NaN;;4.21;12.454271;40.3;13 / 15;13034;2022-10-13 13:21:41:208
-13.7519;-5.4203;-5.8032;-6.7226;-6.7128;-2.4323;-5.2943;4.8704;0.5002;0.6882;0.8095;0.348;3707.0;28.5;37.99;1.61;20.84;33.53;106.02;5.0;978.99;53.592;35.95625;-83.92747;786.07;NaN;;4.21;12.454271;40.3;12 / 15;13535;2022-10-13 13:21:41:709
-8.5193;-7.2003;-3.8689;-9.3789;-1.188;-2.6066;4.8055;-4.1778;0.8384;0.0993;0.6961;0.1138;3367.0;28.41;40.88;3.41;7.04;6.96;105.53;5.0;979.02;51.776;35.956257;-83.92746;787.47;NaN;;3.78;12.585245;40.0;12 / 15;14035;2022-10-13 13:21:42:209
-15.929;-5.1185;-4.9774;-7.0347;-5.8563;-3.5194;-2.0514;4.2348;-0.2543;0.4779;-0.0376;-0.5024;2955.0;34.35;41.01;11.78;10.34;29.9;114.56;5.0;979.02;51.262;35.95627;-83.927444;783.09;NaN;;3.96;12.226105;39.2;12 / 15;14534;2022-10-13 13:21:42:708
-4.5823;2.467;4.0962;-4.1606;5.6699;6.8346;-2.0;-6.1411;-3.3486;-0.2173;-2.8241;2.3341;14821.0;36.49;24.51;-6.45;351.96;-24.19;72.17;5.0;979.01;50.913;35.95627;-83.927444;783.09;NaN;;3.96;12.226105;39.2;12 / 15;15035;2022-10-13 13:21:43:209
0.4119;5.7565;8.365;0.0388;5.015;8.4273;0.0918;0.7016;-1.3234;-0.2805;-1.2223;-0.416;20383.0;10.61;-3.19;-40.52;341.28;-33.41;5.57;5.0;978.96;51.355;35.956276;-83.92743;778.85;NaN;;4.14;12.226105;41.3;12 / 15;15534;2022-10-13 13:21:43:708
0.8596;5.1556;8.6498;0.083;4.3122;8.8073;0.3819;0.4435;-0.7407;-0.1044;-0.0412;-0.1106;23186.0;-2.29;2.1;-43.11;4.4;-26.09;-0.54;5.0;978.98;50.878;35.956276;-83.92743;778.85;NaN;;4.14;12.226105;41.3;12 / 15;16035;2022-10-13 13:21:44:209
0.9242;4.6098;8.1365;0.5573;3.7143;9.0589;0.1172;0.9765;-1.4562;-0.0654;-0.4994;-0.1608;22247.0;0.66;4.86;-44.34;356.62;-22.6;-0.35;5.0;978.93;50.127;35.956287;-83.92742;775.27;NaN;;4.03;12.360048;43.2;12 / 15;16535;2022-10-13 13:21:44:709
0.1986;2.5343;11.3803;0.2463;2.1781;9.5585;0.2251;0.3169;-0.8472;0.2843;0.3801;0.0073;22018.0;0.19;12.39;-47.44;356.87;-12.83;-1.48;5.0;978.93;49.704;35.956287;-83.92742;775.27;NaN;;4.03;12.360048;43.2;12 / 15;17036;2022-10-13 13:21:45:210
-0.4155;3.536;10.3256;0.2211;2.9047;9.364;-0.7023;0.5039;-0.2279;-0.0116;-0.1328;-0.0545;21370.0;3.94;10.33;-53.12;349.48;-16.72;-0.66;5.0;978.97;50.276;35.956295;-83.927414;773.56;NaN;;3.96;12.226105;43.4;12 / 15;17534;2022-10-13 13:21:45:708
0.9135;4.3669;7.8419;0.6628;3.3033;9.2097;0.1713;0.5073;-2.1137;0.1812;0.4416;0.2495;20669.0;3.62;0.38;-56.93;337.02;-19.68;-4.12;5.0;978.95;50.039;35.956295;-83.927414;773.56;NaN;;3.96;12.226105;43.4;12 / 15;18035;2022-10-13 13:21:46:209
-0.5746;4.9666;6.8865;-1.0059;4.0928;8.8548;0.5683;0.6379;-2.3045;0.3176;0.3741;0.4714;20446.0;13.33;-7.67;-53.31;328.12;-21.51;5.68;5.0;978.96;49.493;35.956303;-83.92741;772.07;NaN;;3.85;12.565764;39.9;13 / 15;18534;2022-10-13 13:21:46:708
-3.6535;7.1369;-9.9619;-3.9658;8.4821;2.9148;0.5967;-1.1065;-0.1533;2.8339;4.4942;-0.7978;14885.0;23.89;-27.0;-24.09;18.33;-59.88;53.68;5.0;978.96;49.931;35.956303;-83.92741;772.07;NaN;;3.85;12.565764;39.9;13 / 15;19035;2022-10-13 13:21:47:209
0.1041;7.7318;-3.8701;-1.4191;8.4763;-4.7233;0.7725;-2.2303;-0.1843;-0.8974;-0.2805;-0.313;3711.0;14.91;-26.68;36.49;11.35;-59.81;163.28;5.0;978.98;56.604;35.956318;-83.9274;772.7;NaN;;4.0;12.226105;36.1;13 / 15;19535;2022-10-13 13:21:47:709
-0.4382;2.7078;-0.9218;-3.733;8.9228;-1.6183;2.9348;-3.8116;-2.8018;-0.7268;-1.0639;-1.1336;7511.0;14.06;-29.74;20.79;296.54;-65.49;113.44;5.0;979.0;52.987;35.956318;-83.9274;772.7;NaN;;4.0;12.226105;36.1;13 / 15;20034;2022-10-13 13:21:48:208
-14.8193;-1.8697;1.8075;-9.7791;0.5578;-0.4779;-6.0281;-4.638;2.014;-0.6541;2.7385;-1.7151;8467.0;25.18;-17.06;5.44;252.78;-29.64;76.0;5.0;979.0;52.999;35.95633;-83.92739;769.44;NaN;;3.96;12.256738;29.4;13 / 15;20534;2022-10-13 13:21:48:708
-6.9188;-3.0909;-3.2883;-9.4576;1.6367;-2.0115;0.7721;-5.8509;-0.0953;2.6051;-0.7106;2.8981;3596.0;29.57;5.19;20.93;275.43;6.39;106.49;5.0;978.98;47.941;35.95633;-83.92739;769.44;NaN;;3.96;12.256738;29.4;13 / 15;21034;2022-10-13 13:21:49:208
-8.8152;-0.9864;-0.3138;-9.0555;-1.762;-3.3262;-4.1449;-1.6408;-3.9378;-1.9165;-0.7949;-2.2534;4869.0;31.63;1.71;21.56;243.51;10.35;110.17;5.0;979.02;51.688;35.95634;-83.92738;764.67;NaN;;4.36;12.226105;31.4;13 / 15;21535;2022-10-13 13:21:49:709
-6.2701;-3.2034;-2.8729;-9.4912;-1.1056;-2.2057;-2.3589;-4.1198;-0.4241;3.688;0.7171;3.1611;2833.0;27.58;10.63;19.69;299.2;6.47;103.08;5.0;978.97;48.197;35.95634;-83.92738;764.67;NaN;;4.36;12.226105;31.4;13 / 15;22034;2022-10-13 13:21:50:208
-8.6246;-0.9577;0.0694;-8.3572;-4.0506;-3.1496;-2.4812;0.7758;1.5172;-2.3029;-0.498;-2.2954;4018.0;18.83;5.21;16.28;276.99;9.46;107.76;5.0;979.02;53.676;35.956352;-83.92737;761.36;NaN;;4.18;12.226105;40.2;13 / 15;22534;2022-10-13 13:21:50:708
-9.2952;-3.8402;-5.0157;-9.1601;-2.5528;-2.3971;-4.6914;-4.8137;0.1233;0.7762;2.0698;3.7475;2989.0;6.88;9.41;20.66;286.64;15.09;104.66;5.0;979.0;48.644;35.956352;-83.92737;761.36;NaN;;4.18;12.226105;40.2;13 / 15;23035;2022-10-13 13:21:51:209
-10.8643;-0.4178;1.014;-9.7318;-0.3301;-1.1634;-2.2459;-1.1926;-0.7342;-4.5332;-2.2251;-4.6908;3466.0;3.71;17.48;23.33;319.36;-20.87;119.18;5.0;979.0;50.834;35.95636;-83.92736;758.56;NaN;;4.25;12.226105;52.0;13 / 15;23535;2022-10-13 13:21:51:709
-14.8229;-4.1656;0.6428;-9.6803;-1.3375;0.8206;-4.8112;-4.0106;3.2211;7.3271;2.1657;5.8591;4775.0;6.11;3.83;31.61;276.19;7.84;85.15;5.0;978.96;50.361;35.95636;-83.92736;758.56;NaN;;4.25;12.226105;52.0;13 / 15;24034;2022-10-13 13:21:52:208
-3.0885;-0.5638;6.0763;-7.9548;1.5588;5.5192;-1.7379;-2.9346;2.4128;-2.077;-0.0945;-0.503;3722.0;29.55;15.11;17.53;312.14;-34.61;69.56;5.0;979.01;49.8;35.956367;-83.927345;758.08;NaN;;4.46;12.226105;59.0;12 / 15;24534;2022-10-13 13:21:52:708
-2.9387;-4.4255;-0.8572;-8.1843;4.3954;3.1412;-0.3721;-8.8923;0.2419;8.0447;0.5643;1.5723;8717.0;33.08;14.93;12.06;295.25;5.79;60.29;5.0;978.95;48.892;35.956367;-83.927345;758.08;NaN;;4.46;12.226105;59.0;12 / 15;25035;2022-10-13 13:21:53:209
-8.6294;2.5439;-4.7198;-7.4814;5.1046;-3.7606;-6.2546;-2.7805;0.4032;-3.9293;0.3046;-1.1279;3858.0;36.88;6.64;4.03;28.4;-31.37;116.69;5.0;979.06;58.019;35.956367;-83.927345;758.08;NaN;;4.46;12.226105;59.0;12 / 15;25535;2022-10-13 13:21:53:709
-15.7292;-10.7076;20.2828;-9.368;2.8444;0.5664;0.1519;6.3605;-4.814;-10.0196;-5.8008;-7.6088;5665.0;37.97;15.83;16.2;2.91;-30.64;115.29;5.0;978.93;56.279;35.956375;-83.92733;758.19;NaN;;4.28;12.226105;58.2;12 / 15;26035;2022-10-13 13:21:54:209
-9.4699;-1.0738;-5.5926;-4.9262;4.7106;-7.0508;3.034;-3.6277;-10.5374;-7.5228;-4.3245;-5.2126;2536.0;39.51;8.16;14.79;45.32;-28.71;145.06;5.0;978.96;60.344;35.95638;-83.92732;753.62;NaN;;4.72;12.226105;62.4;12 / 15;26535;2022-10-13 13:21:54:709
-9.859;-11.0788;9.2713;-7.0368;-3.1286;6.0717;-7.1345;-9.7433;10.2592;5.1873;-1.0255;-3.341;9353.0;45.08;23.04;6.17;308.75;7.66;68.92;5.0;978.92;63.601;35.95638;-83.92732;753.62;NaN;;4.72;12.226105;62.4;12 / 15;27035;2022-10-13 13:21:55:209
-10.9986;-1.3502;-3.9873;-8.0115;1.8819;-5.3333;0.1171;-4.0615;-3.5974;-3.5871;-1.2851;-1.0455;1913.0;40.18;21.83;-5.4;16.16;-19.58;96.95;5.0;979.07;61.219;35.956387;-83.92731;750.18;NaN;;4.97;12.226105;55.4;12 / 15;27535;2022-10-13 13:21:55:709
-18.1472;-3.5922;7.247;-9.7216;-0.531;-1.1745;-4.0785;-4.0338;8.4199;3.2392;2.3398;-0.3656;5502.0;45.19;16.43;14.34;320.14;-3.61;87.86;5.0;978.9;63.387;35.956387;-83.92731;750.18;NaN;;4.97;12.226105;55.4;12 / 15;28035;2022-10-13 13:21:56:209
-9.5465;-5.4562;-5.3509;-9.3234;1.9754;-2.3112;5.3132;-5.1775;-0.5454;2.367;1.8141;-0.6394;1679.0;45.88;19.59;10.31;2.68;-11.62;103.92;5.0;979.06;62.038;35.9564;-83.927284;750.27;NaN;;5.54;12.226105;51.4;12 / 15;28534;2022-10-13 13:21:56:708
-15.1881;-8.0668;0.9266;-4.2234;-6.9794;-5.4426;-11.8295;5.6555;2.9346;-1.8935;-3.5796;0.9583;2302.0;20.27;26.16;16.03;84.83;45.37;142.19;5.0;978.99;60.707;35.9564;-83.927284;750.27;NaN;;5.54;12.226105;51.4;12 / 15;29035;2022-10-13 13:21:57:209
-7.3929;-5.6692;-3.0535;-9.5668;1.4535;-1.5922;3.8531;-6.7213;-0.2752;0.594;0.6761;-1.9321;1875.0;38.98;17.96;7.29;355.82;-9.27;97.62;5.0;979.0;60.342;35.95641;-83.92728;748.17;NaN;;5.08;12.226105;44.0;12 / 15;29535;2022-10-13 13:21:57:709
-14.8974;-1.3322;-1.9908;-4.2996;-7.467;-4.6827;-10.3891;5.9066;2.7005;-0.0388;0.507;-0.6894;1947.0;34.5;37.16;8.98;76.94;44.22;126.05;5.0;979.0;58.412;35.95641;-83.92728;748.17;NaN;;5.08;12.226105;44.0;12 / 15;30035;2022-10-13 13:21:58:209
-4.0866;-4.1166;-2.3115;-9.5508;1.5975;-1.5496;3.749;-7.2399;0.2681;0.4083;0.5891;-0.2152;1732.0;41.25;17.85;-3.52;23.44;-9.38;99.22;5.0;979.05;55.181;35.95642;-83.92726;746.73;NaN;;5.36;12.226105;45.9;12 / 15;30535;2022-10-13 13:21:58:709
-16.9322;-2.3928;-0.6679;-2.4165;-8.4967;-4.2587;-11.6764;4.5271;4.0143;-0.2949;-1.3134;-0.5903;1717.0;35.51;19.91;-8.94;97.92;39.98;114.83;5.0;979.03;49.18;35.95642;-83.92726;746.73;NaN;;5.36;12.226105;45.9;12 / 15;31035;2022-10-13 13:21:59:209
-2.7185;-5.4885;-3.3697;-9.762;-0.8739;-0.3307;3.8221;-6.7843;-2.6999;1.2946;0.3438;2.1031;1345.0;22.46;38.83;-12.47;19.03;5.11;91.94;5.0;979.05;53.741;35.95643;-83.92725;745.88;NaN;;5.26;12.226105;47.6;12 / 15;31534;2022-10-13 13:21:59:708
-22.5775;1.27;-0.1771;-3.2943;-8.0582;-4.5148;-11.2362;3.9366;4.4393;-1.0923;1.4091;1.1066;1586.0;26.98;15.94;-16.74;77.04;55.26;143.88;5.0;979.08;49.558;35.95643;-83.92725;745.88;NaN;;5.26;12.226105;47.6;12 / 15;32035;2022-10-13 13:22:00:209
-3.4618;-4.2449;-3.2393;-9.533;2.0919;-0.9575;6.4742;-5.7689;-1.5661;0.9751;0.4671;0.139;1047.0;22.46;5.91;-17.27;43.93;3.12;93.53;5.0;979.05;52.007;35.956436;-83.92724;745.4;NaN;;5.22;12.226105;50.3;12 / 15;32535;2022-10-13 13:22:00:709
-16.0645;-3.7349;-2.8848;-6.7789;-6.6461;-2.4589;-4.0502;4.7669;0.9014;0.6212;0.1067;-1.2487;1429.0;22.01;4.35;-18.04;102.09;33.47;108.05;5.0;979.05;50.951;35.956436;-83.92724;745.4;NaN;;5.22;12.226105;50.3;12 / 15;33034;2022-10-13 13:22:01:208
-7.3475;-6.6245;-2.0853;-9.6892;-0.8958;-1.2198;2.8596;-5.7219;-0.2454;0.5152;1.3501;-1.8489;931.0;24.19;16.29;-20.38;58.52;5.24;97.18;5.0;979.06;53.521;35.956444;-83.92723;744.91;NaN;;5.08;12.226105;48.3;12 / 15;33536;2022-10-13 13:22:01:710
-15.7831;-5.4287;-2.1272;-7.3389;-5.984;-2.5498;-6.411;2.3989;0.2684;-0.326;-0.4295;0.3803;1139.0;29.44;20.14;-17.44;80.76;32.62;103.55;5.0;979.08;52.182;35.956444;-83.92723;744.91;NaN;;5.08;12.226105;48.3;12 / 15;34035;2022-10-13 13:22:02:209
-12.3703;-5.1568;-4.5009;-9.7897;-0.0147;-0.5765;4.1878;-3.5661;-1.5104;0.179;1.2418;-0.1041;1113.0;31.01;17.89;-18.11;47.78;0.09;93.37;5.0;979.09;53.496;35.956455;-83.92722;745.0;NaN;;5.15;12.226105;42.9;12 / 15;34535;2022-10-13 13:22:02:709
-12.3691;-2.3342;-0.9039;-6.9836;-6.1466;-3.1014;-5.3185;3.7626;1.5494;-0.2491;-0.4177;0.1705;1078.0;27.28;24.86;-14.1;72.31;38.81;113.95;5.0;979.1;48.0;35.956455;-83.92722;745.0;NaN;;5.15;12.226105;42.9;12 / 15;35035;2022-10-13 13:22:03:209
-8.237;-6.0105;-2.0889;-9.5087;-1.1265;-2.1181;0.6219;-5.731;-0.6654;0.2524;0.7349;0.1922;1069.0;23.61;17.89;-19.07;47.07;12.15;96.29;5.0;979.08;48.875;35.956463;-83.927216;744.82;NaN;;5.22;12.226105;35.6;12 / 15;35535;2022-10-13 13:22:03:709
-13.2957;-2.9578;-1.1384;-7.1362;-5.8816;-3.2638;-8.6033;1.3977;1.9149;-0.5114;-0.9645;0.9138;1015.0;18.21;20.89;-15.77;62.98;34.11;108.38;5.0;979.09;48.545;35.956463;-83.927216;744.82;NaN;;5.22;12.226105;35.6;12 / 15;36035;2022-10-13 13:22:04:209
-13.322;-5.9662;-3.7624;-9.711;0.5342;-1.2573;4.7234;-3.7683;-1.2211;-0.3389;0.7063;-0.5256;833.0;9.88;21.94;-6.73;20.12;-3.12;97.38;5.0;979.1;49.243;35.95647;-83.9272;744.89;NaN;;5.18;12.226105;36.3;12 / 15;36536;2022-10-13 13:22:04:710
-16.596;-5.9818;-1.5191;-7.4116;-5.8109;-2.7336;-7.589;1.7201;1.225;0.1209;-0.757;1.4811;929.0;-4.93;31.99;-0.02;356.53;36.34;110.25;5.0;979.1;52.01;35.95647;-83.9272;744.89;NaN;;5.18;12.226105;36.3;12 / 15;37035;2022-10-13 13:22:05:209
-10.0911;-5.2597;-2.1655;-9.7562;0.1498;-0.9824;4.7229;-3.5148;-1.0838;-0.3287;0.6436;-0.6919;819.0;30.98;32.1;-3.47;5.58;4.78;93.98;5.0;979.09;48.505;35.956486;-83.92719;745.41;NaN;;5.15;12.226105;39.4;12 / 15;37535;2022-10-13 13:22:05:709
-15.4887;-6.1684;-1.6268;-7.3035;-5.9766;-2.6665;-4.0923;3.3234;1.4899;0.1972;-0.1076;0.7087;860.0;33.56;43.14;1.07;36.13;37.37;109.89;5.0;979.09;48.641;35.956486;-83.92719;745.41;NaN;;5.15;12.226105;39.4;12 / 15;38035;2022-10-13 13:22:06:209
-8.9492;-6.1863;-2.0411;-9.5894;-0.4279;-2.0078;0.6344;-4.9493;-0.5552;-0.8815;0.3169;-2.0621;1237.0;41.68;25.58;-3.24;18.87;-0.95;98.42;5.0;979.1;49.208;35.956493;-83.927185;741.47;NaN;;5.8;12.226105;52.9;12 / 15;38535;2022-10-13 13:22:06:709
-15.0063;-4.6409;-1.5347;-6.8933;-6.4872;-2.5629;-5.8403;4.766;0.7933;0.4155;0.4946;-0.3364;819.0;33.69;26.7;-2.48;76.95;36.45;107.52;5.0;979.11;50.573;35.956493;-83.927185;741.47;NaN;;5.8;12.226105;52.9;12 / 15;39035;2022-10-13 13:22:07:209
-7.9723;-5.9471;-2.5391;-9.7351;0.9191;-0.7443;4.6922;-4.6432;-0.5636;-0.0709;0.6013;-0.6342;2150.0;32.81;14.57;-10.44;30.0;9.29;97.77;5.0;979.08;51.859;35.9565;-83.92717;743.39;NaN;;5.33;12.226105;51.6;12 / 15;39535;2022-10-13 13:22:07:709
-16.3552;-6.038;-1.6149;-6.655;-6.6602;-2.7427;-3.7837;6.5655;0.5684;0.3134;0.2471;-0.757;779.0;29.06;18.83;-8.62;95.7;42.78;112.4;5.0;979.13;49.729;35.9565;-83.92717;743.39;NaN;;5.33;12.226105;51.6;12 / 15;40035;2022-10-13 13:22:08:209
-4.9415;-3.7505;-1.5347;-9.7053;0.6932;-1.2234;3.1593;-5.9754;0.3682;0.4904;0.2172;0.7374;2487.0;31.37;10.69;-10.69;50.77;16.11;102.67;5.0;979.1;51.984;35.9565;-83.92717;743.39;NaN;;5.33;12.226105;51.6;12 / 15;40535;2022-10-13 13:22:08:709
-11.9824;-2.455;-1.5718;-7.458;-5.9233;-2.3376;-3.358;6.4158;-0.3466;0.7079;0.4649;1.1182;1033.0;34.99;7.88;-9.3;122.57;37.16;107.4;5.0;979.11;60.73;35.956505;-83.927155;745.38;NaN;;4.68;12.226105;59.9;12 / 15;41035;2022-10-13 13:22:09:209
-6.4352;-7.2147;-1.2437;-9.7486;0.5611;-0.9058;4.4317;-3.6428;-0.9796;0.2196;0.471;0.546;2351.0;36.0;0.26;-10.61;68.26;6.67;95.88;5.0;979.15;56.177;35.956505;-83.92714;743.07;NaN;;5.47;12.226105;89.0;12 / 15;41535;2022-10-13 13:22:09:709
-15.0063;-7.2841;-2.6396;-5.3064;-7.6524;-3.0746;-6.096;4.0257;1.3997;0.8272;0.5156;1.0342;1299.0;31.52;14.64;-5.74;109.84;47.71;121.25;5.0;979.08;54.127;35.956505;-83.92714;743.07;NaN;;5.47;12.226105;89.0;12 / 15;42035;2022-10-13 13:22:10:209
-5.9746;-9.9763;-5.3844;-9.5428;0.9037;-2.0709;8.1854;-4.9972;1.8992;2.0715;0.5995;-0.2171;1681.0;33.6;-0.22;-2.51;60.33;10.28;103.3;5.0;979.11;55.416;35.956497;-83.92712;741.9;NaN;;5.8;12.226105;122.6;11 / 15;42536;2022-10-13 13:22:10:710
-9.1765;-5.0719;-1.5646;-3.553;-8.3198;-3.7851;-9.9583;6.7094;1.5518;-0.1743;-0.7224;1.5031;1767.0;30.66;7.46;0.36;122.31;58.04;136.81;5.0;979.11;55.878;35.956497;-83.92712;741.9;NaN;;5.8;12.226105;122.6;11 / 15;43034;2022-10-13 13:22:11:208
-0.7624;-9.5417;-5.3136;-9.6894;0.8859;-1.2251;6.8321;-4.3748;-0.9781;4.5034;4.8834;1.0451;6336.0;31.2;7.61;-5.27;65.41;9.32;92.55;5.0;979.13;63.358;35.95649;-83.9271;742.63;NaN;;5.04;12.226105;131.3;10 / 15;43535;2022-10-13 13:22:11:709
-7.9149;1.1037;-7.0122;-8.0906;-2.1662;-5.101;1.3245;3.8624;-2.3075;-0.0344;-1.188;-0.151;3928.0;23.64;-17.83;22.31;182.68;10.88;130.54;5.0;979.15;54.947;35.95649;-83.9271;742.63;NaN;;5.04;12.226105;131.3;10 / 15;44035;2022-10-13 13:22:12:209
-8.7948;-1.0283;-4.1764;-8.3196;1.628;-4.9299;3.8763;-3.0177;2.4026;-0.5282;0.565;0.9945;5352.0;32.08;-16.39;12.98;161.47;-5.6;119.12;5.0;979.17;54.195;35.95649;-83.9271;742.63;NaN;;5.04;12.226105;131.3;10 / 15;44535;2022-10-13 13:22:12:709
-15.6395;-3.2453;-2.5041;-8.8402;-3.3991;-2.543;0.9216;3.6673;0.6706;0.6486;0.1394;-0.8066;13465.0;33.77;-13.42;3.88;160.34;12.1;108.6;5.0;979.13;54.537;35.95648;-83.92709;744.61;NaN;;5.0;12.226105;121.5;10 / 15;45035;2022-10-13 13:22:13:209
-5.4407;-2.8131;-2.2026;-9.6548;1.0474;-1.3633;3.121;-4.5363;-0.6987;-0.0552;-0.1139;1.5417;19372.0;35.66;-5.89;-6.69;100.71;-6.13;98.04;5.0;979.17;55.039;35.95648;-83.92709;744.61;NaN;;5.0;12.226105;121.5;10 / 15;45534;2022-10-13 13:22:13:708
-10.0002;-0.0395;-2.4538;-8.1804;-4.6458;-2.769;-1.9075;4.7759;0.3014;-0.0974;0.0614;-0.6813;11075.0;34.74;-11.25;-6.19;142.65;17.05;105.63;5.0;979.2;59.088;35.95647;-83.92708;747.57;NaN;;5.4;12.226105;127.8;10 / 15;46034;2022-10-13 13:22:14:208
-10.1773;-6.227;-3.5539;-9.5457;1.5092;-1.6649;3.4564;-3.7892;-1.0726;-0.2687;0.4749;0.4282;17935.0;36.28;-1.88;-5.19;109.84;2.71;98.26;5.0;979.18;62.394;35.95646;-83.92707;751.23;NaN;;4.72;12.226105;133.6;10 / 15;46535;2022-10-13 13:22:14:709
-13.5769;-2.077;-0.8378;-8.1356;-5.2904;-1.4122;-5.7838;2.7634;0.7246;0.0383;0.4044;0.3719;9160.0;35.14;-3.97;-5.66;137.03;26.23;107.64;5.0;979.15;58.262;35.95646;-83.92707;751.23;NaN;;4.72;12.226105;133.6;10 / 15;47035;2022-10-13 13:22:15:209
-9.8049;-5.6225;-2.0949;-9.7429;0.8293;-0.7469;4.6871;-3.5454;-1.2414;-0.722;0.1065;-0.199;38412.0;33.38;-4.63;-10.8;94.57;5.0;92.67;5.0;979.17;63.55;35.95645;-83.927055;754.15;NaN;;4.79;12.226105;122.0;10 / 15;47535;2022-10-13 13:22:15:709
-12.8468;-1.7704;1.6041;-7.8616;-4.9758;-3.0994;-3.7942;4.0368;5.4528;0.6919;0.679;-0.4981;8632.0;32.98;-0.13;-8.14;122.62;26.57;111.32;5.0;979.19;55.998;35.95645;-83.927055;754.15;NaN;;4.79;12.226105;122.0;10 / 15;48035;2022-10-13 13:22:16:209
-6.2833;-4.2927;-2.9243;-9.2541;2.7375;-1.7431;4.3983;-6.0521;-0.8688;-0.4674;0.5286;1.1534;22944.0;29.93;-4.73;-5.7;121.23;2.54;98.44;5.0;979.15;69.427;35.95645;-83.927055;754.15;NaN;;4.79;12.226105;122.0;10 / 15;48535;2022-10-13 13:22:16:709
-14.8062;-1.2413;-2.8537;-7.8437;-5.0414;-3.0382;-1.8778;6.5303;-1.6864;-0.2214;-0.2625;-0.8536;6517.0;29.64;-11.44;-2.25;149.16;25.37;111.56;5.0;979.22;70.297;35.956444;-83.92705;756.85;NaN;;4.57;12.226105;142.8;10 / 15;49034;2022-10-13 13:22:17:208
-6.585;-3.7361;-2.333;-9.3497;2.5554;-1.4913;4.686;-4.7553;-0.1293;0.3005;0.4284;0.5088;14054.0;30.09;-11.85;-3.13;117.42;-15.1;99.06;5.0;979.19;68.994;35.956432;-83.92704;758.6;NaN;;4.93;12.226105;134.7;10 / 15;49534;2022-10-13 13:22:17:708
-14.5514;1.6639;-0.638;-6.7583;-4.7544;-5.2812;-6.8333;6.8489;4.458;-1.5045;-2.6582;-0.3121;11536.0;29.25;-4.48;-5.19;117.27;14.04;118.8;5.0;979.19;70.775;35.956432;-83.92704;758.6;NaN;;4.93;12.226105;134.7;10 / 15;50035;2022-10-13 13:22:18:209
-2.3581;-2.5989;-3.5683;-8.9893;3.0271;-2.4899;3.8549;-7.3086;0.2888;1.4989;1.3329;2.3524;8948.0;27.38;-3.81;-4.48;70.59;-17.98;105.48;5.0;979.18;63.692;35.95643;-83.927025;759.15;NaN;;5.44;12.226105;106.8;11 / 15;50534;2022-10-13 13:22:18:708
-8.9025;4.3107;-4.2075;-7.1135;-4.7838;-4.7628;-1.2404;9.921;0.3776;-0.7745;-0.5775;0.1229;5555.0;27.13;-16.07;3.9;153.93;23.52;124.43;5.0;979.18;62.738;35.95643;-83.927025;759.15;NaN;;5.44;12.226105;106.8;11 / 15;51035;2022-10-13 13:22:19:209
-3.1866;-1.9283;-2.4682;-9.1021;2.5346;-2.6265;4.212;-4.606;-1.4393;0.0468;0.4669;1.4011;12239.0;29.36;-12.56;1.91;130.43;-14.98;106.1;5.0;979.15;64.452;35.956425;-83.92701;760.45;NaN;;4.9;12.226105;119.8;11 / 15;51535;2022-10-13 13:22:19:709
-14.4006;-0.9553;-2.6324;-7.3459;-5.7863;-2.9543;-2.7953;8.3156;1.0984;1.083;0.4326;-0.2093;6407.0;29.49;-8.27;-3.75;140.52;20.23;109.77;5.0;979.24;57.819;35.956425;-83.92701;760.45;NaN;;4.9;12.226105;119.8;11 / 15;52035;2022-10-13 13:22:20:209
-6.877;-2.764;-2.4598;-9.4543;2.0481;-1.6099;3.4511;-5.6755;0.0687;1.1055;0.1696;1.8432;16089.0;29.64;-10.59;-4.91;113.03;7.4;101.92;5.0;979.23;61.31;35.956417;-83.927;758.38;NaN;;3.82;12.226105;132.0;11 / 15;52535;2022-10-13 13:22:20:709
-10.995;0.3987;1.1324;-7.7013;-5.2089;-3.119;-2.9737;5.198;4.4044;1.1598;1.549;-2.0017;15515.0;26.57;-18.28;-6.3;152.06;15.28;104.68;5.0;979.24;61.286;35.956417;-83.927;758.38;NaN;;3.82;12.226105;132.0;11 / 15;53034;2022-10-13 13:22:21:208
-3.7792;-3.2333;-1.5395;-9.1174;2.9072;-2.1426;4.2838;-5.8251;0.6365;0.113;0.1608;1.3576;16669.0;30.49;-1.48;-4.58;93.44;-0.68;101.8;5.0;979.23;55.401;35.956417;-83.927;758.38;NaN;;3.82;12.226105;132.0;11 / 15;53535;2022-10-13 13:22:21:709
-11.1063;-1.6878;0.122;-7.5715;-5.4003;-3.1112;-4.3379;1.9421;2.5436;-1.3077;0.0576;-2.3185;10166.0;26.36;-17.16;-2.7;154.38;9.3;105.69;5.0;979.22;51.609;35.95641;-83.926994;759.29;NaN;;4.61;12.226105;122.1;11 / 15;54034;2022-10-13 13:22:22:208
-3.7875;-3.7181;-1.8697;-9.5917;2.0052;-0.3861;3.7233;-7.3324;-1.4858;0.6572;0.0581;2.0594;48564.0;29.01;3.88;-7.84;43.14;-11.8;92.3;5.0;979.21;51.828;35.9564;-83.92698;761.53;NaN;;5.54;12.226105;112.7;10 / 15;54535;2022-10-13 13:22:22:709
-13.4249;0.9781;-1.9283;-8.0054;-4.9707;-2.7157;-2.5616;1.8174;-0.9149;-1.363;-0.4033;-2.8197;7689.0;29.81;-16.39;-8.44;147.37;30.46;108.74;5.0;979.23;50.962;35.9564;-83.92698;761.53;NaN;;5.54;12.226105;112.7;10 / 15;55035;2022-10-13 13:22:23:209
-3.8043;-2.6312;-1.8948;-9.7044;1.2534;-0.6512;3.5569;-6.488;-1.0099;0.8104;-0.163;1.8444;38753.0;31.99;0.08;-7.69;68.38;-7.34;93.84;5.0;979.23;50.95;35.956394;-83.92696;763.35;NaN;;4.72;12.226105;116.8;10 / 15;55535;2022-10-13 13:22:23:709
-11.5887;-1.1348;-0.8402;-6.2107;-6.9656;-3.013;-3.8802;4.9626;2.1864;-0.1422;0.4881;-1.4249;10752.0;30.28;-14.44;-8.94;145.08;31.69;107.88;5.0;979.25;50.531;35.956394;-83.92696;763.35;NaN;;4.72;12.226105;116.8;10 / 15;56035;2022-10-13 13:22:24:209
-3.0284;-2.6862;-1.5191;-9.2245;-1.9381;2.7061;2.765;-3.6888;-5.8908;1.3681;-1.4923;0.558;128326.0;28.37;10.07;-15.66;64.25;11.4;73.65;5.0;979.25;50.517;35.956383;-83.92695;771.4;NaN;;4.72;12.226105;139.1;9 / 15;56535;2022-10-13 13:22:24:709
-5.5914;-3.845;1.9753;-6.1196;-7.5392;-1.3716;-0.0602;2.2356;3.2942;-0.9105;-0.7389;-2.7871;21539.0;27.56;-0.6;-21.67;122.65;32.46;93.41;5.0;979.23;50.053;35.956383;-83.92695;771.4;NaN;;4.72;12.226105;139.1;9 / 15;57035;2022-10-13 13:22:25:209
-10.7746;-3.2788;-4.3071;-9.6401;-1.7997;-0.0188;-4.6785;-8.2716;-0.7501;1.5709;-0.8987;4.9484;95932.0;19.05;20.06;-18.51;49.64;10.58;90.11;5.0;979.25;51.206;35.95638;-83.92694;774.24;NaN;;3.71;12.226105;118.8;10 / 15;57535;2022-10-13 13:22:25:709
2.0447;5.953;4.5368;0.9959;6.1515;7.5722;-0.9368;-0.7016;-2.4639;0.6887;-1.039;0.1354;111554.0;-10.39;-13.89;-37.46;21.49;-38.85;-7.49;5.0;979.2;50.153;35.95638;-83.92694;774.24;NaN;;3.71;12.226105;118.8;10 / 15;58035;2022-10-13 13:22:26:209
1.5909;5.048;5.4215;1.9748;6.4227;7.1428;-0.8179;0.8541;1.9028;-0.1351;0.4577;0.35;88383.0;-34.71;-19.48;-35.08;60.44;-40.91;-15.45;5.0;979.12;54.929;35.956375;-83.926926;774.71;NaN;;4.61;12.226105;100.4;10 / 15;58535;2022-10-13 13:22:26:709
0.9601;5.5029;5.7063;0.5731;5.8067;7.8819;0.4763;-0.4977;-1.1563;0.3173;-0.0225;-0.3399;89330.0;-31.52;-16.71;-39.54;68.73;-36.31;-4.16;5.0;979.24;53.575;35.956375;-83.926926;774.71;NaN;;4.61;12.226105;100.4;10 / 15;59034;2022-10-13 13:22:27:208
0.0108;4.107;7.2027;-0.5228;4.5211;8.6866;0.9146;-0.5682;-1.4412;0.0361;0.2207;0.0028;79352.0;-28.61;-19.67;-41.62;84.4;-30.48;3.61;5.0;979.18;54.845;35.956375;-83.92691;773.44;NaN;;5.0;12.226105;92.7;10 / 15;59535;2022-10-13 13:22:27:709
0.195;3.7014;6.7741;-0.9754;4.4678;8.6751;0.3508;-0.5115;-2.179;-0.0911;-0.2341;-0.6431;72931.0;-25.24;-20.81;-44.94;89.22;-27.1;6.42;5.0;979.19;53.934;35.956375;-83.92691;773.44;NaN;;5.0;12.226105;92.7;10 / 15;60035;2022-10-13 13:22:28:209
-5.6405;2.575;6.4041;-4.9204;2.8241;7.999;0.1571;-0.7755;-1.4983;-0.0974;-0.0724;-1.7488;82148.0;-12.67;-29.17;-43.57;119.03;-16.74;31.6;5.0;979.21;51.373;35.956375;-83.92691;773.44;NaN;;5.0;12.226105;92.7;10 / 15;60534;2022-10-13 13:22:28:708
-8.0919;1.433;3.7828;-8.4633;1.5864;4.6932;1.5187;-0.5983;-1.7795;0.7674;0.8249;-0.5201;55651.0;20.25;-27.77;-32.78;149.19;-6.91;52.49;5.0;979.23;49.411;35.95637;-83.926895;772.09;NaN;;4.86;12.226105;103.8;10 / 15;61035;2022-10-13 13:22:29:209
-10.2778;2.4275;3.3721;-9.2354;1.3523;3.0081;2.3562;0.4686;-0.9106;-0.0107;-0.1873;0.0379;26610.0;29.21;-29.47;-17.61;158.92;-8.24;73.9;5.0;979.24;49.843;35.95637;-83.92688;772.66;NaN;;4.54;12.226105;95.2;10 / 15;61534;2022-10-13 13:22:29:708
-8.1808;3.2429;1.3657;-9.2778;2.598;1.8282;1.6145;-0.4635;-0.7687;0.6863;0.0247;-0.1673;9333.0;27.3;-31.72;-8.92;169.14;-14.55;80.85;5.0;979.24;49.358;35.95637;-83.92688;772.66;NaN;;4.54;12.226105;95.2;10 / 15;62035;2022-10-13 13:22:30:209
-10.8667;3.5169;0.1388;-9.2925;2.6524;1.6688;2.6316;0.229;-1.1339;0.3234;0.0622;-0.0128;6531.0;24.32;-33.88;-3.88;180.67;-15.69;79.82;5.0;979.25;49.979;35.956367;-83.92687;771.06;NaN;;2.99;12.226105;107.2;10 / 15;62535;2022-10-13 13:22:30:709
-9.3634;4.0053;1.3669;-9.1033;3.377;1.3771;0.9809;-0.3668;-0.6225;0.83;-0.0871;0.2206;5429.0;20.87;-35.44;0.13;186.97;-20.14;81.4;5.0;979.24;49.974;35.956367;-83.92687;771.06;NaN;;2.99;12.226105;107.2;10 / 15;63034;2022-10-13 13:22:31:208
-9.7128;4.2329;-0.3592;-9.0859;3.5252;1.0908;1.6777;0.3567;-1.0507;0.0525;-0.2253;0.0786;3876.0;19.31;-35.91;2.08;188.98;-21.07;83.15;5.0;979.25;50.379;35.956364;-83.926865;772.76;NaN;;3.2;12.226105;115.1;10 / 15;63536;2022-10-13 13:22:31:710
-10.3687;5.4574;0.1244;-8.8166;4.2779;-0.3706;1.1203;-1.4467;-1.8626;-0.3777;0.3012;-0.0714;5587.0;16.46;-36.17;5.64;191.88;-25.86;92.41;5.0;979.24;55.605;35.956364;-83.926865;772.76;NaN;;3.2;12.226105;115.1;10 / 15;64035;2022-10-13 13:22:32:209
-10.2622;3.1029;-2.2014;-8.8368;4.2132;-0.5747;1.7131;-0.5788;-0.3972;-0.27;0.6904;0.0636;7217.0;17.29;-37.56;2.34;186.34;-24.65;93.55;5.0;979.25;51.429;35.95636;-83.92686;767.63;NaN;;4.46;12.226105;121.1;10 / 15;64535;2022-10-13 13:22:32:709
-8.5205;5.1245;0.2094;-9.2737;3.1104;-0.7037;2.0321;1.5899;0.7236;-0.0057;-0.2149;-0.1857;22619.0;21.71;-34.63;-3.77;166.01;-20.73;95.96;5.0;979.23;54.341;35.95636;-83.92686;767.63;NaN;;4.46;12.226105;121.1;10 / 15;65035;2022-10-13 13:22:33:209
-9.5058;-1.8637;-6.2737;-8.1674;-0.9166;-5.3501;-2.2229;1.1655;0.4556;3.7339;1.496;-0.7401;5610.0;25.29;-27.84;1.24;160.2;-8.78;112.57;5.0;979.26;53.071;35.95636;-83.92686;767.63;NaN;;4.46;12.226105;121.1;9 / 15;65535;2022-10-13 13:22:33:709
-9.6003;-1.2461;-7.4216;-8.3268;-1.03;-5.0768;1.0129;0.6714;-0.3439;1.0424;0.2749;0.3186;6492.0;23.12;-18.0;29.49;207.04;5.65;124.42;5.0;979.25;50.149;35.956352;-83.92684;763.58;NaN;;3.71;12.226105;113.3;9 / 15;66035;2022-10-13 13:22:34:209
-6.7178;-1.9801;-4.9128;-7.8686;-1.5184;-5.6525;2.5673;-0.1132;0.3003;-1.1776;-0.244;-0.6772;5496.0;23.57;-14.94;32.7;211.58;8.91;125.69;5.0;979.28;50.602;35.956352;-83.926834;760.2;NaN;;4.14;12.226105;115.6;9 / 15;66535;2022-10-13 13:22:34:709
-11.0273;2.0758;-1.8601;-9.5081;-1.227;-2.0642;-0.3403;3.2842;1.4829;0.5901;-0.0676;-0.3472;26804.0;34.86;-12.73;8.12;181.29;7.19;102.25;5.0;979.26;61.308;35.956352;-83.926834;760.2;NaN;;4.14;12.226105;115.6;9 / 15;67035;2022-10-13 13:22:35:209
-7.2769;-0.7624;-2.0052;-9.6454;0.7107;-1.6225;1.6533;-1.1608;0.0826;1.1573;0.3765;0.805;32484.998;38.76;-11.53;-8.87;121.19;-4.16;99.55;5.0;979.26;59.285;35.956345;-83.92682;759.66;NaN;;3.96;12.226105;129.4;9 / 15;67535;2022-10-13 13:22:35:709
-9.7822;1.8577;-1.0319;-9.4308;-1.9903;-1.8082;2.6627;2.0405;0.755;-0.2883;0.2634;-0.9002;33043.0;37.43;-17.66;-5.25;146.35;1.55;102.04;5.0;979.26;53.413;35.956345;-83.92682;759.66;NaN;;3.96;12.226105;129.4;9 / 15;68034;2022-10-13 13:22:36:208
-7.235;-2.5534;-3.0583;-9.4039;0.0985;-2.7797;3.7226;-1.5737;0.3355;0.1731;0.5863;0.2389;26618.0;40.09;-7.2;-9.62;117.25;3.09;101.05;5.0;979.25;55.318;35.956337;-83.92681;759.2;NaN;;4.5;12.226105;130.1;10 / 15;68535;2022-10-13 13:22:36:709
-9.5919;-0.5925;-2.8071;-8.8396;-3.6872;-2.1063;1.6864;2.2976;0.5502;0.3608;-0.2699;-0.7558;5126.0;39.84;-6.34;-6.23;133.75;15.82;105.61;5.0;979.26;53.699;35.956337;-83.92681;759.2;NaN;;4.5;12.226105;130.1;10 / 15;69035;2022-10-13 13:22:37:209
-9.1143;-4.6146;-2.1416;-9.3392;-2.0721;-2.1577;2.3823;-1.3758;0.5186;0.0966;0.1573;0.9632;22944.0;39.94;3.49;-8.21;113.68;22.01;105.54;5.0;979.27;63.393;35.956333;-83.92679;758.95;NaN;;3.85;12.226105;119.9;10 / 15;69534;2022-10-13 13:22:37:708
-10.4252;-0.5758;-1.8278;-9.4198;-1.7331;-2.1058;2.0963;2.2608;-0.2693;0.3629;0.0153;-0.4761;29943.002;39.49;-6.52;-8.31;129.2;10.18;102.6;5.0;979.24;57.924;35.956333;-83.92679;758.95;NaN;;3.85;12.226105;119.9;10 / 15;70035;2022-10-13 13:22:38:209
-7.2147;-4.1788;-3.8115;-9.3381;0.8376;-2.8756;2.2079;-3.7646;-1.5068;-3.0533;-0.1103;0.1865;13479.0;37.01;-9.88;-3.99;119.92;7.43;108.72;5.0;979.27;59.109;35.956333;-83.92679;758.95;NaN;;3.85;12.226105;119.9;10 / 15;70535;2022-10-13 13:22:38:709
-18.4478;2.1009;-3.5886;-9.0145;-2.3372;-3.0737;-3.2515;5.1369;-0.6114;-0.316;-0.1598;1.0694;8448.0;36.43;-10.67;-1.8;140.68;13.42;111.4;5.0;979.28;60.369;35.95633;-83.92677;757.78;NaN;;4.79;12.226105;110.7;10 / 15;71035;2022-10-13 13:22:39:209
-4.386;-2.3151;5.0611;-5.2683;2.9191;7.7392;0.1966;-4.2367;-4.0945;-2.5549;-5.7846;-1.2866;145325.0;26.78;-9.43;-19.33;76.54;-24.15;82.89;5.0;979.25;62.489;35.95632;-83.92676;758.24;NaN;;4.61;12.226105;108.8;10 / 15;71535;2022-10-13 13:22:39:709
-1.1216;-0.3891;10.5485;-2.3394;-0.052;9.5234;1.1826;1.7574;-1.2045;0.008;1.7097;0.6107;155594.0;-24.07;-8.08;-43.24;87.75;-12.09;2.02;5.0;979.25;59.968;35.95632;-83.92676;758.24;NaN;;4.61;12.226105;108.8;10 / 15;72034;2022-10-13 13:22:40:208
-2.0674;3.384;6.2761;-3.4999;3.115;8.615;-1.3171;-3.0738;3.4962;0.8542;1.2344;1.4133;162250.0;-12.26;-15.56;-44.42;97.53;-18.52;22.11;5.0;979.22;67.678;35.956318;-83.92674;758.08;NaN;;4.86;12.226105;117.6;10 / 15;72535;2022-10-13 13:22:40:709
-5.2167;3.53;8.8534;-3.7935;3.3221;8.4109;0.907;-1.71;-0.134;0.2647;-0.1905;-1.7461;146012.0;-11.72;-25.01;-41.1;114.27;-19.8;24.28;5.0;979.21;66.008;35.956318;-83.92674;758.08;NaN;;4.86;12.226105;117.6;10 / 15;73035;2022-10-13 13:22:41:209
-3.1866;0.2536;16.8796;-1.9167;1.9702;9.4135;-4.5893;1.6234;0.6634;0.4276;-1.5947;1.3861;106930.0;-10.89;-29.23;-37.95;139.33;-11.59;11.51;5.0;979.29;64.504;35.95631;-83.92673;759.2;NaN;;4.75;12.226105;120.6;11 / 15;73536;2022-10-13 13:22:41:710
-1.3992;3.0009;10.57;-1.7522;3.7957;8.8709;1.9126;-1.1299;0.3505;-0.8288;0.6256;-1.0556;116650.0;-20.31;-30.15;-35.72;118.25;-24.55;10.51;5.0;979.28;61.268;35.95631;-83.92673;759.2;NaN;;4.75;12.226105;120.6;11 / 15;74035;2022-10-13 13:22:42:209
-2.8502;2.2684;8.3183;-2.3826;2.9908;9.0304;-0.7814;-1.6051;1.7692;0.3363;0.1059;0.0936;125011.99;-13.27;-26.96;-39.69;125.99;-14.24;17.52;5.0;979.22;61.478;35.956303;-83.92671;758.91;NaN;;4.75;12.226105;124.6;11 / 15;74536;2022-10-13 13:22:42:710
-3.1029;1.4016;10.334;-3.7492;1.66;8.9083;-0.6575;-1.389;2.0516;-0.3505;-0.1584;-0.3054;132609.0;-12.71;-29.49;-37.61;125.79;-16.55;22.81;5.0;979.24;63.651;35.956303;-83.92671;758.91;NaN;;4.75;12.226105;124.6;11 / 15;75035;2022-10-13 13:22:43:209
-3.3613;1.7154;7.6828;-4.1818;2.1739;8.5998;-1.2601;0.4975;2.0176;0.1002;-0.3254;0.4267;137606.0;-7.11;-28.11;-39.11;130.87;-12.81;25.93;5.0;979.21;60.521;35.956295;-83.9267;759.47;NaN;;4.68;12.226105;120.8;11 / 15;75535;2022-10-13 13:22:43:709
-3.9981;0.833;8.9181;-4.8314;-0.0733;8.5336;-0.6335;-0.8633;0.7071;-0.3537;-0.1812;-1.0296;163572.0;-6.26;-26.29;-39.94;128.38;-8.86;32.39;5.0;979.24;64.389;35.956295;-83.9267;759.47;NaN;;4.68;12.226105;120.8;11 / 15;76035;2022-10-13 13:22:44:209
-3.6523;1.0714;5.6333;-4.7463;-0.8499;8.5394;-3.988;-3.0348;6.2825;1.0284;0.7071;1.4579;164450.0;-0.47;-18.81;-43.11;137.46;5.79;27.63;5.0;979.23;58.035;35.956287;-83.92668;759.73;NaN;;4.82;12.226105;117.9;11 / 15;76535;2022-10-13 13:22:44:709
-4.5691;1.9546;6.3419;-4.7814;0.7327;8.5306;1.5041;0.6229;1.2105;-0.2575;0.0651;-0.926;154947.0;-2.64;-24.24;-40.37;125.93;-10.96;32.66;5.0;979.23;57.482;35.956287;-83.92668;759.73;NaN;;4.82;12.226105;117.9;11 / 15;77035;2022-10-13 13:22:45:209
-5.6596;-4.4195;9.9751;-5.2681;-0.4422;8.2597;-0.1131;-3.3556;0.7409;1.0715;2.2643;-0.0251;164905.0;-3.06;-20.21;-43.35;138.68;6.08;25.15;5.0;979.18;65.25;35.956284;-83.92667;758.57;NaN;;5.0;12.226105;115.2;11 / 15;77535;2022-10-13 13:22:45:709
-4.9989;3.0165;6.0547;-5.9048;2.7402;7.3345;0.7852;-2.2263;0.0546;-0.4103;-1.3151;-0.3612;96325.0;7.33;-28.78;-34.18;140.45;-16.23;38.84;5.0;979.23;56.831;35.956284;-83.92667;758.57;NaN;;5.0;12.226105;115.2;11 / 15;78034;2022-10-13 13:22:46:208
-3.1819;1.445;5.0444;-3.9726;0.7816;8.9318;0.6547;-1.5026;4.0656;1.1033;0.8518;0.521;88030.0;1.14;-30.38;-36.94;152.54;-4.57;23.98;5.0;979.24;63.816;35.956276;-83.92665;758.94;NaN;;4.75;12.226105;115.8;11 / 15;78535;2022-10-13 13:22:46:709
0.9027;1.8553;11.6569;0.8276;2.5255;9.4397;1.0104;1.0506;2.2327;-0.4558;-1.4086;-0.1271;40861.0;-8.57;-36.56;-31.37;153.98;-22.34;3.88;5.0;979.29;55.093;35.956276;-83.92665;758.94;NaN;;4.75;12.226105;115.8;11 / 15;79035;2022-10-13 13:22:47:209
6.4232;0.2273;14.2855;5.1591;-0.1124;8.3391;-2.2027;0.138;7.3057;0.5583;-0.3686;0.2697;33747.0;-29.92;-34.78;-27.75;160.81;-15.74;-29.95;5.0;979.32;59.26;35.956272;-83.926636;759.93;NaN;;4.68;12.226105;115.8;11 / 15;79535;2022-10-13 13:22:47:709
10.497;0.6069;-0.1268;8.8103;3.8847;1.8594;2.3438;-3.4042;-1.4066;1.602;-4.0427;0.9499;12348.0;-36.21;-37.52;-12.02;138.82;-24.3;-42.66;5.0;979.28;61.255;35.956272;-83.926636;759.93;NaN;;4.68;12.226105;115.8;11 / 15;80035;2022-10-13 13:22:48:209
13.1794;-0.8429;0.6404;9.6182;-0.4439;-1.8611;4.9313;2.6324;4.5538;2.1144;1.2032;-0.6553;9777.0;-46.03;-30.49;8.1;189.27;-1.23;-105.68;5.0;979.33;61.782;35.95627;-83.92661;760.03;NaN;;3.38;12.226105;116.9;11 / 15;80535;2022-10-13 13:22:48:709
12.9305;0.352;-3.3099;9.6975;1.4034;-0.4001;-0.8883;-1.9449;-1.1281;-0.527;-0.9665;1.1972;11576.0;-45.15;-33.54;4.86;159.16;-14.94;-85.99;5.0;979.31;53.169;35.95627;-83.92661;760.03;NaN;;3.38;12.226105;116.9;11 / 15;81034;2022-10-13 13:22:49:208
11.202;-1.6555;0.0455;9.2379;-2.0429;-2.5803;4.4117;0.9437;3.58;1.1269;0.7068;-0.6594;10136.0;-47.64;-27.22;12.09;182.11;12.02;-105.61;5.0;979.35;52.647;35.956264;-83.926605;759.63;NaN;;3.74;12.226105;109.9;11 / 15;81535;2022-10-13 13:22:49:709
10.4587;0.2656;-0.9721;9.78;0.0345;-0.7219;2.0806;-2.7816;-3.6712;-0.1828;-1.4769;1.3133;9605.0;-47.21;-29.08;6.84;150.92;-8.28;-83.49;5.0;979.3;55.231;35.956264;-83.926605;759.63;NaN;;3.74;12.226105;109.9;11 / 15;82034;2022-10-13 13:22:50:208
13.2538;-2.1978;-0.5375;8.7906;-2.1583;-3.7733;5.2906;1.6188;2.9414;0.6713;-0.2103;0.4263;7440.0;-46.89;-27.36;12.73;191.79;10.92;-114.24;5.0;979.29;56.169;35.956264;-83.92659;760.49;NaN;;3.42;12.226105;104.2;11 / 15;82535;2022-10-13 13:22:50:709
9.3622;-7.5485;-1.4617;9.6795;0.3289;-1.5396;-0.9279;-6.7636;-0.354;1.6309;-1.3469;-0.1398;4242.0;-45.77;-17.83;18.96;134.89;-3.24;-94.48;5.0;979.26;55.24;35.956264;-83.92659;760.49;NaN;;3.42;12.226105;104.2;11 / 15;83036;2022-10-13 13:22:51:210
10.2694;-2.7449;0.3748;7.265;-6.3461;-1.7656;2.7742;3.9094;3.5475;-0.19;0.8312;0.1346;4275.0;-38.31;6.96;29.98;133.37;36.75;-101.89;5.0;979.3;57.359;35.95626;-83.926575;761.53;NaN;;3.82;12.226105;98.1;11 / 15;83535;2022-10-13 13:22:51:709
2.8442;-5.5508;0.1902;3.2029;-8.9847;2.2773;-0.5391;1.6191;3.5545;-0.5078;-3.3232;0.5676;5348.0;-37.74;16.52;17.98;81.58;60.08;-28.92;5.0;979.27;59.261;35.95626;-83.926575;761.53;NaN;;3.82;12.226105;98.1;11 / 15;84035;2022-10-13 13:22:52:209
8.2358;-1.8553;-0.3772;8.4129;-4.7193;-1.7668;-1.1798;-0.7097;1.6717;-1.7983;2.9426;0.4296;4889.0;-37.29;10.01;19.35;133.8;28.77;-101.86;5.0;979.3;60.708;35.95626;-83.92657;761.18;NaN;;4.03;12.226105;97.5;10 / 15;84535;2022-10-13 13:22:52:709
9.8578;-5.0862;0.2668;9.411;-2.5672;1.0064;1.8406;-3.2079;0.6231;2.4593;-0.0618;-1.6449;6751.0;-52.14;-10.22;5.53;176.3;25.25;-94.36;5.0;979.28;59.63;35.95626;-83.92657;761.18;NaN;;4.03;12.226105;97.5;10 / 15;85035;2022-10-13 13:22:53:209
7.9866;-0.25;-0.5387;9.7282;0.0137;-1.2376;-0.9246;-1.6293;-1.481;-2.4892;-1.3505;0.448;6629.0;-42.58;-20.94;21.41;124.17;-8.79;-89.25;5.0;979.29;60.734;35.956257;-83.92655;760.34;NaN;;3.67;12.226105;95.4;11 / 15;85535;2022-10-13 13:22:53:709
7.3702;-1.3621;-3.7911;9.559;0.5337;-2.1239;2.3452;-2.4908;0.6935;3.1013;0.5454;-2.2908;5084.0;-38.66;-25.95;21.77;166.56;3.16;-110.71;5.0;979.3;68.319;35.956257;-83.92655;760.34;NaN;;3.67;12.226105;95.4;11 / 15;86034;2022-10-13 13:22:54:208
8.1556;-1.0451;-2.6145;8.8707;-0.5002;-4.151;-2.8733;-0.3098;1.844;-0.5656;-0.5687;1.633;4646.0;-32.36;-21.13;30.88;138.35;-3.29;-112.31;5.0;979.28;68.635;35.95626;-83.92654;759.15;NaN;;4.32;12.226105;86.4;11 / 15;86535;2022-10-13 13:22:54:709
6.1181;-2.4335;-3.5587;9.587;-0.2361;-2.0502;-0.2671;-2.0493;-0.5597;2.912;0.125;-2.8386;4501.0;-35.03;-14.17;31.93;146.38;16.39;-111.15;5.0;979.24;69.698;35.95626;-83.92654;759.15;NaN;;4.32;12.226105;86.4;11 / 15;87035;2022-10-13 13:22:55:209
6.8327;0.5686;-2.3653;9.5659;0.4368;-2.1151;0.2575;-1.3903;-0.7641;-0.8936;-0.3822;1.1134;4916.0;-37.48;-21.54;27.02;137.58;-2.55;-102.47;5.0;979.28;67.311;35.95626;-83.92652;759.06;NaN;;4.03;12.226105;81.3;11 / 15;87535;2022-10-13 13:22:55:709
5.9997;-2.2696;-2.1284;9.7091;-0.4155;-1.3158;1.4469;-2.5762;-0.5396;1.4639;1.1818;-2.15;4796.0;-41.1;-16.26;26.57;155.74;15.06;-108.59;5.0;979.27;67.307;35.95626;-83.92652;759.06;NaN;;4.03;12.226105;81.3;11 / 15;88035;2022-10-13 13:22:56:209
8.0405;-1.3059;-1.4952;9.6435;-0.5648;-1.6896;-0.4432;-1.7209;-0.9699;-0.7481;-0.1676;1.4298;4511.0;-42.81;-17.62;24.81;140.21;3.3;-99.94;5.0;979.3;63.216;35.956264;-83.926506;759.77;NaN;;4.64;12.226105;77.3;12 / 15;88535;2022-10-13 13:22:56:709
8.7278;-3.9156;-1.4797;9.4276;-1.9357;-1.8827;3.4736;-2.1549;0.6057;0.8976;-0.3977;-1.3507;3351.0;-42.04;-6.71;29.1;154.31;26.08;-109.36;5.0;979.3;62.888;35.956264;-83.926506;759.77;NaN;;4.64;12.226105;77.3;12 / 15;89034;2022-10-13 13:22:57:208
7.5676;-1.2233;-1.1946;9.3021;-2.0235;-2.3553;0.3045;-0.0113;-1.4218;-1.0927;-0.0035;1.6986;4421.0;-42.15;-18.02;26.93;130.24;-2.43;-100.45;5.0;979.23;49.994;35.956264;-83.92649;760.81;NaN;;4.79;12.226105;91.1;12 / 15;89535;2022-10-13 13:22:57:709
8.0668;-3.912;-2.004;9.3002;-2.1153;-2.2807;4.5772;-2.9147;-0.5411;0.7047;0.7248;-2.4165;3454.0;-40.87;-7.31;31.33;129.91;12.46;-103.78;5.0;979.3;52.429;35.956264;-83.92649;760.81;NaN;;4.79;12.226105;91.1;12 / 15;90035;2022-10-13 13:22:58:209
8.9599;-1.2221;-2.1476;9.4694;1.0293;-2.3325;-2.4426;-3.8091;-2.93;-1.1533;-0.6881;2.2322;4734.0;-38.87;-21.49;29.59;129.21;-6.02;-103.84;5.0;979.24;54.232;35.956264;-83.92646;761.27;NaN;;5.11;12.226105;75.4;12 / 15;90534;2022-10-13 13:22:58:708
14.7775;-3.65;-0.2898;8.6264;-3.377;-3.2174;6.2327;0.2124;2.9775;1.3614;1.8918;-1.8235;3214.0;-40.5;-16.41;30.39;176.18;23.95;-124.2;5.0;979.24;56.897;35.956264;-83.92646;761.27;NaN;;5.11;12.226105;75.4;12 / 15;91035;2022-10-13 13:22:59:209
9.1143;-1.64;-3.3637;9.5756;0.8225;-1.95;-1.3354;-6.7332;-1.3151;0.1713;-0.6929;2.2817;4861.0;-41.4;-21.71;24.79;138.02;-4.81;-101.51;5.0;979.19;63.848;35.956264;-83.926445;762.99;NaN;;5.0;12.226105;90.3;12 / 15;91535;2022-10-13 13:22:59:709
10.4755;-2.5271;-2.1846;8.6023;-3.3571;-3.3016;4.4762;1.4515;1.5955;1.0885;0.6016;-1.7933;3283.0;-39.69;-12.28;32.96;149.62;20.02;-111.0;5.0;979.2;51.353;35.956264;-83.926445;762.99;NaN;;5.0;12.226105;90.3;12 / 15;92034;2022-10-13 13:23:00:208
5.1473;0.1651;-2.3521;8.9006;0.1114;-4.1155;-0.2042;-1.3297;-0.0795;-0.8895;-0.0801;0.8905;4018.0;-36.73;-17.14;34.67;121.33;-3.82;-106.7;5.0;979.18;52.342;35.956264;-83.92643;764.79;NaN;;4.75;12.226105;93.0;12 / 15;92534;2022-10-13 13:23:00:708
13.6403;-1.6866;-3.1089;8.8869;-2.4888;-3.3166;3.9045;1.53;2.4549;0.1644;0.7088;-0.8291;2794.0;-34.71;-15.39;36.26;151.29;20.34;-116.36;5.0;979.23;52.208;35.956264;-83.92643;764.79;NaN;;4.75;12.226105;93.0;12 / 15;93035;2022-10-13 13:23:01:209
10.5162;-1.6041;-5.5041;9.4064;-0.3924;-2.7453;-0.1401;-1.2555;-3.149;0.2438;-0.3405;0.9458;4496.0;-39.62;-18.69;31.29;124.85;-5.21;-103.03;5.0;979.21;54.026;35.95626;-83.926414;764.89;NaN;;4.75;12.226105;95.7;12 / 15;93535;2022-10-13 13:23:01:709
13.5422;-4.5811;-0.2584;7.9187;-4.3122;-3.8561;5.6768;2.1709;0.9866;-0.5442;0.9436;0.5898;2060.0;-38.68;-10.31;34.5;143.66;16.14;-112.75;5.0;979.2;53.092;35.95626;-83.926414;764.89;NaN;;4.75;12.226105;95.7;12 / 15;94035;2022-10-13 13:23:02:209
9.5046;-5.4;-3.9802;9.5795;1.7357;-1.1796;-2.4803;-6.9255;-1.4273;-0.5774;-0.9989;1.8846;5673.0;-42.11;-16.18;27.79;106.47;-11.04;-94.6;5.0;979.19;53.677;35.95626;-83.92639;765.66;NaN;;4.93;12.226105;96.9;11 / 15;94534;2022-10-13 13:23:02:708
16.2727;-1.3717;-0.0921;7.1943;-5.2372;-4.1211;8.0351;2.7052;4.249;0.304;1.3137;-1.7476;1909.0;-42.22;-9.58;29.51;176.52;36.87;-122.91;5.0;979.21;56.032;35.95626;-83.92639;765.66;NaN;;4.93;12.226105;96.9;11 / 15;95035;2022-10-13 13:23:03:209
4.8912;-2.2122;-2.5929;9.0008;3.5692;-1.5549;-1.3245;-8.6187;-1.7553;-0.1762;-0.1951;0.1399;5513.0;-40.76;-21.51;24.26;105.22;-11.39;-94.6;5.0;979.19;54.189;35.956264;-83.92638;764.23;NaN;;5.29;12.226105;72.9;11 / 15;95536;2022-10-13 13:23:03:710
16.4857;-3.5862;0.8115;8.9598;-2.9694;-2.6599;8.2872;2.3903;4.7139;1.5939;0.7675;-1.6675;3297.0;-41.19;-20.76;25.84;166.64;16.53;-112.88;5.0;979.22;55.363;35.956264;-83.92638;764.23;NaN;;5.29;12.226105;72.9;11 / 15;96034;2022-10-13 13:23:04:208
7.3881;-2.1655;-3.3242;9.42;2.6036;-0.8088;-1.72;-6.1982;-1.8695;0.4326;-1.2344;-0.4527;5974.0;-41.47;-23.29;23.68;119.51;-11.51;-91.79;5.0;979.16;53.76;35.956264;-83.92638;764.23;NaN;;5.29;12.226105;72.9;11 / 15;96535;2022-10-13 13:23:04:709
15.9745;1.252;-1.2927;8.6509;-3.4985;-3.0155;8.1776;1.9806;1.4769;-0.1709;0.7833;-1.1069;2391.0;-40.09;-17.91;28.97;156.95;18.4;-109.91;5.0;979.21;59.871;35.956264;-83.92636;765.53;NaN;;5.29;12.226105;95.0;12 / 15;97034;2022-10-13 13:23:05:208
8.7206;-1.4414;-4.7426;9.1794;2.9797;-1.7409;-2.852;-5.9175;-0.4014;0.4536;-1.006;0.7097;5234.0;-39.47;-17.14;30.34;97.33;-17.69;-100.74;5.0;979.16;54.22;35.956264;-83.92634;764.74;NaN;;4.93;12.226105;78.3;12 / 15;97534;2022-10-13 13:23:05:708
13.783;-0.1711;-2.4766;8.4925;-3.5634;-3.3689;4.2126;1.3609;2.7335;0.4793;-0.0978;0.4808;2543.0;-40.22;-15.13;30.64;156.03;21.31;-111.64;5.0;979.18;54.931;35.956264;-83.92634;764.74;NaN;;4.93;12.226105;78.3;12 / 15;98035;2022-10-13 13:23:06:209
10.7315;-2.6324;-4.8733;9.563;1.0953;-1.8759;-0.6256;-6.217;-1.1715;-0.5199;-0.1286;0.3712;4936.0;-40.48;-16.95;29.04;119.8;-6.41;-101.1;5.0;979.17;53.897;35.956264;-83.92632;764.85;NaN;;4.75;12.226105;77.4;12 / 15;98535;2022-10-13 13:23:06:709
12.1382;-1.9128;-2.3414;8.9187;-1.6292;-3.7381;5.1741;3.2621;0.2548;0.2094;0.6905;-1.6833;2975.0;-35.25;-17.68;33.3;151.3;12.16;-115.26;5.0;979.2;54.369;35.956264;-83.92632;764.85;NaN;;4.75;12.226105;77.4;12 / 15;99034;2022-10-13 13:23:07:208
9.7451;-2.3593;-4.4303;9.3331;0.607;-2.9488;-0.4765;-4.658;-0.6416;-0.44;0.2318;1.5312;4187.0;-34.61;-18.94;33.32;124.65;-3.55;-107.53;5.0;979.19;58.259;35.956264;-83.92631;764.92;NaN;;4.64;12.226105;96.8;12 / 15;99534;2022-10-13 13:23:07:708
11.8878;-3.8091;-1.4892;8.824;-3.1858;-2.856;6.891;0.5151;1.4793;0.0525;1.813;-2.2746;3066.0;-37.86;-11.83;33.0;160.8;26.22;-118.0;5.0;979.19;53.456;35.956264;-83.92631;764.92;NaN;;4.64;12.226105;96.8;12 / 15;100035;2022-10-13 13:23:08:209
7.9137;-3.038;-1.6531;9.6568;1.1336;-1.2771;-0.5646;-4.9615;-2.1316;-0.6171;-0.3739;1.3774;5493.0;-41.51;-23.01;22.58;135.64;-6.64;-97.53;5.0;979.2;57.229;35.956264;-83.926285;765.16;NaN;;4.86;12.226105;85.2;12 / 15;100535;2022-10-13 13:23:08:709
11.013;-4.1285;-1.386;8.9832;-2.8045;-2.7581;5.304;0.2321;3.3123;1.0588;1.7968;-1.7323;3761.0;-41.44;-17.08;27.56;153.73;16.62;-107.07;5.0;979.2;53.616;35.956264;-83.926285;765.16;NaN;;4.86;12.226105;85.2;12 / 15;101034;2022-10-13 13:23:09:208
10.0469;-1.7261;-3.603;9.3459;-2.0284;-2.1701;2.0018;-0.4335;-2.5737;0.1764;-0.8332;2.3645;5648.0;-40.54;-22.86;23.03;123.63;-11.67;-88.52;5.0;979.19;54.12;35.956264;-83.92627;766.58;NaN;;5.29;12.226105;96.8;12 / 15;101534;2022-10-13 13:23:09:708
19.4677;-5.7135;0.4621;8.6912;-3.7578;-2.552;10.8784;-1.3266;1.414;1.1265;2.9753;-3.1588;2683.0;-39.07;-8.59;30.54;162.9;31.04;-116.77;5.0;979.18;54.706;35.956264;-83.92627;766.58;NaN;;5.29;12.226105;96.8;12 / 15;102036;2022-10-13 13:23:10:210
12.7738;-2.6073;-0.2886;9.1873;3.047;-1.5749;-3.587;-9.588;-2.0776;-2.2605;0.2355;2.7933;5158.0;-38.48;-21.04;25.88;109.92;-18.1;-99.73;5.0;979.16;56.705;35.956264;-83.926254;767.77;NaN;;5.26;12.226105;80.0;12 / 15;102534;2022-10-13 13:23:10:708
7.156;-2.7066;-1.1216;9.6187;-1.3348;-1.367;3.0458;-2.4672;1.3921;1.5592;0.7214;-2.5416;3779.0;-40.8;-13.95;27.15;157.19;22.55;-107.93;5.0;979.19;53.665;35.956264;-83.926254;767.77;NaN;;5.26;12.226105;80.0;12 / 15;103035;2022-10-13 13:23:11:209
10.0493;-1.512;-1.1886;9.6912;-0.8555;-1.2329;-0.1687;-3.8149;0.7853;-0.1953;-1.0461;2.8054;4627.0;-39.71;-15.73;27.84;107.45;-12.73;-97.8;5.0;979.21;60.216;35.956264;-83.92624;768.55;NaN;;4.93;12.226105;91.0;12 / 15;103535;2022-10-13 13:23:11:709
7.5763;-5.8223;-2.8346;9.622;-1.8605;-0.356;5.6968;-5.6845;0.9922;3.4403;0.4005;-3.926;4768.0;-40.95;-5.27;28.35;163.53;32.97;-113.78;5.0;979.22;54.007;35.956264;-83.92624;768.55;NaN;;4.93;12.226105;91.0;12 / 15;104035;2022-10-13 13:23:12:209
11.2822;-0.7516;-4.2075;8.7008;-0.6036;-4.4835;3.551;-3.1011;-2.3491;-1.4065;-0.2774;3.6546;3875.0;-34.84;-21.56;28.31;160.24;3.53;-117.26;5.0;979.2;54.427;35.956264;-83.926216;768.83;NaN;;5.44;12.226105;101.6;12 / 15;104535;2022-10-13 13:23:12:709
8.6175;-3.7648;-4.5906;9.0972;0.2214;-3.6555;2.4462;-3.9606;0.896;1.3892;0.5495;-3.4145;2947.0;-29.1;-11.02;36.66;145.91;17.67;-121.8;5.0;979.22;54.085;35.956264;-83.926216;768.83;NaN;;5.44;12.226105;101.6;12 / 15;105035;2022-10-13 13:23:13:209
9.6194;-0.7074;-4.2951;8.7757;-1.4144;-4.142;-0.8731;-0.826;-2.1205;-0.6799;-0.0718;3.1401;3485.0;-27.77;-18.71;34.61;114.57;-12.12;-110.54;5.0;979.17;54.087;35.956264;-83.9262;769.58;NaN;;5.44;12.226105;91.0;12 / 15;105535;2022-10-13 13:23:13:709
6.8877;-4.2173;-3.961;8.6997;-2.8201;-3.5401;5.8739;-0.2821;3.3653;2.8119;0.2495;-3.3733;3222.0;-32.14;-8.79;34.73;161.17;27.58;-127.93;5.0;979.17;55.517;35.956264;-83.9262;769.58;NaN;;5.44;12.226105;91.0;12 / 15;106034;2022-10-13 13:23:14:208
7.8455;-0.0826;-2.8765;9.4635;0.4849;-2.5253;1.452;-0.5768;-1.1582;-1.488;-0.4865;2.2058;3906.0;-32.44;-17.46;32.57;98.33;-17.09;-104.96;5.0;979.2;53.794;35.956264;-83.926186;770.27;NaN;;5.47;12.226105;81.6;12 / 15;106535;2022-10-13 13:23:14:709
10.9675;-3.4714;-3.3015;9.7426;-0.4065;-1.0421;0.7846;-4.6471;-2.4848;2.8659;0.4347;-2.5506;4380.0;-39.13;-22.71;21.64;144.32;2.38;-96.11;5.0;979.18;54.605;35.956264;-83.926186;770.27;NaN;;5.47;12.226105;81.6;12 / 15;107035;2022-10-13 13:23:15:209
8.5959;-0.2118;-1.7369;9.5703;0.5937;-2.0561;1.9601;-1.0825;-0.9994;-0.211;-0.4418;1.4405;4530.0;-34.97;-26.32;24.32;128.96;-16.83;-101.08;5.0;979.16;54.501;35.95627;-83.92617;769.86;NaN;;5.44;12.226105;86.8;12 / 15;107535;2022-10-13 13:23:15:709
8.5301;-2.9865;-2.2265;9.2342;-2.0952;-2.5514;0.5356;-1.6216;0.7485;1.6725;0.826;-2.1489;3999.0;-38.36;-16.12;27.28;165.25;23.09;-114.76;5.0;979.19;54.484;35.95627;-83.92617;769.86;NaN;;5.44;12.226105;86.8;12 / 15;108035;2022-10-13 13:23:16:209
7.7629;-0.4561;-3.0631;9.3112;-1.4744;-2.7015;0.1705;-1.5044;-1.5972;-0.1408;-0.8142;1.8442;4392.0;-36.04;-21.6;25.5;135.06;-4.16;-100.52;5.0;979.14;55.281;35.95627;-83.926155;770.11;NaN;;5.26;12.226105;86.1;12 / 15;108535;2022-10-13 13:23:16:709
6.5874;-3.3015;-1.6591;9.6747;-0.4412;-1.5417;0.291;-2.8757;-0.3237;0.8027;0.7363;-2.4498;4413.0;-37.43;-13.09;27.92;147.55;18.11;-106.38;5.0;979.16;53.949;35.95627;-83.926155;770.11;NaN;;5.26;12.226105;86.1;12 / 15;109035;2022-10-13 13:23:17:209
9.4089;-1.8673;-1.7201;9.459;-1.0692;-2.357;1.2849;-0.9575;-1.5733;-0.2442;-0.5824;1.7763;3916.0;-35.42;-17.64;26.49;127.55;-5.65;-99.81;5.0;979.16;53.668;35.956264;-83.92613;769.93;NaN;;5.33;12.226105;103.6;12 / 15;109535;2022-10-13 13:23:17:709
9.0485;-2.965;-1.2245;9.3756;-1.6635;-2.3455;2.0453;-1.6801;1.4493;1.8457;-0.2052;-2.5468;3506.0;-36.19;-9.09;28.33;130.87;9.77;-104.05;5.0;979.17;54.923;35.956264;-83.92613;769.93;NaN;;5.33;12.226105;103.6;12 / 15;110034;2022-10-13 13:23:18:208
6.536;3.1077;-2.1236;9.2686;2.5649;-1.9195;-1.0501;-0.979;-2.1299;-0.178;0.1994;-0.1526;3923.0;-33.79;-12.51;31.78;95.01;-15.16;-101.7;5.0;979.16;55.113;35.956264;-83.92612;769.44;NaN;;5.51;12.226105;94.4;12 / 15;110535;2022-10-13 13:23:18:709
8.0752;2.4335;-1.3513;8.4329;4.6464;-1.8622;-0.0242;-2.2152;0.2462;0.2433;0.3699;-1.2848;3881.0;-36.26;-11.79;30.34;84.28;-18.88;-102.67;5.0;979.15;55.393;35.956264;-83.92612;769.44;NaN;;5.51;12.226105;94.4;12 / 15;111035;2022-10-13 13:23:19:209
5.8881;4.9678;-0.2154;8.4353;4.7984;-1.4109;-1.6319;0.2143;-1.5172;-0.5379;-0.1182;0.2427;3853.0;-35.42;-16.95;30.19;78.73;-29.93;-98.86;5.0;979.1;55.858;35.956264;-83.9261;770.87;NaN;;5.62;12.226105;101.2;12 / 15;111535;2022-10-13 13:23:19:709
5.1221;3.481;-2.2361;7.2161;6.3439;-1.963;1.6578;-0.9635;0.1361;0.4779;0.4025;-1.1424;3168.0;-36.86;-17.03;28.97;62.91;-34.94;-102.56;5.0;979.14;54.259;35.956264;-83.9261;770.87;NaN;;5.62;12.226105;101.2;12 / 15;112035;2022-10-13 13:23:20:209
5.9124;5.7529;-1.2485;7.7718;5.865;-1.1709;-3.1585;-1.8007;-1.1462;-0.6967;-0.1764;0.456;2738.0;-37.41;-18.64;28.93;68.26;-36.73;-98.57;5.0;979.09;53.906;35.956272;-83.92609;772.29;NaN;;7.92;12.226105;51.2;11 / 15;112535;2022-10-13 13:23:20:709
4.9929;3.4487;-1.9271;6.9563;6.6378;-1.9288;-2.5157;-3.3639;0.9573;0.3086;-0.4016;0.0112;4022.0;-38.06;-20.12;27.84;58.94;-38.35;-103.14;5.0;979.11;55.012;35.956272;-83.92609;772.29;NaN;;7.92;12.226105;51.2;11 / 15;113035;2022-10-13 13:23:21:209
5.5089;5.1808;-0.3138;8.6045;4.5241;-1.2905;-1.9487;0.4856;-0.6987;-1.1824;-0.2369;0.8233;4766.0;-34.18;-23.74;29.87;88.93;-32.66;-99.03;5.0;979.08;53.786;35.95628;-83.92607;773.39;NaN;;5.87;12.508046;79.3;12 / 15;113535;2022-10-13 13:23:21:709
4.7414;3.7421;0.4346;7.8545;5.8523;-0.4768;-1.9772;-2.7016;-0.9624;-0.2136;0.4907;-0.3943;5689.0;-36.53;-23.51;24.62;95.05;-29.34;-94.05;5.0;979.1;53.904;35.95628;-83.92607;773.39;NaN;;5.87;12.508046;79.3;12 / 15;114034;2022-10-13 13:23:22:208
7.4719;4.9666;0.8716;9.3734;2.8068;-0.6569;-1.2425;1.7383;-0.2467;0.0799;-0.6848;0.9312;6040.0;-38.46;-24.64;22.22;110.28;-23.25;-91.56;5.0;979.08;54.282;35.956284;-83.926056;773.5;NaN;;5.22;13.007655;87.7;11 / 15;114535;2022-10-13 13:23:22:709
5.5077;0.5973;-0.4968;9.2914;3.1203;-0.323;-1.9071;-2.6197;0.1024;0.6289;0.2602;-0.6947;5679.0;-39.86;-17.49;23.91;105.06;-14.94;-93.83;5.0;979.09;58.847;35.956284;-83.926056;773.5;NaN;;5.22;13.007655;87.7;11 / 15;115034;2022-10-13 13:23:23:208
5.9028;1.7548;-1.7931;9.7096;0.7788;-1.1344;-1.4935;1.5582;0.2419;-0.2533;-0.5285;0.5966;5757.0;-36.96;-12.94;24.28;116.68;-4.55;-96.66;5.0;979.1;54.812;35.956284;-83.92605;773.33;NaN;;5.54;12.790285;91.4;11 / 15;115535;2022-10-13 13:23:23:709
6.0296;0.0861;-1.1444;9.1359;3.3909;-1.0991;-1.7452;-2.9674;0.7905;1.0522;0.3161;-1.6257;5627.0;-35.93;-11.83;24.45;111.79;-7.04;-99.57;5.0;979.08;53.627;35.956284;-83.92605;773.33;NaN;;5.54;12.790285;91.4;11 / 15;116035;2022-10-13 13:23:24:209
6.6855;4.2425;-0.4358;9.0036;3.6474;-1.3423;-3.1055;0.1481;-0.9785;-0.4704;-0.0835;0.3581;5668.0;-33.21;-19.41;27.0;100.42;-21.83;-98.48;5.0;979.07;53.931;35.956287;-83.92603;773.8;NaN;;5.47;12.834344;95.5;12 / 15;116535;2022-10-13 13:23:24:709
5.4168;1.1456;-2.1272;8.8149;4.1965;-0.9257;-0.4369;-1.5961;-0.6155;0.255;0.2853;-0.5982;5804.0;-35.87;-18.21;25.99;102.25;-18.58;-96.19;5.0;979.08;53.448;35.956287;-83.92603;773.8;NaN;;5.47;12.834344;95.5;12 / 15;117034;2022-10-13 13:23:25:208
8.9575;-0.0586;-1.4103;9.1;-2.0725;-3.011;0.4286;2.528;1.305;-0.6748;-0.4397;1.2609;5382.0;-36.21;-13.42;26.51;146.6;12.2;-108.31;5.0;979.09;54.419;35.956287;-83.92603;773.8;NaN;;5.47;12.834344;95.5;12 / 15;117535;2022-10-13 13:23:25:709
10.1581;-2.1906;-1.2173;9.4527;-1.4915;-2.1431;5.0313;-0.8994;2.0065;1.3265;0.9609;-2.6647;7188.0;-35.55;-7.03;28.16;150.43;19.98;-112.3;5.0;979.1;54.737;35.956287;-83.92602;775.72;NaN;;5.29;12.649248;96.4;12 / 15;118035;2022-10-13 13:23:26:209
6.2617;3.4104;-1.1276;9.4399;2.244;-1.4227;0.1651;1.3927;-1.0675;-0.1188;-0.035;-0.2141;8721.0;-36.86;-17.08;23.85;112.0;-13.23;-98.57;5.0;979.11;54.097;35.956287;-83.926;775.37;NaN;;5.51;12.226105;81.6;12 / 15;118535;2022-10-13 13:23:26:709
6.518;2.4323;-0.274;8.3322;5.1465;-0.5076;-1.7994;-2.766;0.0959;0.7177;0.3209;-1.0912;9092.0;-35.98;-17.61;24.51;96.19;-21.97;-96.46;5.0;979.07;55.48;35.956287;-83.926;775.37;NaN;;5.51;12.226105;81.6;12 / 15;119035;2022-10-13 13:23:27:209
4.2664;4.7629;-1.7584;8.4728;4.7349;-1.4008;-0.3504;-0.389;-1.0413;-0.8101;0.2037;0.2818;9365.0;-34.22;-21.32;24.81;85.17;-31.2;-99.78;5.0;979.06;54.571;35.956287;-83.926;775.37;NaN;;5.51;12.226105;81.6;13 / 15;119535;2022-10-13 13:23:27:709
8.4356;4.0519;0.1771;8.1698;5.4121;-0.3653;1.9815;-1.4485;1.2699;1.467;0.9017;-1.2011;8542.0;-33.96;-23.81;20.79;92.21;-33.5;-92.56;5.0;979.05;53.2;35.956287;-83.92599;777.36;NaN;;5.83;12.226105;95.3;13 / 15;120035;2022-10-13 13:23:28:209
4.3167;5.3183;0.0036;8.0583;5.5414;0.7257;0.9035;1.2105;-1.6592;-0.5117;0.1292;0.0486;7491.0;-34.65;-18.21;23.66;82.35;-34.41;-84.85;5.0;979.03;54.842;35.95629;-83.925964;779.96;NaN;;5.4;12.226105;81.3;13 / 15;120536;2022-10-13 13:23:28:710
4.1369;3.2776;-0.3006;7.3239;6.4107;1.1974;0.6492;-1.5122;-1.2054;0.4995;-0.3511;-0.5588;6420.0;-41.36;-14.76;20.72;64.77;-40.82;-80.71;5.0;979.03;54.66;35.95629;-83.925964;779.96;NaN;;5.4;12.226105;81.3;13 / 15;121035;2022-10-13 13:23:29:209
4.4207;3.8426;-0.9972;8.0749;4.8019;-2.8119;1.384;0.532;-0.6421;-1.258;-0.1719;0.9541;8177.0;-39.68;-16.5;26.57;54.23;-29.32;-109.2;5.0;979.08;54.103;35.95629;-83.92595;779.43;NaN;;5.15;12.226105;95.1;13 / 15;121534;2022-10-13 13:23:29:708
4.605;2.8813;-1.8505;8.0035;5.1906;-2.2743;2.5496;-0.4591;0.1759;-0.0493;0.8544;-1.662;8648.0;-38.04;-15.97;30.36;61.3;-31.96;-105.86;5.0;979.03;56.194;35.95629;-83.92595;779.43;NaN;;5.15;12.226105;95.1;13 / 15;122035;2022-10-13 13:23:30:209
3.5504;6.1911;-0.7504;6.8564;6.898;-1.2564;0.6776;0.7295;-0.9743;-0.1805;-0.3478;0.2272;8303.0;-33.06;-31.07;20.49;76.35;-44.7;-100.38;5.0;979.02;55.607;35.956287;-83.925934;780.71;NaN;;5.62;12.226105;89.7;13 / 15;122535;2022-10-13 13:23:30:709
3.711;4.4363;-1.1539;6.246;7.4659;-1.1904;-1.8925;-2.4941;0.9093;0.0563;-0.2615;-0.6416;8142.0;-27.13;-30.04;18.15;92.25;-44.87;-98.5;5.0;979.08;54.431;35.956287;-83.925934;780.71;NaN;;5.62;12.226105;89.7;13 / 15;123035;2022-10-13 13:23:31:209
4.5129;6.5551;-0.5028;7.9522;5.3308;-2.125;-4.1858;0.5937;1.202;0.3711;-0.42;0.617;8628.0;-24.66;-25.42;15.64;105.44;-37.61;-103.39;5.0;979.05;51.637;35.956287;-83.92592;780.84;NaN;;5.65;12.226105;101.5;13 / 15;123535;2022-10-13 13:23:31:709
5.6943;3.8498;-1.4139;7.723;5.9644;-0.975;-0.0994;-0.9416;-0.2087;0.7698;0.0235;-0.672;8051.0;-24.77;-20.66;10.09;96.91;-37.46;-97.2;5.0;979.07;54.731;35.956287;-83.92592;780.84;NaN;;5.65;12.226105;101.5;13 / 15;124035;2022-10-13 13:23:32:209
5.796;5.2107;-1.136;8.0034;5.3208;-1.9507;-3.6715;-0.7622;0.1305;-0.4524;0.2333;0.5382;7473.0;-24.84;-26.63;0.92;218.05;-33.39;-103.58;5.0;979.05;52.588;35.95628;-83.9259;782.55;NaN;;5.44;12.226105;96.1;13 / 15;124535;2022-10-13 13:23:32:709
4.398;2.9961;-1.1001;7.1626;6.4621;-1.7634;-2.5032;-3.4312;0.5178;0.5075;-0.0443;-0.5874;7750.0;-21.54;-29.06;22.31;114.91;-36.29;-99.97;5.0;979.04;52.256;35.95628;-83.9259;782.55;NaN;;5.44;12.226105;96.1;13 / 15;125035;2022-10-13 13:23:33:209
11.0536;7.1393;-0.1412;8.8726;3.6087;-2.1034;-1.9611;2.24;1.4523;-0.5009;-0.1235;0.5519;7606.0;-27.15;-17.23;24.23;100.27;-27.28;-103.71;5.0;979.06;52.341;35.95628;-83.92589;783.17;NaN;;5.69;12.226105;96.9;12 / 15;125535;2022-10-13 13:23:33:709
5.965;2.1835;-1.998;7.2909;6.3585;-1.6071;-2.2619;-3.6647;0.1685;0.4695;-0.5016;0.1358;7458.0;-30.9;-17.83;11.55;57.58;-34.99;-100.31;5.0;979.02;50.669;35.95628;-83.92589;783.17;NaN;;5.69;12.226105;96.9;12 / 15;126035;2022-10-13 13:23:34:209
7.9723;6.221;-0.5339;8.4085;4.6197;-2.0312;-3.2772;0.2794;1.0845;-0.0702;-0.156;0.4774;7179.0;-27.24;-28.63;14.98;144.51;-28.1;-103.58;5.0;979.07;51.797;35.95628;-83.92589;783.17;NaN;;5.69;12.226105;96.9;12 / 15;126535;2022-10-13 13:23:34:709
8.3853;2.7485;-4.8625;7.2728;6.3841;-1.5877;-3.1568;-3.9676;1.0503;1.302;-0.4907;-0.0975;6627.0;-25.72;-23.08;18.21;103.1;-33.93;-98.27;5.0;979.06;51.354;35.956272;-83.92587;783.89;NaN;;5.72;12.226105;96.4;12 / 15;127035;2022-10-13 13:23:35:209
9.8698;6.3419;0.4238;8.6995;3.9852;-2.1467;-2.515;1.3998;1.5766;-0.0751;-0.0066;0.5608;6430.0;-23.34;-23.89;13.46;148.47;-23.98;-103.86;5.0;979.06;50.743;35.956272;-83.92586;784.86;NaN;;5.69;12.226105;96.3;12 / 15;127535;2022-10-13 13:23:35:709
9.3048;-2.4957;-4.5954;9.0206;3.1449;-2.2154;-1.2827;-3.2029;-0.9465;0.2382;-0.5483;0.3763;6288.0;-21.97;-16.29;28.24;107.86;-16.9;-101.72;5.0;979.06;51.981;35.956272;-83.92586;784.86;NaN;;5.69;12.226105;96.3;12 / 15;128034;2022-10-13 13:23:36:208
12.9078;-0.2154;-2.7915;9.0049;-2.0448;-3.3017;3.0143;2.722;0.998;0.1025;-0.2317;0.7406;5880.0;-36.98;-3.75;26.93;122.99;6.5;-108.67;5.0;979.06;51.055;35.956264;-83.92584;785.91;NaN;;5.58;12.226105;95.3;12 / 15;128535;2022-10-13 13:23:36:709
9.8578;-3.8139;-4.4483;9.2494;1.4692;-2.9086;-0.1295;-5.03;-1.2258;-0.0832;-0.3139;0.325;6683.0;-38.1;-8.55;16.91;108.38;-9.22;-104.5;5.0;979.07;50.784;35.956264;-83.92584;785.91;NaN;;5.58;12.226105;95.3;12 / 15;129035;2022-10-13 13:23:37:209
13.838;1.8266;-2.5172;8.0655;-3.9549;-3.934;6.8157;2.369;-0.1089;-1.5672;1.1273;0.087;4722.0;-36.09;-15.45;15.69;178.27;16.87;-112.83;5.0;979.07;50.723;35.95626;-83.92583;786.06;NaN;;5.44;12.226105;91.7;12 / 15;129535;2022-10-13 13:23:37:709
8.1123;-4.52;-4.4949;9.0172;2.0002;-3.2953;-1.3275;-6.0671;-1.0096;0.0016;-0.4919;0.934;8050.0;-32.76;-18.75;24.45;133.38;-11.77;-110.07;5.0;979.06;50.774;35.95626;-83.92583;786.06;NaN;;5.44;12.226105;91.7;12 / 15;130034;2022-10-13 13:23:38:208
16.0071;-1.6017;-0.8524;7.8851;-3.5356;-4.6363;3.5098;3.2673;2.3866;-1.2603;0.4213;1.4734;5429.0;-23.47;-14.76;28.31;154.58;21.13;-120.45;5.0;979.06;51.957;35.956257;-83.92581;785.53;NaN;;5.11;12.226105;91.2;12 / 15;130534;2022-10-13 13:23:38:708
7.2781;-0.4609;-2.7508;9.0999;2.0852;-3.0022;-1.3669;-6.6954;-1.4494;-0.2682;-0.2607;1.0704;8291.0;-27.07;-14.63;17.49;136.41;-12.28;-108.26;5.0;979.04;52.222;35.956257;-83.92581;785.53;NaN;;5.11;12.226105;91.2;12 / 15;131034;2022-10-13 13:23:39:208
15.9709;0.274;-2.6587;7.8832;-4.0841;-4.1649;7.6182;3.4436;0.9183;-0.9751;0.885;-0.5856;5802.0;-25.37;-13.44;19.89;165.19;22.1;-117.3;5.0;979.06;53.417;35.956253;-83.92579;785.6;NaN;;5.72;12.226105;100.0;12 / 15;131535;2022-10-13 13:23:39:709
5.9674;-1.8099;-4.3023;9.1198;2.4467;-2.6482;-0.2963;-6.7276;-1.9158;0.2953;-0.3013;-0.3302;8986.0;-29.4;-16.58;22.76;122.51;-11.23;-102.89;5.0;979.02;52.797;35.956253;-83.92579;785.6;NaN;;5.72;12.226105;100.0;12 / 15;132035;2022-10-13 13:23:40:209
18.5148;0.7217;-3.1316;8.1009;-3.6206;-4.1757;4.695;3.4637;1.9843;-0.9254;0.77;-0.2262;7641.0;-29.03;-16.24;26.81;144.95;7.44;-110.07;5.0;979.06;53.164;35.95625;-83.92577;787.13;NaN;;5.69;12.226105;91.2;12 / 15;132535;2022-10-13 13:23:40:709
9.1023;-6.3682;-4.5691;9.0795;2.1418;-3.0242;-0.7174;-6.8453;-1.2141;0.017;0.1267;1.7511;8977.0;-29.53;-15.36;26.19;118.73;-8.5;-104.84;5.0;979.03;51.543;35.95625;-83.92577;787.13;NaN;;5.69;12.226105;91.2;12 / 15;133034;2022-10-13 13:23:41:208
16.1363;-2.0853;-4.2138;8.0255;-3.7561;-4.2015;2.3926;2.308;1.1925;-0.6496;-0.2137;2.1064;7349.0;-27.04;-13.82;26.4;158.52;22.52;-117.63;5.0;979.04;52.259;35.956245;-83.92575;788.53;NaN;;5.72;12.226105;95.4;12 / 15;133535;2022-10-13 13:23:41:709
6.5085;-1.6364;-2.8585;9.1937;0.8659;-3.301;-0.1354;-5.8408;-0.6632;-0.4335;-0.1441;0.5066;9046.0;-30.58;-16.58;26.55;130.55;-2.39;-107.15;5.0;979.02;52.904;35.956245;-83.92575;788.53;NaN;;5.72;12.226105;95.4;12 / 15;134035;2022-10-13 13:23:42:209
16.4127;-0.4884;-4.733;7.8811;-4.3137;-3.9308;7.1233;1.0608;0.1223;-0.8543;0.7962;-0.2078;6868.0;-30.28;-12.06;31.31;153.41;26.1;-116.51;5.0;979.02;54.126;35.95624;-83.925735;788.32;NaN;;5.11;12.226105;92.8;13 / 15;134535;2022-10-13 13:23:42:709
5.3028;-2.3868;-0.7134;9.566;1.4721;-1.5795;-1.9101;-5.8813;-1.3971;-0.0502;-0.6848;0.391;8341.0;-33.11;-16.89;29.89;125.21;-1.92;-102.37;5.0;979.02;51.31;35.95624;-83.925735;788.32;NaN;;5.11;12.226105;92.8;13 / 15;135034;2022-10-13 13:23:43:208
18.4023;0.6894;-1.8242;7.9324;-4.4682;-3.6446;10.3599;2.8131;2.0242;-0.8744;1.9775;-1.2884;6471.0;-33.81;-18.26;36.43;153.18;27.26;-114.44;5.0;979.04;51.818;35.956238;-83.92572;792.6;NaN;;6.73;12.226105;109.2;13 / 15;135535;2022-10-13 13:23:43:709
11.3707;-0.5997;-4.6636;9.537;0.961;-2.0717;-2.2113;-7.1556;-0.2479;0.1041;-0.1067;1.1;7874.0;-38.85;-15.75;32.96;115.63;-5.62;-102.26;5.0;978.99;51.901;35.956238;-83.92572;792.6;NaN;;6.73;12.226105;109.2;13 / 15;136035;2022-10-13 13:23:44:209
19.4689;-5.0492;-1.0271;7.6179;-4.6843;-4.0244;6.2172;5.7414;1.0291;-0.6341;0.495;-0.6147;6466.0;-34.03;-7.78;34.97;152.71;28.53;-117.85;5.0;979.0;53.184;35.956223;-83.925705;794.43;NaN;;5.72;12.226105;118.9;13 / 15;136534;2022-10-13 13:23:44:708
7.6349;-6.3072;-4.2449;8.7769;3.5028;-2.6207;-4.846;-7.5106;-0.0643;-0.1046;-0.4635;4.3001;9348.0;-33.73;-18.9;33.32;80.86;-28.81;-106.36;5.0;978.99;51.825;35.956223;-83.925705;794.43;NaN;;5.72;12.226105;118.9;13 / 15;137035;2022-10-13 13:23:45:209
12.204;-7.3678;-3.3661;6.1874;-6.4778;-3.9906;13.3419;5.0933;3.7928;0.0748;1.5328;-2.21;7989.0;-37.01;-9.69;36.75;155.29;34.05;-116.51;5.0;979.01;53.234;35.956215;-83.92569;796.2;NaN;;5.87;12.226105;119.5;13 / 15;137534;2022-10-13 13:23:45:708
5.4682;-3.6126;-1.5443;9.4476;1.5701;-2.1089;-3.2249;-5.2951;0.451;-0.943;-0.3476;3.0891;10311.0;-38.94;-17.61;34.41;113.02;-9.21;-102.58;5.0;978.99;51.587;35.956215;-83.92569;796.2;NaN;;5.87;12.226105;119.5;13 / 15;138035;2022-10-13 13:23:46:209
16.238;-4.2688;0.0514;8.8784;-2.8275;-3.0578;5.9141;1.7982;5.2531;0.9416;0.5782;-0.8511;10050.0;-43.57;-21.39;28.61;159.4;16.76;-109.0;5.0;979.0;49.081;35.95621;-83.925674;795.88;NaN;;5.36;12.226105;104.2;13 / 15;138535;2022-10-13 13:23:46:709
-14.5202;-7.3164;7.1357;2.6155;9.2416;-1.9804;-4.3469;-7.1506;3.3261;1.7818;3.2179;1.3029;9088.0;-24.73;-33.39;30.13;19.58;-70.46;-127.13;5.0;978.94;49.923;35.95621;-83.925674;795.88;NaN;;5.36;12.226105;104.2;13 / 15;139034;2022-10-13 13:23:47:208
59.9507;-19.4127;33.163;0.4747;9.4289;-2.6533;-3.5864;-9.635;4.8953;-1.7006;0.4168;4.2795;8376.0;-13.69;-30.51;36.36;46.73;-62.25;-144.27;5.0;978.96;48.141;35.956207;-83.92566;798.34;NaN;;5.65;12.226105;83.7;13 / 15;139535;2022-10-13 13:23:47:709
4.2257;-4.8206;-10.4779;7.5257;5.9091;2.1486;-8.421;-8.3271;-5.2594;-2.614;-1.0394;4.5063;7614.0;-51.0;-26.23;17.83;79.47;-37.05;-74.07;5.0;978.9;48.984;35.956207;-83.92566;798.34;NaN;;5.65;12.226105;83.7;13 / 15;140035;2022-10-13 13:23:48:209
-3.8665;-6.7561;-0.1842;8.4421;4.64;1.8363;-10.2222;-8.5455;-0.8095;-6.6423;1.4359;6.6178;7473.0;-41.93;-35.29;14.21;108.46;-25.57;-88.59;5.0;978.95;48.629;35.956207;-83.92566;798.34;NaN;;5.65;12.226105;83.7;13 / 15;140535;2022-10-13 13:23:48:709
12.4648;0.1292;-1.5024;3.3197;-1.5485;9.0968;3.3405;0.6784;-10.6231;-0.4449;-1.1031;-0.0553;14056.0;-47.7;-17.61;-14.12;125.66;22.06;-21.78;5.0;978.96;52.363;35.956207;-83.92563;798.48;NaN;;5.33;12.226105;87.0;13 / 15;141034;2022-10-13 13:23:49:208
11.56;-5.4383;12.1107;8.5043;-3.0494;3.8143;-1.1265;-3.5176;8.7869;0.4169;-0.0405;0.2004;9749.0;-55.41;-15.36;-12.81;153.42;13.98;-62.46;5.0;978.97;50.107;35.95621;-83.92561;797.97;NaN;;5.8;12.226105;63.3;13 / 15;141535;2022-10-13 13:23:49:709
11.5744;-1.6507;-1.4952;9.5862;1.189;1.6918;2.2706;-4.2768;-3.9792;-0.0473;-3.3242;2.12;9482.0;-51.97;-25.78;-13.41;131.88;-7.99;-52.81;5.0;978.96;49.81;35.95621;-83.92561;797.97;NaN;;5.8;12.226105;63.3;13 / 15;142035;2022-10-13 13:23:50:209
15.9051;0.0766;2.9255;8.1963;-2.8654;-4.5585;2.8527;2.8535;5.8648;-1.7075;0.0344;0.9843;3483.0;-46.5;-20.78;27.45;178.01;16.99;-119.08;5.0;978.99;49.218;35.956215;-83.925606;795.89;NaN;;4.1;12.226105;54.1;13 / 15;142535;2022-10-13 13:23:50:709
8.056;-3.2883;-4.9905;9.062;3.6839;-0.6917;-3.6534;-6.977;-3.766;0.1575;-0.906;0.9718;6720.0;-46.59;-24.92;24.38;117.82;-14.22;-89.94;5.0;978.97;49.872;35.956215;-83.925606;795.89;NaN;;4.1;12.226105;54.1;13 / 15;143035;2022-10-13 13:23:51:209
14.7141;-2.1236;0.6703;7.7472;-2.8305;-5.3047;8.445;1.0923;5.5371;0.4773;0.852;-0.8535;3181.0;-41.89;-21.53;32.1;170.4;16.84;-120.63;5.0;978.98;49.107;35.95622;-83.92559;797.35;NaN;;4.61;12.226105;61.4;13 / 15;143534;2022-10-13 13:23:51:708
4.3932;-1.1958;-4.4064;8.9345;3.3488;-2.2651;-1.9796;-7.2906;-1.8299;0.2263;0.1017;-0.1648;6088.0;-40.37;-22.57;33.28;109.95;-17.05;-103.1;5.0;978.96;50.351;35.95622;-83.92559;797.35;NaN;;4.61;12.226105;61.4;13 / 15;144035;2022-10-13 13:23:52:209
13.5577;-1.2401;1.4174;7.7191;-3.1333;-5.1738;7.7717;2.8383;3.1256;-0.2816;0.873;-0.5691;3210.0;-36.96;-14.92;39.54;157.93;18.63;-123.83;5.0;979.0;48.087;35.956223;-83.92558;796.59;NaN;;4.82;14.227747;65.3;13 / 15;144534;2022-10-13 13:23:52:708
8.1242;-2.4;-5.1209;9.2848;1.7827;-2.6048;-3.592;-3.8905;-2.7295;-0.5489;-0.5127;2.1865;6146.0;-40.24;-16.44;35.93;94.59;-16.52;-100.9;5.0;978.98;49.43;35.956223;-83.92558;796.59;NaN;;4.82;14.227747;65.3;13 / 15;145034;2022-10-13 13:23:53:208
13.0992;-1.9522;2.1811;8.7386;-2.62;-3.5977;4.5513;3.0463;4.2602;-1.4053;0.5707;1.3733;3159.0;-38.29;-11.96;38.87;155.4;20.24;-121.38;5.0;979.02;48.498;35.956223;-83.92557;799.98;NaN;;4.64;12.918002;71.2;13 / 15;145535;2022-10-13 13:23:53:709
7.5846;-2.709;-4.0161;9.4097;1.8409;-2.0591;-1.0425;-5.1726;-2.9503;-0.6451;-0.641;2.3296;6055.0;-42.81;-16.29;33.32;105.77;-10.82;-102.34;5.0;978.97;47.953;35.956223;-83.92557;799.98;NaN;;4.64;12.918002;71.2;13 / 15;146035;2022-10-13 13:23:54:209
14.0868;-5.9674;-2.6671;7.8289;-3.4599;-4.7863;6.1585;2.2665;6.8064;0.3893;0.8618;0.0621;3498.0;-38.98;-12.66;36.66;159.92;20.66;-121.44;5.0;979.0;46.652;35.956223;-83.92555;798.0;NaN;;4.28;12.712497;75.9;13 / 15;146534;2022-10-13 13:23:54:708
8.2238;-2.9471;-4.0172;8.489;0.7469;-4.8528;-1.985;-6.5807;-0.0718;-1.5241;1.2938;2.7423;4994.0;-38.1;-9.69;38.29;96.34;-8.96;-115.62;5.0;978.95;48.454;35.956223;-83.92555;798.0;NaN;;4.28;12.712497;75.9;13 / 15;147035;2022-10-13 13:23:55:209
14.7368;-4.3035;0.0263;7.6828;-4.0275;-4.5744;6.9897;1.8898;3.0317;0.4281;2.8079;-1.6669;3000.0;-36.09;-4.37;42.0;156.07;28.28;-125.94;5.0;978.97;48.219;35.956223;-83.92554;798.28;NaN;;4.21;12.226105;72.5;13 / 15;147535;2022-10-13 13:23:55:709
12.3009;-3.3446;-4.2808;9.5161;1.8953;-1.4224;-2.8594;-6.756;-2.3049;-0.2027;-0.5489;2.2214;6499.0;-43.87;-13.16;32.85;97.42;-11.14;-98.5;5.0;978.95;49.526;35.956223;-83.92554;798.28;NaN;;4.21;12.226105;72.5;13 / 15;148035;2022-10-13 13:23:56:209
13.3747;-0.0873;-2.0459;7.8569;-4.5772;-3.6728;8.4568;1.799;1.5178;0.616;1.0644;-1.8855;2982.0;-41.74;-4.56;34.59;154.43;27.82;-115.05;5.0;978.98;49.412;35.956226;-83.92552;800.84;NaN;;4.1;12.226105;70.6;13 / 15;148535;2022-10-13 13:23:56:709
7.436;-5.298;-3.8761;9.5967;-0.3014;-1.9958;-2.017;-4.3624;-2.437;0.7746;-0.8137;1.4147;5654.0;-45.69;-9.9;29.94;97.72;-7.61;-95.28;5.0;978.93;48.406;35.956226;-83.92552;800.84;NaN;;4.1;12.226105;70.6;13 / 15;149035;2022-10-13 13:23:57:209
15.425;-2.5953;-0.425;8.3386;-3.7077;-3.5904;6.738;2.3744;4.0476;0.9892;0.7015;-1.8588;2773.0;-41.06;-3.81;35.42;150.24;23.81;-112.74;5.0;978.97;50.324;35.956226;-83.925514;801.03;NaN;;4.0;12.226105;74.4;13 / 15;149535;2022-10-13 13:23:57:709
8.0453;-1.992;-6.2988;9.2876;1.4168;-2.8113;-1.0156;-4.7101;-2.6559;-0.1248;-1.0378;0.6816;5101.0;-43.67;-8.49;33.96;84.08;-12.32;-99.95;5.0;978.93;50.315;35.956226;-83.925514;801.03;NaN;;4.0;12.226105;74.4;13 / 15;150035;2022-10-13 13:23:58:209
14.6566;-1.8194;-2.6838;7.6521;-3.5639;-4.9914;6.3907;3.5096;1.8161;0.5356;0.3616;-1.531;2605.0;-34.33;-3.26;42.21;142.3;21.31;-123.12;5.0;978.97;49.784;35.956226;-83.9255;801.98;NaN;;4.03;12.226105;79.6;12 / 15;150535;2022-10-13 13:23:58:709
8.4105;-1.4617;-5.4395;8.8253;1.2288;-4.0956;-2.3135;-4.7189;0.0398;0.4066;-0.3079;1.6966;4560.0;-34.89;-7.22;42.73;91.65;-7.2;-114.89;5.0;978.95;48.104;35.956226;-83.9255;801.98;NaN;;4.03;12.226105;79.6;12 / 15;151035;2022-10-13 13:23:59:209
13.6523;-1.5168;-6.7011;8.1408;-1.6941;-5.1988;5.2394;1.0639;-1.9282;0.3838;0.1245;-0.3935;2172.0;-28.52;0.43;48.36;128.19;16.92;-123.37;5.0;978.96;48.854;35.956226;-83.9255;801.98;NaN;;4.03;12.226105;79.6;12 / 15;151535;2022-10-13 13:23:59:709
11.2642;-1.6615;-7.5449;8.2804;0.5958;-5.2202;1.2106;-2.8305;-1.4838;-0.2462;-0.1043;2.9803;3761.0;-26.19;-4.14;60.28;91.11;-3.48;-122.23;5.0;978.94;51.269;35.956223;-83.92548;800.39;NaN;;4.9;12.226105;84.9;12 / 15;152035;2022-10-13 13:24:00:209
10.7889;-3.8091;-4.5093;7.1358;-4.0332;-5.3836;8.9111;4.2551;0.6627;-0.1645;1.4059;-1.6326;2131.0;-20.81;4.01;57.02;117.86;24.29;-127.03;5.0;978.96;48.803;35.956223;-83.92546;800.17;NaN;;4.32;12.226105;82.4;12 / 15;152535;2022-10-13 13:24:00:709
9.1621;-2.6599;-5.7589;8.7755;2.0798;-3.8518;-1.6532;-7.3539;-0.6206;-0.3358;-0.1517;2.1865;4357.0;-32.81;-3.36;44.03;66.83;-16.57;-115.29;5.0;978.94;47.943;35.956223;-83.92546;800.17;NaN;;4.32;12.226105;82.4;12 / 15;153035;2022-10-13 13:24:01:209
12.082;-6.1205;-0.9864;8.3207;-3.8805;-3.4464;5.1931;1.4313;3.1582;2.2429;0.4428;-2.8077;2630.0;-31.65;-0.62;43.01;151.62;30.55;-127.51;5.0;978.94;46.863;35.956223;-83.92545;800.19;NaN;;4.46;12.226105;75.6;12 / 15;153535;2022-10-13 13:24:01:709
9.775;-1.5766;-4.3011;9.5318;0.3425;-2.28;-2.1091;-3.4795;-0.9817;0.0838;-0.6246;2.0175;4703.0;-42.06;-6.21;35.7;86.06;-9.13;-102.34;5.0;978.93;47.393;35.956223;-83.92545;800.19;NaN;;4.46;12.226105;75.6;12 / 15;154035;2022-10-13 13:24:02:209
11.56;-3.8294;-1.3131;8.5722;-3.5242;-3.2044;7.8584;0.7083;2.5084;1.796;0.7442;-3.008;2552.0;-36.28;2.38;38.98;122.36;21.06;-110.5;5.0;978.94;53.023;35.956223;-83.92544;799.44;NaN;;4.68;12.226105;69.3;12 / 15;154534;2022-10-13 13:24:02:708
8.9288;-0.4549;-6.2737;8.8096;0.0723;-4.3076;0.0894;-0.3847;-1.677;-0.9387;-0.3648;1.7877;3604.0;-39.34;-4.39;37.61;73.43;-11.65;-111.64;5.0;978.92;48.236;35.956223;-83.92544;799.44;NaN;;4.68;12.226105;69.3;12 / 15;155035;2022-10-13 13:24:03:209
7.9089;-1.8003;-4.3537;8.5042;-1.7125;-4.5734;5.1968;3.1458;0.424;0.5214;0.3273;-2.5637;2128.0;-29.72;0.3;43.52;108.59;10.06;-118.27;5.0;978.95;47.651;35.956226;-83.92542;800.56;NaN;;4.72;12.226105;71.4;12 / 15;155535;2022-10-13 13:24:03:709
10.279;-1.5096;-7.0026;8.73;-0.19;-4.4634;1.5806;-1.43;-2.1012;0.0888;-0.2646;2.1786;3292.0;-33.84;-5.76;41.12;73.84;-14.74;-115.45;5.0;978.95;46.543;35.956226;-83.92542;800.56;NaN;;4.72;12.226105;71.4;12 / 15;156034;2022-10-13 13:24:04:208
14.8086;-1.0044;-2.7939;9.3462;-0.5117;-2.9253;3.9013;-1.0241;0.8065;1.6942;1.8801;-2.8128;2292.0;-33.13;-6.69;41.33;138.59;14.22;-122.56;5.0;978.96;48.452;35.95623;-83.925415;799.13;NaN;;4.54;12.226105;61.1;12 / 15;156535;2022-10-13 13:24:04:709
9.4831;-2.138;-4.156;9.0698;1.865;-3.2298;-0.4431;-4.4969;-0.7296;-0.5599;-0.0017;2.1729;3578.0;-37.99;-11.91;36.84;76.18;-19.94;-110.42;5.0;978.94;46.501;35.95623;-83.925415;799.13;NaN;;4.54;12.226105;61.1;12 / 15;157034;2022-10-13 13:24:05:208
14.0127;-2.758;-2.8872;9.2541;-1.0935;-3.0556;4.9428;-1.5592;1.2029;0.1373;0.8584;-1.4368;2054.0;-36.96;-5.32;38.55;144.59;21.2;-118.02;5.0;978.93;46.251;35.956238;-83.9254;800.24;NaN;;4.54;12.226105;64.4;12 / 15;157535;2022-10-13 13:24:05:709
9.6529;-1.252;-4.3681;8.7011;2.6978;-3.6308;-1.6722;-5.7403;-0.6937;-1.6209;0.5422;3.0568;3690.0;-35.94;-10.59;38.81;61.1;-23.35;-117.87;5.0;978.94;47.554;35.956238;-83.9254;800.24;NaN;;4.54;12.226105;64.4;12 / 15;158035;2022-10-13 13:24:06:209
14.9417;-2.9973;-1.6029;8.9087;-1.4854;-3.8208;5.8473;-1.3664;1.9223;1.6533;1.2225;-2.9147;2247.0;-35.74;-7.95;39.84;153.52;19.54;-124.61;5.0;978.93;48.99;35.956238;-83.9254;800.24;NaN;;4.54;12.226105;64.4;12 / 15;158535;2022-10-13 13:24:06:709
12.0625;-0.711;-8.068;8.6401;0.2156;-4.6338;0.7375;-1.8776;-0.7254;-0.4546;-0.7081;2.7509;3209.0;-35.36;-11.72;38.49;122.81;-1.26;-118.21;5.0;978.91;48.625;35.956238;-83.925385;800.97;NaN;;4.54;12.226105;63.6;12 / 15;159035;2022-10-13 13:24:07:209
14.9955;-3.9419;-4.2532;9.2105;-1.0643;-3.1943;5.7373;-2.8152;-0.5325;1.8367;1.2212;-3.3607;2185.0;-30.49;-6.41;40.82;144.41;19.21;-127.69;5.0;978.92;49.894;35.95624;-83.92538;801.42;NaN;;4.57;12.226105;76.7;12 / 15;159535;2022-10-13 13:24:07:709
9.3945;-1.051;-4.7426;8.8899;2.6119;-3.2123;-1.3993;-7.4147;-0.6169;-0.6208;-0.1269;2.1672;3434.0;-37.57;-12.08;36.34;86.69;-15.45;-109.87;5.0;978.93;50.774;35.95624;-83.92538;801.42;NaN;;4.57;12.226105;76.7;12 / 15;160035;2022-10-13 13:24:08:209
9.7654;-4.3573;-4.0507;8.4359;-3.0317;-3.9767;7.3538;2.783;3.6749;1.9413;0.7189;-2.6893;1973.0;-34.09;-3.75;39.53;149.95;24.14;-122.76;5.0;978.96;56.747;35.95624;-83.92536;800.83;NaN;;4.28;12.226105;69.9;12 / 15;160535;2022-10-13 13:24:08:709
10.8141;-1.7058;-5.0288;8.9005;1.356;-3.8876;-0.7249;-3.6512;-1.0319;-0.3958;-0.4771;2.636;3073.0;-36.02;-10.11;38.87;70.92;-19.07;-115.9;5.0;978.92;47.55;35.95624;-83.92536;800.83;NaN;;4.28;12.226105;69.9;12 / 15;161034;2022-10-13 13:24:09:208
13.1375;-3.8031;-1.7919;8.4711;-1.9751;-4.5287;6.8301;1.8151;6.665;1.055;1.3019;-0.5879;2213.0;-34.99;-9.41;39.38;141.89;13.37;-123.51;5.0;978.93;47.932;35.95624;-83.92535;799.89;NaN;;4.36;12.226105;68.5;12 / 15;161534;2022-10-13 13:24:09:708
11.5947;-4.3131;-6.0835;8.1375;1.2585;-5.3262;-4.7427;-5.5787;2.2513;-2.2092;0.7399;3.6595;2265.0;-38.59;-1.14;37.13;58.88;-7.37;-123.21;5.0;978.89;49.887;35.95624;-83.92535;799.89;NaN;;4.36;12.226105;68.5;12 / 15;162035;2022-10-13 13:24:10:209
14.7236;-0.7277;-3.2812;6.7671;-2.3773;-6.6877;5.902;1.936;6.9486;-0.0076;1.257;-0.7171;2136.0;-29.59;-5.17;43.82;141.74;22.88;-127.29;5.0;978.93;48.143;35.956245;-83.92534;800.58;NaN;;4.86;12.226105;81.6;12 / 15;162535;2022-10-13 13:24:10:709
5.5747;-1.2138;-8.3554;6.9843;3.2614;-6.0625;-1.6531;-5.4947;-0.1764;-0.7243;0.8221;2.7014;2752.0;-26.38;-13.42;44.85;58.33;-25.25;-132.87;5.0;978.93;47.221;35.956245;-83.92534;800.58;NaN;;4.86;12.226105;81.6;12 / 15;163035;2022-10-13 13:24:11:209
12.4289;-0.9637;-5.9327;8.8368;-0.6333;-4.2048;4.1308;0.8889;2.3264;1.5619;0.6787;-2.4664;2356.0;-31.09;-17.4;40.99;141.52;7.42;-122.02;5.0;978.95;48.382;35.956245;-83.92534;800.58;NaN;;4.86;12.226105;81.6;12 / 15;163535;2022-10-13 13:24:11:709
9.3634;-1.5024;-6.1134;8.7726;0.3344;-4.3704;0.5405;-1.3075;-0.8297;-0.2378;-0.1361;1.4804;2635.0;-33.94;-13.46;41.12;95.92;-12.4;-115.17;5.0;978.94;48.538;35.956245;-83.92532;800.91;NaN;;4.46;12.226105;73.0;12 / 15;164035;2022-10-13 13:24:12:209
13.3974;-3.5827;-3.1974;8.6214;-2.3112;-4.062;8.6855;4.8159;2.7528;2.5284;0.327;-3.3485;2024.0;-33.58;-8.83;41.64;149.08;19.41;-125.23;5.0;978.95;50.182;35.95625;-83.9253;799.09;NaN;;4.5;12.226105;65.5;12 / 15;164535;2022-10-13 13:24:12:709
10.7937;-2.5232;-6.2821;8.8945;0.2198;-4.1243;0.2592;-1.8766;-0.7797;0.1918;-0.2527;1.8852;2642.0;-34.74;-12.96;40.16;118.91;-1.28;-114.88;5.0;978.92;47.466;35.95625;-83.9253;799.09;NaN;;4.5;12.226105;65.5;12 / 15;165035;2022-10-13 13:24:13:209
15.2803;-3.6978;-4.5858;9.138;-1.1739;-3.3598;5.2255;-2.6344;-1.3511;1.5933;0.5406;-2.9506;1975.0;-33.77;-5.04;41.38;145.87;21.64;-123.21;5.0;978.98;58.282;35.956253;-83.92529;798.0;NaN;;4.43;12.226105;71.5;12 / 15;165535;2022-10-13 13:24:13:709
9.3024;-2.7975;-4.4877;8.8803;1.3291;-3.9425;-1.6303;-3.3936;-0.7334;0.7217;-0.3537;2.7098;2474.0;-35.36;-12.97;39.19;76.74;-21.53;-112.75;5.0;978.93;50.309;35.956253;-83.92529;798.0;NaN;;4.43;12.226105;71.5;12 / 15;166034;2022-10-13 13:24:14:208
16.9179;-3.1161;-5.024;8.4922;-2.3684;-4.2946;8.0929;-0.3935;-0.533;0.5763;0.6544;-1.0505;1837.0;-31.22;-1.69;42.51;141.71;22.99;-122.54;5.0;978.93;53.433;35.956253;-83.92528;797.4;NaN;;4.39;12.226105;84.7;12 / 15;166535;2022-10-13 13:24:14:709
8.3375;-2.4933;-4.5655;8.51;1.2793;-4.7026;-0.4981;-3.6915;-0.4601;0.0266;0.4669;2.0558;2367.0;-32.72;-9.28;40.78;61.43;-21.29;-121.56;5.0;978.95;51.409;35.956253;-83.92528;797.4;NaN;;4.39;12.226105;84.7;12 / 15;167035;2022-10-13 13:24:15:209
9.859;-3.402;-1.835;8.036;-3.656;-4.2692;7.6911;5.7115;-0.5629;0.077;1.1924;-2.9843;1594.0;-28.63;2.59;42.02;121.0;21.89;-117.98;5.0;978.95;52.071;35.956257;-83.92526;796.53;NaN;;4.5;12.226105;76.2;12 / 15;167535;2022-10-13 13:24:15:709
11.0907;-4.1225;-6.6281;9.234;0.1008;-3.3005;-0.3665;-2.978;-1.2671;0.1248;-0.1685;1.9176;2384.0;-37.41;-6.84;36.26;77.54;-14.54;-108.67;5.0;978.92;47.997;35.956257;-83.92526;796.53;NaN;;4.5;12.226105;76.2;12 / 15;168034;2022-10-13 13:24:16:208
12.6048;-3.6906;-3.2261;8.1714;-2.877;-4.5958;8.1657;0.2303;1.7199;0.6752;1.2767;-2.9094;1825.0;-29.08;1.48;40.46;120.6;17.06;-119.35;5.0;978.96;49.288;35.956257;-83.92525;795.47;NaN;;4.43;12.226105;69.6;12 / 15;168535;2022-10-13 13:24:16:709
13.6798;-2.3916;-3.8976;9.1763;0.2768;-3.4481;1.9435;-4.0866;0.4141;-0.5302;-0.1836;2.6192;2353.0;-35.57;-8.01;37.69;83.59;-12.23;-113.02;5.0;978.94;46.711;35.956257;-83.92525;795.47;NaN;;4.43;12.226105;69.6;12 / 15;169035;2022-10-13 13:24:17:209
10.6262;-3.591;-2.0686;9.4724;-0.9614;-2.3494;1.6592;-2.605;0.8249;0.483;1.2154;-1.4834;2061.0;-34.39;2.34;38.08;135.69;23.28;-119.61;5.0;978.95;48.488;35.956264;-83.92523;794.95;NaN;;4.54;12.226105;68.9;12 / 15;169535;2022-10-13 13:24:17:709
8.0237;-2.3593;-4.6229;9.0761;-1.897;-3.1932;-0.1754;-0.8625;-2.814;-3.8152;1.5451;2.6454;2036.0;-40.59;-2.16;34.54;87.83;-3.18;-108.28;5.0;978.93;47.328;35.956264;-83.92523;794.95;NaN;;4.54;12.226105;68.9;12 / 15;170035;2022-10-13 13:24:18:209
10.4145;-2.9901;-0.1436;9.2894;-2.6345;-1.7138;3.3832;-0.2039;1.4401;1.6453;1.3122;-1.5173;2896.0;-43.31;-7.31;30.6;130.85;15.58;-100.45;5.0;978.91;46.806;35.95627;-83.92522;793.59;NaN;;4.36;12.226105;64.2;12 / 15;170534;2022-10-13 13:24:18:708
8.2813;-1.3645;-2.1248;9.6533;-0.0173;-1.7273;-0.8981;-2.1586;0.0519;-0.7783;-0.7192;1.9058;2940.0;-46.26;-16.24;26.06;132.61;0.1;-100.14;5.0;978.94;49.728;35.95627;-83.92522;793.59;NaN;;4.36;12.226105;64.2;12 / 15;171035;2022-10-13 13:24:19:209
9.1274;-2.5594;-2.2756;9.3464;-2.7042;-1.2259;3.5492;-0.3479;-0.1027;2.0856;0.7411;-1.9152;2850.0;-44.89;-7.03;30.0;152.96;25.52;-108.93;5.0;978.94;47.006;35.956272;-83.9252;793.05;NaN;;4.21;12.226105;69.4;12 / 15;171535;2022-10-13 13:24:19:709
7.9053;-1.343;-1.4701;8.9882;-2.8636;-2.6799;3.197;-0.6817;-1.3638;-1.3407;0.0319;1.7438;2095.0;-45.39;-8.78;29.08;134.45;9.21;-103.92;5.0;978.91;48.558;35.956272;-83.9252;793.05;NaN;;4.21;12.226105;69.4;12 / 15;172035;2022-10-13 13:24:20:209
12.5103;-7.2446;-1.7812;9.5673;-1.1425;-1.8251;3.0558;-6.0499;0.1825;1.3767;0.0201;-3.0223;1957.0;-38.55;2.66;35.93;142.67;30.83;-113.34;5.0;978.94;48.923;35.956272;-83.9252;793.05;NaN;;4.21;12.226105;69.4;12 / 15;172535;2022-10-13 13:24:20:709
8.1784;0.7205;-2.9052;9.2433;1.203;-3.0471;1.4823;-2.6465;-0.7828;0.1051;-0.2973;1.9204;2672.0;-40.03;-9.47;34.5;60.34;-21.66;-111.65;5.0;978.87;51.004;35.956272;-83.92519;793.19;NaN;;4.54;12.226105;77.8;12 / 15;173035;2022-10-13 13:24:21:209
7.4743;-3.754;-2.2397;9.565;-1.5542;-1.5053;-0.0336;-1.2452;0.3476;2.3169;-0.3065;-2.3376;2772.0;-41.31;-1.22;33.64;133.69;21.43;-107.76;5.0;978.9;46.089;35.956272;-83.92518;794.59;NaN;;4.54;12.226105;72.9;12 / 15;173535;2022-10-13 13:24:21:709
8.5361;-2.0183;-2.0614;9.2713;-1.9037;-2.5669;2.297;-0.6773;-1.4733;-0.4398;-0.0659;0.9842;2548.0;-43.11;-3.51;30.99;126.41;11.19;-105.48;5.0;978.92;49.728;35.956272;-83.92518;794.59;NaN;;4.54;12.226105;72.9;12 / 15;174035;2022-10-13 13:24:22:209
8.3148;-3.1256;-1.6472;9.2341;-1.6842;-2.8399;0.254;-1.5011;2.0343;1.7101;-0.0015;-2.7845;2430.0;-37.91;1.91;35.19;105.15;9.89;-107.09;5.0;978.9;49.639;35.956276;-83.92517;794.63;NaN;;4.43;12.226105;68.1;12 / 15;174535;2022-10-13 13:24:22:709
8.7661;-0.9924;-3.1687;8.8828;-2.1018;-3.5846;1.3943;0.2172;-1.8377;-0.7416;-0.1916;2.0386;2396.0;-37.44;-7.13;35.66;118.07;5.32;-109.9;5.0;978.9;50.9;35.956276;-83.92517;794.63;NaN;;4.43;12.226105;68.1;12 / 15;175035;2022-10-13 13:24:23:209
8.5445;-4.2855;-3.128;9.6407;-0.6963;-1.6559;-0.0932;-3.4473;-0.9976;1.1967;1.2815;-2.2811;2610.0;-36.34;-0.53;35.87;148.79;29.93;-119.77;5.0;978.92;47.277;35.95628;-83.925156;794.26;NaN;;4.57;12.226105;72.1;12 / 15;175535;2022-10-13 13:24:23:709
9.4579;-1.8589;-2.2792;8.6378;-2.9814;-3.5596;1.6015;0.8685;-0.8763;-1.1607;-0.2304;2.3513;2882.0;-40.86;-9.15;32.49;112.48;-1.1;-105.95;5.0;978.92;51.158;35.95628;-83.925156;794.26;NaN;;4.57;12.226105;72.1;12 / 15;176035;2022-10-13 13:24:24:209
10.9313;-6.4965;-2.843;8.275;-3.9639;-3.4615;9.3871;-0.5725;1.0212;1.362;1.6907;-3.6288;2551.0;-36.13;-1.63;36.56;136.09;23.84;-112.7;5.0;978.91;49.09;35.956284;-83.92513;795.24;NaN;;4.1;12.226105;73.0;12 / 15;176534;2022-10-13 13:24:24:708
10.7961;-4.6062;-5.3064;9.236;1.1391;-3.0934;-3.0186;-4.1144;0.3031;-1.1464;0.4319;3.942;3110.0;-38.53;-9.64;35.08;77.15;-16.72;-110.18;5.0;978.88;44.495;35.956284;-83.92513;795.24;NaN;;4.1;12.226105;73.0;12 / 15;177035;2022-10-13 13:24:25:209
14.671;-7.229;-1.3406;9.3334;-2.5243;-1.6388;5.5891;-4.5379;1.01;2.9959;1.1596;-3.3723;3136.0;-37.54;0.38;35.66;111.26;14.92;-99.96;5.0;978.89;47.351;35.956287;-83.92512;794.38;NaN;;4.46;12.226105;62.4;12 / 15;177536;2022-10-13 13:24:25:710
10.0804;-0.5614;-3.4187;9.46;1.44;-2.1458;-2.3791;-4.8695;0.46;-0.2769;-0.627;2.1755;3682.0;-42.34;-10.01;31.65;97.38;-8.44;-102.78;5.0;978.88;47.495;35.956287;-83.92512;794.38;NaN;;4.46;12.226105;62.4;12 / 15;178035;2022-10-13 13:24:26:209
8.9085;-4.4148;-2.7688;9.2021;-2.4922;-2.2981;4.0081;-1.1027;2.1187;2.1136;-0.1351;-2.8976;3221.0;-37.28;-0.45;35.93;143.79;26.08;-116.37;5.0;978.9;47.886;35.95629;-83.9251;793.26;NaN;;4.5;12.226105;74.3;12 / 15;178534;2022-10-13 13:24:26:708
13.092;-3.1005;-4.957;9.3359;-1.145;-2.7749;0.8;-2.6474;-0.23;-0.0128;-0.4794;2.4561;3724.0;-41.1;-7.16;32.78;81.82;-11.86;-105.08;5.0;978.93;47.064;35.95629;-83.9251;793.26;NaN;;4.5;12.226105;74.3;12 / 15;179035;2022-10-13 13:24:27:209
11.7873;-6.2342;-1.6735;9.1615;-2.6202;-2.3177;4.6829;-3.7015;2.1194;2.7661;-0.1385;-3.2301;2707.0;-36.49;2.74;35.55;108.64;15.5;-104.2;5.0;978.91;50.442;35.956295;-83.925095;791.28;NaN;;4.39;12.226105;75.9;11 / 15;179535;2022-10-13 13:24:27:709
10.838;-3.6221;-3.9;9.3588;-0.8909;-2.791;-0.3196;-3.8579;0.2019;-0.579;0.3074;2.4463;4306.0;-40.57;-3.9;32.91;112.9;5.21;-106.61;5.0;978.88;45.052;35.956295;-83.925095;791.28;NaN;;4.39;12.226105;75.9;11 / 15;180034;2022-10-13 13:24:28:208
16.9238;-6.3706;-1.1288;6.994;-5.7736;-3.731;9.8337;3.1998;2.1387;1.5189;-0.0791;-3.4246;2222.0;-32.57;10.74;35.42;139.47;36.07;-118.08;5.0;978.94;49.91;35.956295;-83.92508;791.05;NaN;;4.68;12.226105;63.9;11 / 15;180534;2022-10-13 13:24:28:708
5.3243;1.421;5.6489;7.0972;3.9131;5.5216;1.1828;-2.8848;-2.4304;-0.9441;5.5395;0.5226;6315.0;-40.86;-2.46;29.1;57.92;-21.66;-97.69;5.0;978.9;46.013;35.956295;-83.92508;791.05;NaN;;4.68;12.226105;63.9;11 / 15;181035;2022-10-13 13:24:29:209
2.7209;4.3681;10.8787;1.8061;4.4405;8.5552;-0.177;-0.2108;0.9199;-0.3693;0.6716;0.8301;33839.0;-40.84;-15.66;-31.22;88.21;-25.6;-7.42;5.0;978.94;44.638;35.956303;-83.925064;790.77;NaN;;4.46;12.226105;68.2;11 / 15;181534;2022-10-13 13:24:29:708
0.5674;4.0866;7.4934;1.3052;5.0186;8.3235;0.4872;0.4394;0.1835;-0.6945;0.2957;-0.6177;36448.0;-37.93;-14.79;-35.81;75.4;-30.78;-8.91;5.0;978.88;52.103;35.956303;-83.925064;790.77;NaN;;4.46;12.226105;68.2;11 / 15;182036;2022-10-13 13:24:30:210
1.4844;3.3661;10.4611;0.2501;4.2807;8.8195;-1.3097;-0.6166;1.416;-0.0218;-0.2905;0.7133;78392.0;-35.1;-15.02;-38.18;84.08;-25.88;-1.62;5.0;978.81;45.971;35.956303;-83.925064;790.77;NaN;;4.46;12.226105;68.2;12 / 15;182535;2022-10-13 13:24:30:709
0.5602;1.3202;9.7499;-0.1551;0.0906;9.805;2.1049;0.2086;1.4453;-0.9286;-1.2535;-1.8009;92672.0;-32.81;-5.66;-40.54;99.49;-0.53;0.91;5.0;978.88;48.622;35.956306;-83.92505;793.12;NaN;;4.93;12.226105;54.4;12 / 15;183034;2022-10-13 13:24:31:208
-0.5219;2.3593;11.3659;-1.3434;1.9432;9.5179;0.4866;0.3173;2.5912;0.699;1.0045;0.4136;100967.0;-33.37;-4.35;-40.78;90.65;-5.11;1.02;5.0;978.85;47.513;35.95631;-83.92503;791.63;NaN;;5.15;12.226105;69.0;12 / 15;183535;2022-10-13 13:24:31:709
-0.2297;1.9056;13.0167;-0.4022;2.6371;9.4369;0.634;-0.3878;4.5385;-0.5422;-0.2951;-0.3466;119533.01;-26.66;-14.38;-42.36;81.69;-26.31;6.44;5.0;978.88;48.196;35.95631;-83.92503;791.63;NaN;;5.15;12.226105;69.0;12 / 15;184035;2022-10-13 13:24:32:209
1.1468;2.7784;10.6502;0.4087;2.709;9.4162;-0.9211;1.6932;3.4969;0.9465;-0.6716;0.1871;66662.0;-31.8;-14.89;-40.69;95.14;-16.04;-2.49;5.0;978.93;45.252;35.95632;-83.925026;789.86;NaN;;4.97;12.226105;63.7;12 / 15;184535;2022-10-13 13:24:32:709
1.9403;1.1743;15.9147;2.9536;2.1325;9.1049;-0.6455;-1.6979;7.5177;0.4732;-0.3;-0.1133;23257.0;-40.11;-24.26;-30.02;116.79;-12.56;-17.97;5.0;978.87;48.351;35.95632;-83.925026;789.86;NaN;;4.97;12.226105;63.7;12 / 15;185035;2022-10-13 13:24:33:209
1.6161;1.5299;14.5059;0.5358;2.1734;9.5478;-1.0357;0.4915;2.4286;-0.3535;-0.1272;0.1787;46304.0;-38.59;-23.87;-31.48;113.35;-12.8;-3.21;5.0;978.87;44.387;35.95633;-83.92501;788.14;NaN;;4.68;12.226105;66.0;12 / 15;185534;2022-10-13 13:24:33:708
22.2389;-0.7959;12.8767;5.1806;0.2926;8.3215;-2.7538;-4.2826;-2.0995;-1.5666;-7.4315;3.8295;28492.998;-37.01;-22.63;-31.97;90.43;-31.37;-8.76;5.0;978.88;47.611;35.95633;-83.92501;788.14;NaN;;4.68;12.226105;66.0;12 / 15;186035;2022-10-13 13:24:34:209
10.3627;-5.7087;8.9779;7.5667;-2.9177;5.5138;3.7736;-3.3866;4.7493;2.0936;0.3935;-0.7229;10695.0;-55.03;-2.81;-8.27;124.01;17.31;-53.92;5.0;978.88;47.105;35.956333;-83.924995;787.4;NaN;;4.64;12.226105;65.2;12 / 15;186536;2022-10-13 13:24:34:710
10.8416;-2.6336;16.7719;7.5043;-2.3778;5.8483;0.3829;-2.4364;-2.9706;-2.7776;-1.0355;1.1946;10683.0;-53.18;-13.09;-12.17;136.71;14.03;-52.07;5.0;978.86;47.625;35.956333;-83.924995;787.4;NaN;;4.64;12.226105;65.2;12 / 15;187035;2022-10-13 13:24:35:209
11.147;-5.6225;10.0146;6.8053;-2.4207;6.6332;3.1198;-2.5571;3.4811;1.2884;0.3588;-0.1394;10894.0;-53.87;-8.61;-12.24;133.33;17.13;-51.08;5.0;978.89;45.588;35.956337;-83.92499;788.19;NaN;;4.79;12.226105;64.3;12 / 15;187535;2022-10-13 13:24:35:709
10.7662;-1.5861;10.6729;6.419;-1.2832;7.3021;2.2742;-0.0669;-0.9485;-1.5178;-0.9835;0.4642;11052.0;-52.31;-8.53;-17.85;99.69;-4.57;-35.99;5.0;978.89;45.357;35.956337;-83.92499;788.19;NaN;;4.79;12.226105;64.3;12 / 15;188034;2022-10-13 13:24:36:208
7.0555;-1.9741;2.9471;7.4981;-3.4355;5.3053;2.7463;-1.7475;3.9603;1.3011;-0.3154;-0.1639;10548.0;-54.24;-4.35;-13.61;122.31;13.72;-48.98;5.0;978.87;45.495;35.956345;-83.924965;789.98;NaN;;4.86;12.226105;63.8;12 / 15;188535;2022-10-13 13:24:36:709
9.3048;-0.4896;2.624;8.0077;-2.1557;5.2345;2.6497;-0.1674;6.4574;0.8136;0.0323;-0.2966;9740.0;-54.15;-8.08;-11.1;111.61;3.55;-48.43;5.0;978.86;45.764;35.956345;-83.924965;789.98;NaN;;4.86;12.226105;63.8;12 / 15;189035;2022-10-13 13:24:37:209
9.7295;-3.268;4.8589;7.2418;-3.2735;5.7455;1.3625;-0.502;2.9841;0.222;-0.355;0.5637;10528.0;-53.96;-5.74;-10.44;117.91;9.25;-51.38;5.0;978.87;45.027;35.956345;-83.924965;789.98;NaN;;4.86;12.226105;63.8;12 / 15;189535;2022-10-13 13:24:37:709
14.6925;-0.4956;1.8769;9.7865;0.0555;0.6252;1.3383;-1.6584;1.4134;-2.7736;-0.296;1.1335;9948.0;-51.71;-12.38;-0.36;164.19;-0.32;-86.34;5.0;978.87;44.881;35.956352;-83.92495;788.47;NaN;;5.26;12.226105;63.5;12 / 15;190035;2022-10-13 13:24:38:209
13.1136;-1.3083;2.6061;9.0369;-1.8614;-3.3225;3.8595;1.4047;4.0699;0.9977;0.198;-0.147;9642.0;-45.68;-18.09;20.64;171.14;6.05;-107.91;5.0;978.88;47.353;35.956356;-83.92494;788.32;NaN;;4.75;12.226105;67.4;12 / 15;190535;2022-10-13 13:24:38:709
9.1633;-1.6699;-1.4402;9.7351;0.4828;-1.0791;-1.9913;-1.778;-0.3156;-0.5609;-0.3018;0.9327;10427.0;-45.09;-13.09;23.18;108.8;-8.21;-96.22;5.0;978.88;48.098;35.956356;-83.92494;788.32;NaN;;4.75;12.226105;67.4;12 / 15;191034;2022-10-13 13:24:39:208
13.0179;-3.0284;2.0064;8.7421;-3.7338;-2.4091;6.3302;2.3164;4.429;0.5362;0.6957;-0.6482;10157.0;-43.57;-4.97;27.51;147.04;22.38;-105.41;5.0;978.89;45.726;35.956356;-83.92494;788.32;NaN;;4.75;12.226105;67.4;12 / 15;191535;2022-10-13 13:24:39:709
10.2275;-0.6775;-2.7832;9.7496;0.2006;-1.037;-4.0228;-0.8639;0.8478;0.4242;-1.2357;1.6785;9786.0;-47.74;-5.92;25.61;82.85;-10.14;-93.97;5.0;978.86;47.451;35.956364;-83.92493;785.49;NaN;;4.86;12.226105;63.6;12 / 15;192035;2022-10-13 13:24:40:209
12.2064;-1.8625;-0.2982;8.9451;-3.2658;-2.343;3.5292;2.1301;2.3699;0.7628;-0.1731;-0.2874;9974.0;-43.71;2.31;33.51;124.88;19.45;-104.68;5.0;978.89;48.702;35.956367;-83.92491;784.45;NaN;;5.22;12.226105;64.8;12 / 15;192535;2022-10-13 13:24:40:709
12.0736;-2.5053;-4.2544;9.677;-0.0978;-1.5863;1.2554;-3.8377;-3.8478;0.1935;-0.631;1.4367;8356.0;-50.38;0.56;28.24;80.96;-3.21;-93.9;5.0;978.84;49.834;35.956367;-83.92491;784.45;NaN;;5.22;12.226105;64.8;12 / 15;193035;2022-10-13 13:24:41:209
12.5952;-4.0878;-0.5841;8.8383;-3.6348;-2.2007;6.6584;3.2748;0.4968;1.5164;0.7526;-2.583;8428.0;-47.51;6.69;31.65;128.69;21.87;-106.07;5.0;978.85;48.86;35.956375;-83.924904;784.18;NaN;;5.18;12.226105;59.1;12 / 15;193535;2022-10-13 13:24:41:709
8.4559;-0.3592;-1.9606;9.6301;-0.0059;-1.8527;0.844;-4.7036;-0.7964;-0.6001;0.0722;1.9072;6876.0;-50.08;-3.22;26.72;71.77;-9.53;-99.79;5.0;978.84;47.359;35.956375;-83.924904;784.18;NaN;;5.18;12.226105;59.1;12 / 15;194035;2022-10-13 13:24:42:209
14.1694;-2.193;0.2668;8.8896;-3.4357;-2.3109;4.2711;3.4963;1.5278;0.9021;0.351;-1.6194;6848.0;-44.01;4.09;29.7;127.57;20.51;-104.57;5.0;978.88;45.206;35.95638;-83.92489;784.43;NaN;;4.93;12.226105;64.7;12 / 15;194535;2022-10-13 13:24:42:709
8.1338;-2.6025;-3.2489;9.5543;1.1634;-1.8792;-0.2796;-5.3881;-0.8662;-0.501;-0.3031;0.9788;5856.0;-45.49;-2.81;27.6;81.22;-6.81;-101.13;5.0;978.83;44.675;35.95638;-83.92489;784.43;NaN;;4.93;12.226105;64.7;12 / 15;195035;2022-10-13 13:24:43:209
12.6781;-3.4475;-0.6739;8.6195;-3.8029;-2.7225;7.3977;3.4364;1.2251;-0.275;1.2173;-1.4435;4204.0;-40.54;5.08;30.45;130.85;22.82;-107.53;5.0;978.86;44.103;35.956383;-83.92487;784.24;NaN;;5.08;12.226105;64.1;12 / 15;195535;2022-10-13 13:24:43:709
8.8116;-2.3833;-1.8015;9.5851;0.2707;-2.055;-2.2661;-2.4299;-0.2207;0.1121;-0.362;1.78;3855.0;-44.12;-2.25;27.9;70.71;-9.54;-102.73;5.0;978.83;46.151;35.956383;-83.92487;784.24;NaN;;5.08;12.226105;64.1;12 / 15;196035;2022-10-13 13:24:44:209
12.6398;1.6292;-1.7524;8.3664;-4.0827;-3.0832;5.1347;3.1842;0.2668;-1.1319;0.7344;0.0509;2818.0;-38.62;4.65;30.28;131.39;19.32;-107.69;5.0;978.83;44.595;35.956383;-83.92487;784.24;NaN;;5.08;12.226105;64.1;12 / 15;196534;2022-10-13 13:24:44:708
6.8172;-6.603;-3.9586;9.2893;0.7191;-3.0598;-2.2961;-6.5496;-0.7692;-0.2547;0.2343;2.3447;3514.0;-41.53;-0.24;28.69;62.13;-10.6;-105.44;5.0;978.81;44.216;35.95639;-83.924866;782.96;NaN;;4.93;12.226105;67.7;12 / 15;197035;2022-10-13 13:24:45:209
16.6989;-3.2022;-0.4693;7.5244;-4.9812;-3.8395;2.9286;5.0734;4.5736;0.3079;0.1643;-0.1597;2759.0;-37.35;6.98;30.84;148.86;30.53;-117.03;5.0;978.83;44.359;35.956394;-83.92485;784.0;NaN;;4.86;12.226105;67.9;12 / 15;197535;2022-10-13 13:24:45:709
4.4961;4.6899;-4.0926;6.7139;6.574;-2.8065;-0.4209;-8.0066;0.473;-0.2259;0.3631;-0.2527;3032.0;-39.47;-2.64;29.48;31.19;-36.17;-108.6;5.0;978.78;45.147;35.956394;-83.92485;784.0;NaN;;4.86;12.226105;67.9;12 / 15;198035;2022-10-13 13:24:46:209
6.2988;6.7765;3.687;6.034;6.0408;4.8238;-2.5;-0.6178;-0.8643;0.1605;1.4521;0.2201;3193.0;-43.82;-22.59;13.56;93.48;-38.02;-51.36;5.0;978.79;44.653;35.9564;-83.924835;784.82;NaN;;6.08;12.226105;61.3;12 / 15;198535;2022-10-13 13:24:46:709
3.4738;6.428;6.3885;4.6665;5.9198;6.273;-0.6105;-0.3436;-1.5388;-0.6031;1.1211;0.3634;4033.0;-48.6;-24.69;-7.46;85.38;-37.66;-39.86;5.0;978.75;45.245;35.9564;-83.924835;784.82;NaN;;6.08;12.226105;61.3;12 / 15;199035;2022-10-13 13:24:47:209
3.3015;2.7437;8.493;4.606;3.9361;7.7111;-1.3431;-1.4924;2.9172;-0.2437;1.4922;-0.1799;6379.0;-49.95;-14.64;-22.07;72.37;-23.6;-44.18;5.0;978.78;44.55;35.95641;-83.92481;784.41;NaN;;4.86;12.226105;61.0;12 / 15;199536;2022-10-13 13:24:47:710
1.2413;4.5464;10.0301;0.749;4.4859;8.6883;-0.4917;-0.5816;-1.5914;0.2065;-0.1381;-0.0828;11080.0;-37.41;-16.89;-37.44;84.58;-27.22;-4.93;5.0;978.77;46.136;35.95641;-83.92481;784.41;NaN;;4.86;12.226105;61.0;12 / 15;200035;2022-10-13 13:24:48:209
0.1496;5.8881;8.6366;0.3947;5.0398;8.4033;-0.4727;-0.2735;-0.5593;0.4647;0.5237;0.0712;10001.0;-34.41;-20.29;-39.39;86.18;-27.61;-6.29;5.0;978.78;43.93;35.956417;-83.924805;784.02;NaN;;4.72;12.226105;59.7;12 / 15;200537;2022-10-13 13:24:48:711
0.1364;5.1078;9.3443;0.2006;4.4954;8.7133;-0.5599;-0.4313;-1.2687;0.0941;-0.0514;0.0092;10458.0;-28.44;-25.07;-40.61;96.61;-27.28;-1.32;5.0;978.73;48.076;35.956417;-83.924805;784.02;NaN;;4.72;12.226105;59.7;12 / 15;201035;2022-10-13 13:24:49:209
0.7816;6.0093;7.7198;1.1202;4.5723;8.6029;-0.9646;0.2411;-1.8834;0.1418;-0.0503;0.2348;9547.0;-29.68;-24.54;-38.1;96.3;-27.79;-7.42;5.0;978.7;46.115;35.956425;-83.92479;784.83;NaN;;5.08;12.226105;57.7;12 / 15;201535;2022-10-13 13:24:49:709
0.6846;3.4989;0.559;0.5367;5.41;8.1618;-0.619;-1.795;-6.0694;0.8915;-3.7617;-1.0255;8928.0;-31.74;-23.42;-36.45;86.53;-33.48;-3.76;5.0;978.78;43.936;35.956425;-83.92479;784.83;NaN;;5.08;12.226105;57.7;12 / 15;202035;2022-10-13 13:24:50:209
13.5984;5.5866;-2.569;7.8361;3.6992;-4.5915;-0.2166;1.7447;0.9269;-0.7818;-1.6182;2.8146;1439.0;-33.43;-29.42;5.31;262.38;-40.48;-114.74;5.0;978.8;43.088;35.956432;-83.92478;781.91;NaN;;4.25;12.226105;75.5;12 / 15;202535;2022-10-13 13:24:50:709
5.2848;-0.4777;-5.5448;7.5981;5.0099;-3.6524;-2.2742;-4.6991;-1.4578;0.9972;0.9189;-2.287;1711.0;-32.89;-19.61;36.75;98.55;-20.31;-114.12;5.0;978.78;55.638;35.956432;-83.92478;781.91;NaN;;4.25;12.226105;75.5;12 / 15;203035;2022-10-13 13:24:51:209
8.1796;3.7074;-4.2556;7.8406;0.2613;-5.8844;0.0911;2.4621;1.9262;0.3591;-0.3245;0.6669;1025.0;-30.13;-15.62;38.85;138.17;-1.53;-126.89;5.0;978.81;47.083;35.956436;-83.92477;781.35;NaN;;4.46;12.226105;67.0;12 / 15;203535;2022-10-13 13:24:51:709
6.1397;0.7074;-4.7605;7.6652;4.2905;-4.3597;-0.5435;-4.2796;-0.1967;0.8476;0.3193;-2.3562;1336.0;-30.56;-11.21;38.85;97.26;-10.42;-117.45;5.0;978.79;53.692;35.956436;-83.92477;781.35;NaN;;4.46;12.226105;67.0;12 / 15;204034;2022-10-13 13:24:52:208
3.827;4.4471;-1.5694;6.3981;6.2275;-4.0562;-1.9787;-1.7621;-1.4091;-0.741;0.4664;0.5155;1358.0;-30.64;-20.36;36.38;54.57;-35.88;-120.8;5.0;978.81;51.473;35.95644;-83.92476;781.69;NaN;;4.82;12.226105;72.6;12 / 15;204535;2022-10-13 13:24:52:709
6.5527;3.76;-4.4088;7.3987;5.6668;-3.0523;-1.3994;-2.1302;0.247;0.0195;-0.4415;-0.092;1389.0;-35.66;-19.67;33.53;59.56;-35.3;-112.42;5.0;978.78;53.729;35.95644;-83.92476;781.69;NaN;;4.82;12.226105;72.6;12 / 15;205035;2022-10-13 13:24:53:209
6.3347;6.5707;-1.8182;7.7955;4.3601;-4.0486;-1.7415;1.6434;2.2963;-0.7945;0.9602;0.968;1301.0;-32.16;-20.92;35.42;77.5;-29.14;-116.62;5.0;978.81;50.924;35.956444;-83.92474;782.34;NaN;;4.93;12.226105;76.7;12 / 15;205535;2022-10-13 13:24:53:709
3.2142;0.5578;-3.1926;7.905;5.7284;-0.9308;-0.1953;-2.3786;0.1182;1.3388;-0.495;-0.4023;1571.0;-38.04;-22.12;31.03;76.54;-35.74;-96.72;5.0;978.79;52.977;35.956444;-83.92474;782.34;NaN;;4.93;12.226105;76.7;12 / 15;206035;2022-10-13 13:24:54:209
9.7068;2.0387;-1.008;8.3667;0.5375;-5.0872;1.8031;1.9732;2.4428;-1.2031;-1.1733;2.2922;1319.0;-33.73;-20.01;34.78;144.84;-3.14;-121.3;5.0;978.82;57.795;35.956444;-83.92474;782.34;NaN;;4.93;12.226105;76.7;12 / 15;206535;2022-10-13 13:24:54:709
6.4965;-3.6245;-4.9164;9.2464;1.2293;-3.027;5.0431;-3.3501;0.4324;3.7114;1.9885;-3.7126;1532.0;-30.77;-18.47;37.28;150.73;4.13;-125.71;5.0;978.8;50.816;35.956448;-83.92473;781.77;NaN;;4.9;12.226105;82.0;12 / 15;207035;2022-10-13 13:24:55:209
10.9014;-0.0443;-2.4;8.488;-1.0849;-4.7903;1.555;0.8085;-1.421;-2.7131;-0.6086;3.2557;1208.0;-32.74;-10.67;36.69;135.21;6.35;-119.44;5.0;978.84;45.553;35.956448;-83.92471;786.41;NaN;;5.08;12.226105;82.9;12 / 15;207535;2022-10-13 13:24:55:709
5.7793;-5.4371;-4.1824;8.3604;4.3108;-2.7732;-0.2592;-10.2971;-0.4513;3.6195;-0.4326;-3.4298;2019.0;-34.46;-7.52;34.88;109.16;3.89;-97.28;5.0;978.78;49.158;35.956448;-83.92471;786.41;NaN;;5.08;12.226105;82.9;12 / 15;208035;2022-10-13 13:24:56:209
11.3551;1.2305;-2.551;8.4408;-2.4598;-4.3443;2.7884;3.7825;0.7365;-1.3751;-0.1597;3.7969;916.0;-35.68;-5.83;32.68;98.72;-4.2;-111.89;5.0;978.82;46.022;35.95645;-83.9247;788.2;NaN;;4.93;12.226105;75.7;12 / 15;208535;2022-10-13 13:24:56:709
8.7015;-3.2596;-3.4965;8.5591;3.5176;-3.2463;-0.238;-6.9088;-0.2453;2.2223;-0.125;-3.1152;1583.0;-34.57;-1.35;33.21;91.75;-0.41;-104.99;5.0;978.81;50.778;35.95645;-83.9247;788.2;NaN;;4.93;12.226105;75.7;12 / 15;209035;2022-10-13 13:24:57:209
10.1641;2.2923;-3.3781;9.0065;0.0363;-3.8796;1.7823;0.4038;-0.2259;-0.8729;-0.4247;2.4047;1053.0;-36.11;-4.54;30.23;109.96;-0.21;-113.3;5.0;978.82;44.867;35.95646;-83.92469;788.19;NaN;;5.11;12.226105;70.8;12 / 15;209535;2022-10-13 13:24:57:709
6.1469;-2.5977;-4.2987;9.3454;0.4295;-2.941;3.4122;-2.0908;0.4495;2.2949;0.7434;-3.5518;1493.0;-31.63;2.16;32.14;79.82;-2.51;-107.47;5.0;978.82;49.691;35.95646;-83.92469;788.19;NaN;;5.11;12.226105;70.8;12 / 15;210035;2022-10-13 13:24:58:209
9.9464;2.3916;-4.1261;8.8818;-0.5261;-4.1239;-0.5662;1.3702;-0.246;-0.2515;-0.3782;2.3488;968.0;-35.87;-0.24;29.76;101.4;3.08;-114.91;5.0;978.82;47.582;35.956463;-83.924675;789.55;NaN;;5.36;12.226105;62.1;12 / 15;210534;2022-10-13 13:24:58:708
6.7155;-3.122;-3.7732;9.3685;-0.6468;-2.8254;4.4268;-1.4529;1.7961;3.1355;0.4632;-3.6214;1554.0;-32.59;5.55;32.14;81.13;3.78;-106.78;5.0;978.82;47.558;35.956463;-83.924675;789.55;NaN;;5.36;12.226105;62.1;12 / 15;211035;2022-10-13 13:24:59:209
0.1304;1.5993;2.3916;6.9388;6.324;-2.8339;0.0747;-0.5;0.8537;-2.1975;-0.5456;-0.6565;2388.0;-37.65;-10.37;29.38;29.44;-40.16;-112.22;5.0;978.81;46.027;35.95647;-83.92466;789.1;NaN;;5.83;12.226105;66.6;12 / 15;211535;2022-10-13 13:24:59:709
1.8553;-0.297;-0.6703;5.7657;7.8434;1.1868;-3.4998;-8.2454;-1.9265;2.5004;0.4838;-1.1866;2633.0;-41.44;-27.96;15.77;87.71;-39.17;-76.15;5.0;978.78;46.931;35.95647;-83.92466;789.1;NaN;;5.83;12.226105;66.6;12 / 15;212035;2022-10-13 13:25:00:209
2.6994;3.0739;7.2218;6.6865;6.9903;-1.6114;-4.1489;-3.3566;5.837;-2.1817;-1.7471;-1.9333;2538.0;-43.72;-24.66;18.75;26.84;-45.46;-103.55;5.0;978.8;46.283;35.95647;-83.92466;789.1;NaN;;5.83;12.226105;66.6;11 / 15;212535;2022-10-13 13:25:00:709
3.4439;-2.4383;-4.5811;7.5765;6.175;-0.7981;5.6485;-3.732;-2.0504;2.6363;0.7631;-1.3605;1982.0;-40.16;-25.88;23.1;97.11;-29.6;-89.85;5.0;978.75;48.744;35.95648;-83.92464;789.32;NaN;;4.86;12.226105;75.1;11 / 15;213034;2022-10-13 13:25:01:208
8.8977;5.5759;3.1543;9.1021;1.6196;-3.2709;1.6378;0.4171;5.5767;-3.5163;-0.6273;2.067;2085.0;-47.25;-8.89;24.64;47.91;-16.38;-110.54;5.0;978.83;51.198;35.956486;-83.92462;789.6;NaN;;4.9;12.793919;76.0;11 / 15;213535;2022-10-13 13:25:01:709
8.93;-3.02;-2.6049;9.3406;2.8406;-0.9243;-0.5899;-5.8477;-2.3788;3.2184;-0.6615;-1.6688;2832.0;-43.93;0.98;25.28;82.34;-3.49;-87.59;5.0;978.78;47.181;35.956486;-83.92462;789.6;NaN;;4.9;12.793919;76.0;11 / 15;214035;2022-10-13 13:25:02:209
11.3527;-0.4478;0.0981;9.2147;-2.0107;-2.6865;-0.5255;1.2566;2.0476;-1.1662;-0.4622;1.8026;1586.0;-48.19;-4.61;16.24;160.7;-0.04;-106.47;5.0;978.81;51.105;35.956493;-83.92461;788.36;NaN;;4.93;12.698169;63.5;11 / 15;214535;2022-10-13 13:25:02:709
7.8993;-2.6611;-2.0267;9.3779;2.0136;-2.0424;-1.5464;-4.7493;-0.0135;1.6866;0.1335;-2.6208;2466.0;-42.64;1.24;26.94;104.84;6.2;-103.86;5.0;978.81;50.213;35.956493;-83.92461;788.36;NaN;;4.93;12.698169;63.5;11 / 15;215035;2022-10-13 13:25:03:209
10.0624;2.2062;-4.78;8.7075;0.3118;-4.5002;-2.4571;0.4226;0.5555;-0.0637;-0.4097;2.0718;2006.0;-37.33;-5.34;33.79;104.65;-1.82;-117.33;5.0;978.8;51.386;35.956497;-83.92459;791.7;NaN;;5.04;12.460235;71.7;11 / 15;215534;2022-10-13 13:25:03:708
6.6568;-2.9112;-3.8749;8.2414;2.9341;-4.4318;-2.1191;-5.6358;0.0019;0.1763;-0.1095;-1.6601;2294.0;-32.18;2.36;36.23;87.74;1.68;-117.38;5.0;978.77;50.257;35.956497;-83.92459;791.7;NaN;;5.04;12.460235;71.7;11 / 15;216035;2022-10-13 13:25:04:209
9.7738;1.7716;-4.1991;7.8654;-2.4974;-5.298;1.3069;0.9443;-2.7205;-1.0633;0.1452;2.9114;1905.0;-27.56;3.38;34.89;65.61;-8.59;-120.23;5.0;978.8;54.078;35.956505;-83.92458;794.25;NaN;;5.08;12.226105;76.4;11 / 15;216535;2022-10-13 13:25:04:709
5.1915;-2.7353;-4.8326;7.5044;2.4071;-5.8361;-1.3769;-5.125;1.1066;0.0529;-0.3889;-2.3053;2446.0;-18.08;6.06;36.58;85.74;7.12;-123.2;5.0;978.81;49.075;35.956505;-83.92458;794.25;NaN;;5.08;12.226105;76.4;11 / 15;217034;2022-10-13 13:25:05:208
8.4165;0.754;-4.9546;7.5065;-2.6501;-5.7272;0.5032;3.5388;0.5159;-0.1106;0.2207;2.0869;2131.0;-16.78;3.58;36.83;90.36;6.51;-127.79;5.0;978.78;50.462;35.956512;-83.92457;795.36;NaN;;5.11;12.226105;69.2;11 / 15;217535;2022-10-13 13:25:05:709
6.5384;-2.3246;-3.1376;8.7;1.8601;-4.1256;-2.0092;-4.0064;0.9469;0.6527;0.1922;-2.6016;2677.0;-20.51;5.91;37.29;80.52;3.39;-117.27;5.0;978.79;51.086;35.956512;-83.92457;795.36;NaN;;5.11;12.226105;69.2;11 / 15;218035;2022-10-13 13:25:06:209
9.3873;0.0742;-3.1412;8.5951;-0.9606;-4.6229;-0.7431;1.6081;-0.6711;0.0318;-0.4127;1.6417;2245.0;-29.85;-0.24;34.03;71.09;-7.48;-117.77;5.0;978.79;49.456;35.95652;-83.92455;794.25;NaN;;5.22;12.226105;64.7;11 / 15;218535;2022-10-13 13:25:06:709
5.8726;-2.5666;-2.7784;9.2008;0.4587;-3.3624;-0.7502;-2.8603;-0.0815;0.4004;0.5914;-2.8696;2346.0;-20.89;2.12;35.59;82.51;-2.68;-110.07;5.0;978.78;63.794;35.95652;-83.92455;794.25;NaN;;5.22;12.226105;64.7;11 / 15;219035;2022-10-13 13:25:07:209
5.8271;0.9996;-4.27;8.2922;-0.2424;-5.2298;2.1223;0.0911;-1.9841;0.5017;-0.3233;1.0974;2353.0;-24.3;3.79;34.26;79.18;1.42;-122.24;5.0;978.79;49.951;35.95652;-83.92455;794.25;NaN;;5.22;12.226105;64.7;11 / 15;219535;2022-10-13 13:25:07:709
6.0703;-1.9645;-3.9048;8.7202;1.5592;-4.2068;-0.7172;-3.7206;0.4674;0.7137;0.4694;-2.9889;2804.0;-24.47;8.29;36.13;83.89;8.71;-120.66;5.0;978.82;48.676;35.956524;-83.924545;796.46;NaN;;5.04;12.226105;70.8;11 / 15;220034;2022-10-13 13:25:08:208
6.6185;0.0718;-3.8557;8.139;-1.8394;-5.1521;-1.4816;1.9402;1.1526;-0.0259;-0.0925;2.1333;2342.0;-33.43;-1.59;35.79;89.47;-2.6;-121.17;5.0;978.81;56.453;35.956524;-83.924545;796.46;NaN;;5.04;12.226105;70.8;11 / 15;220535;2022-10-13 13:25:08:709
7.4408;-2.7867;-2.8932;8.968;1.5755;-3.6419;-1.1554;-4.3582;0.7583;1.1981;0.3234;-2.7274;2763.0;-28.11;8.4;36.45;88.06;10.08;-116.73;5.0;978.8;58.505;35.956528;-83.92453;794.76;NaN;;5.18;12.226105;63.9;11 / 15;221035;2022-10-13 13:25:09:209
8.0907;-0.6547;-3.1304;8.6815;-0.1079;-4.5595;-0.8518;-1.6158;-2.3206;-1.0681;0.3137;2.0626;2466.0;-37.24;0.6;32.72;87.76;0.63;-117.71;5.0;978.81;50.592;35.956535;-83.924515;795.29;NaN;;5.94;12.226105;58.8;11 / 15;221535;2022-10-13 13:25:09:709
7.4731;-4.2963;-3.0547;9.2237;0.1405;-3.3276;1.6968;-3.9736;0.6616;1.7018;0.1167;-3.6847;2680.0;-29.47;11.66;33.9;111.21;22.32;-122.39;5.0;978.8;52.424;35.956535;-83.924515;795.29;NaN;;5.94;12.226105;58.8;11 / 15;222035;2022-10-13 13:25:10:209
7.995;0.2489;-3.705;8.8064;0.6364;-4.2676;1.8354;-1.731;-2.5723;-0.2223;-0.236;2.213;2323.0;-38.38;-0.45;28.76;72.3;-3.72;-115.85;5.0;978.8;48.483;35.956547;-83.9245;795.37;NaN;;5.4;12.226105;51.1;12 / 15;222535;2022-10-13 13:25:10:709
7.4755;-2.5487;-2.2863;9.0462;1.1235;-3.6158;2.9553;-3.2515;-0.1989;0.41;0.2151;-2.6107;2186.0;-31.67;10.65;29.06;78.66;11.46;-114.79;5.0;978.8;48.872;35.956547;-83.9245;795.37;NaN;;5.4;12.226105;51.1;12 / 15;223034;2022-10-13 13:25:11:208
7.302;-0.5052;-3.2417;8.7062;-1.5327;-4.2454;0.2622;1.9472;-1.5013;0.6489;0.0389;2.3106;2305.0;-37.26;-1.05;30.98;125.5;8.99;-116.0;5.0;978.77;50.413;35.95656;-83.92448;795.97;NaN;;5.26;12.226105;40.3;12 / 15;223535;2022-10-13 13:25:11:709
8.3435;-4.0615;-1.7046;9.4433;-0.3632;-2.6197;6.2136;-4.1171;-0.4982;2.2184;0.446;-3.7978;2524.0;-32.34;5.93;32.94;125.66;21.18;-117.86;5.0;978.78;50.999;35.95656;-83.92448;795.97;NaN;;5.26;12.226105;40.3;12 / 15;224035;2022-10-13 13:25:12:209
9.3491;0.1196;-5.2789;8.6353;2.6378;-3.8267;-1.677;-3.696;-1.2993;-0.7194;0.0817;2.3667;2607.0;-38.25;-6.51;30.3;63.99;-15.6;-113.9;5.0;978.78;45.665;35.95657;-83.92447;797.06;NaN;;5.26;12.226105;53.2;12 / 15;224535;2022-10-13 13:25:12:709
9.8901;-3.0619;-3.3577;8.6718;-2.6469;-3.7368;5.0781;1.3152;2.3461;2.0354;0.405;-3.0688;2439.0;-32.7;-0.06;33.79;155.57;25.9;-124.63;5.0;978.8;50.362;35.95657;-83.92447;797.06;NaN;;5.26;12.226105;53.2;12 / 15;225035;2022-10-13 13:25:13:209
9.1777;-1.2437;-5.8618;8.9875;0.2598;-3.9151;0.5122;-1.5216;-1.5574;0.0028;-0.1846;1.6717;2756.0;-35.76;-6.62;34.5;76.69;-14.36;-111.03;5.0;978.8;48.986;35.956577;-83.92445;796.63;NaN;;4.9;12.226105;50.0;12 / 15;225535;2022-10-13 13:25:13:709
12.4205;-2.6707;-3.9036;8.7595;-2.5563;-3.5925;6.5131;5.4918;-0.7467;-0.0803;0.7986;-2.184;2138.0;-32.94;2.94;38.1;141.45;28.5;-120.44;5.0;978.8;45.654;35.956577;-83.92445;796.63;NaN;;4.9;12.226105;50.0;12 / 15;226035;2022-10-13 13:25:14:209
10.2275;-2.4299;-6.0272;8.8572;0.4193;-4.1885;0.6138;-2.2592;-0.5615;0.4937;-0.3913;1.8135;2761.0;-35.59;-1.44;35.21;55.93;-14.49;-115.42;5.0;978.79;45.194;35.956585;-83.92444;795.22;NaN;;5.44;12.226105;66.2;12 / 15;226535;2022-10-13 13:25:14:709
15.1367;-3.4534;-3.754;8.7119;-2.0531;-4.0073;7.1342;3.9483;-0.7116;-0.806;0.7339;-1.7747;2067.0;-29.25;6.32;35.63;128.58;25.42;-120.29;5.0;978.78;49.334;35.956585;-83.92444;795.22;NaN;;5.44;12.226105;66.2;12 / 15;227035;2022-10-13 13:25:15:209
11.2044;-1.8362;-6.5551;8.5026;1.473;-4.6589;0.2504;-5.5241;-1.7438;-1.1215;0.055;3.7815;2661.0;-30.22;-4.14;36.09;81.4;-8.64;-118.72;5.0;978.79;45.228;35.956593;-83.92442;793.37;NaN;;5.11;12.226105;63.8;12 / 15;227535;2022-10-13 13:25:15:709
16.3361;-2.904;-3.2668;7.5883;-3.23;-5.3061;7.3839;4.0063;2.0214;-1.0578;1.3981;-0.0835;2709.0;-22.91;-1.22;41.31;138.77;23.29;-130.67;5.0;978.8;52.766;35.956593;-83.92442;793.37;NaN;;5.11;12.226105;63.8;12 / 15;228035;2022-10-13 13:25:16:209
6.859;5.2968;2.0973;7.6422;5.8013;-2.0277;3.1757;-5.0709;-1.6689;-1.8496;2.916;-0.3557;2939.0;-30.36;-9.58;34.88;61.14;-36.27;-104.86;5.0;978.75;46.224;35.956596;-83.92441;796.37;NaN;;5.4;12.226105;63.6;12 / 15;228535;2022-10-13 13:25:16:709
6.233;8.9396;9.9165;1.6581;5.2474;8.117;-1.3179;0.1419;0.223;1.0123;-0.1446;-0.0061;6357.0;-36.47;-30.84;-11.36;116.61;-32.35;-11.55;5.0;978.76;48.689;35.956596;-83.92441;796.37;NaN;;5.4;12.226105;63.6;12 / 15;229034;2022-10-13 13:25:17:208
7.2075;8.6426;12.2483;1.1065;5.8262;7.8104;1.1125;-0.3381;-1.8639;-0.679;-0.5452;0.1295;6936.0;-33.26;-31.8;-18.41;112.36;-36.45;-8.06;5.0;978.72;48.497;35.9566;-83.92439;793.65;NaN;;5.22;12.226105;77.2;12 / 15;229537;2022-10-13 13:25:17:711
2.7437;5.0264;12.277;2.3915;5.1865;7.9719;-0.956;-0.3892;3.3094;-0.3199;-0.5518;-0.3296;5232.0;-31.13;-30.41;-21.37;110.71;-33.63;-15.77;5.0;978.75;45.644;35.9566;-83.92439;793.65;NaN;;5.22;12.226105;77.2;12 / 15;230034;2022-10-13 13:25:18:208
8.1302;4.2855;8.6342;3.0125;5.0216;7.8663;-1.5264;-0.3112;-4.7507;-1.9681;-1.7033;1.2822;5512.0;-27.94;-31.24;-17.72;120.62;-32.07;-16.13;5.0;978.76;45.149;35.956604;-83.924385;794.97;NaN;;5.11;12.226105;62.7;12 / 15;230535;2022-10-13 13:25:18:709
9.58;0.504;8.7864;7.4013;1.7528;6.1902;-2.0803;-1.4053;2.8558;0.03;-0.4154;0.5638;6097.0;-33.88;-26.21;-15.88;140.62;-14.69;-44.02;5.0;978.74;43.339;35.956604;-83.924385;794.97;NaN;;5.11;12.226105;62.7;12 / 15;231034;2022-10-13 13:25:19:208
7.4743;3.2967;5.2394;6.8013;2.5405;6.5923;-1.2271;-1.0124;-2.8811;0.5506;0.3026;0.8269;5074.0;-40.33;-26.23;-12.02;128.9;-15.01;-45.89;5.0;978.75;43.88;35.95661;-83.92437;790.74;NaN;;4.82;12.226105;52.7;12 / 15;231534;2022-10-13 13:25:19:708
9.1454;1.2293;10.139;8.1591;1.9282;5.0875;-4.2805;-0.7797;-1.6025;-1.8231;-1.098;0.8684;4895.0;-44.16;-25.44;-8.83;136.06;-11.34;-58.06;5.0;978.74;41.821;35.95661;-83.92437;790.74;NaN;;4.82;12.226105;52.7;12 / 15;232035;2022-10-13 13:25:20:209
6.7956;1.7512;2.9255;7.1924;3.7505;5.5113;-0.0289;-2.201;-2.3803;0.8456;0.8191;-0.7441;4371.0;-45.09;-26.66;-5.06;113.39;-22.49;-52.54;5.0;978.74;45.917;35.95662;-83.92436;787.96;NaN;;5.04;12.226105;60.5;12 / 15;232535;2022-10-13 13:25:20:709
6.8542;1.8661;6.7454;8.5644;3.1228;3.6153;-2.5417;-0.5187;-0.4294;-1.5183;-1.0305;-0.0511;4769.0;-42.15;-31.65;-3.32;133.36;-20.72;-62.14;5.0;978.73;43.235;35.95662;-83.92436;787.96;NaN;;5.04;12.226105;60.5;12 / 15;233034;2022-10-13 13:25:21:208
4.914;3.2656;1.0786;6.8031;5.2994;4.6696;-0.0697;-3.1235;-3.0503;1.7215;0.8085;-1.0392;3778.0;-41.7;-32.12;-0.54;109.02;-32.71;-55.53;5.0;978.71;46.748;35.956627;-83.92435;786.85;NaN;;4.97;12.226105;59.3;12 / 15;233536;2022-10-13 13:25:21:710
5.9674;4.981;3.9802;7.7418;5.3243;2.8082;0.327;2.1004;0.1444;-0.4795;-0.4826;-0.1734;3756.0;-38.19;-34.91;6.43;120.85;-32.88;-70.06;5.0;978.73;45.798;35.956627;-83.92435;786.85;NaN;;4.97;12.226105;59.3;12 / 15;234035;2022-10-13 13:25:22:209
5.1353;3.9275;1.0164;7.1083;5.5751;3.816;4.1167;-1.422;2.0373;1.7101;1.7547;-0.8543;3044.0;-40.07;-33.19;5.04;109.93;-34.65;-61.77;5.0;978.71;42.919;35.95663;-83.92434;785.6;NaN;;5.08;12.226105;59.4;12 / 15;234535;2022-10-13 13:25:22:709
3.8916;7.0086;1.9777;6.2759;7.1952;2.2389;-0.3855;0.8514;-0.5759;-0.2924;-0.548;0.3562;1835.0;-38.19;-34.95;6.84;87.77;-47.2;-70.37;5.0;978.75;43.315;35.95663;-83.92434;785.6;NaN;;5.08;12.226105;59.4;12 / 15;235036;2022-10-13 13:25:23:210
7.0002;5.7218;1.8709;5.799;7.5205;2.4463;1.869;-1.3197;0.0634;0.9534;1.1312;-0.7228;1861.0;-42.62;-29.03;10.33;81.49;-42.33;-70.37;5.0;978.73;44.7;35.95663;-83.92434;784.42;NaN;;4.82;12.226105;58.5;12 / 15;235535;2022-10-13 13:25:23:709
5.9375;8.2023;4.3178;4.9284;7.2098;4.4609;1.3776;1.0851;0.2632;0.4063;0.7139;-0.4629;2151.0;-42.56;-30.96;3.38;78.08;-51.15;-53.15;5.0;978.71;43.652;35.95664;-83.92432;784.42;NaN;;4.82;12.226105;58.5;12 / 15;236035;2022-10-13 13:25:24:209
0.5495;6.4678;7.6636;1.1338;7.7875;5.8515;-0.4062;-1.1852;2.4103;0.2696;0.0241;0.7855;7469.0;-36.19;-30.67;-19.26;87.46;-52.57;-10.97;5.0;978.71;43.1;35.95665;-83.92431;784.44;NaN;;4.03;12.226105;58.2;12 / 15;236535;2022-10-13 13:25:24:709
8.1999;9.385;5.892;3.7916;8.402;3.3466;3.3258;2.1004;1.8098;-0.6502;-0.6044;-0.8944;3693.0;-36.94;-30.43;-19.69;31.57;-63.11;-42.89;5.0;978.69;42.51;35.95665;-83.92431;784.44;NaN;;4.03;12.226105;58.2;12 / 15;237035;2022-10-13 13:25:25:209
-0.1316;8.3339;8.7147;-0.4065;7.8237;5.8987;-3.4078;-0.0805;0.8105;0.4242;-0.1871;0.8368;7340.0;-33.81;-33.96;-16.95;104.13;-52.92;3.94;5.0;978.7;43.737;35.956654;-83.9243;784.57;NaN;;4.75;12.226105;64.5;12 / 15;237535;2022-10-13 13:25:25:709
2.8765;9.3395;5.2382;1.4646;8.7749;4.1264;1.1565;2.993;1.1496;-0.2736;-0.3906;0.008;6852.0;-32.23;-34.69;-18.06;75.75;-68.49;-7.16;5.0;978.71;44.767;35.956654;-83.9243;784.57;NaN;;4.75;12.226105;64.5;12 / 15;238036;2022-10-13 13:25:26:210
5.2298;11.4796;8.365;1.403;9.068;3.4603;2.727;2.1392;4.1929;0.4345;1.0025;0.083;5479.0;-34.03;-34.84;-16.24;88.3;-64.21;-3.42;5.0;978.71;46.047;35.956657;-83.92429;785.12;NaN;;4.64;12.226105;65.8;12 / 15;238534;2022-10-13 13:25:26:708
2.059;7.6505;6.6951;1.2635;9.1977;3.1584;0.3319;0.2982;-0.6574;-1.46;-0.9089;0.0643;4948.0;-34.86;-34.63;-14.83;59.14;-71.94;-23.65;5.0;978.69;45.431;35.956657;-83.92429;785.12;NaN;;4.64;12.226105;65.8;12 / 15;239034;2022-10-13 13:25:27:208
1.7608;10.2132;7.9364;0.5201;8.704;4.4878;-2.2631;2.7705;-0.3096;-0.1631;-0.3087;0.8356;7377.0;-32.94;-34.43;-18.17;83.35;-62.57;-6.61;5.0;978.7;45.665;35.95666;-83.92428;786.64;NaN;;4.57;12.226105;64.5;12 / 15;239535;2022-10-13 13:25:27:709
2.843;10.6274;2.7329;1.9697;8.9808;3.4111;0.5579;-0.4033;-0.955;-0.5548;-0.18;-0.1607;5918.0;-34.67;-31.67;-20.46;46.85;-66.32;-30.0;5.0;978.68;43.634;35.95666;-83.92428;786.64;NaN;;4.57;12.226105;64.5;12 / 15;240034;2022-10-13 13:25:28:208
5.0982;9.5249;8.1425;2.1293;8.2921;4.783;-1.4547;2.2417;0.3475;0.4743;-0.625;1.3358;5174.0;-37.28;-30.39;-18.84;65.2;-61.26;-21.09;5.0;978.7;44.522;35.956665;-83.92427;789.71;NaN;;4.5;12.226105;62.8;12 / 15;240535;2022-10-13 13:25:28:709
4.5667;10.5604;3.6906;3.5815;8.3547;3.6799;-0.7063;-1.5731;-0.9699;-0.6951;-1.3366;0.0257;3736.0;-40.76;-28.78;-16.05;44.23;-62.26;-41.01;5.0;978.66;49.533;35.956665;-83.92427;789.71;NaN;;4.5;12.226105;62.8;12 / 15;241035;2022-10-13 13:25:29:209
3.2967;8.4069;6.1229;3.5708;7.8477;4.6727;-1.6369;-0.0082;-2.0249;-0.0797;0.0255;0.1182;2516.0;-43.72;-29.36;-8.62;65.03;-53.98;-41.02;5.0;978.7;44.329;35.956673;-83.92426;792.47;NaN;;4.68;12.226105;61.1;12 / 15;241536;2022-10-13 13:25:29:710
6.2964;9.5979;5.0336;3.9827;8.3316;3.3003;-2.0948;-1.1478;-1.445;-0.4751;-0.383;0.4996;1731.0;-44.7;-29.19;-4.59;48.82;-58.74;-55.09;5.0;978.68;43.818;35.956673;-83.92426;792.47;NaN;;4.68;12.226105;61.1;12 / 15;242034;2022-10-13 13:25:30:208
4.1417;8.1473;6.3718;4.7954;7.3291;4.4112;-2.1223;-0.2408;-2.376;-0.4909;0.1704;-0.0214;1912.0;-46.69;-26.23;-5.57;67.03;-48.36;-47.39;5.0;978.72;43.797;35.956676;-83.92425;791.54;NaN;;4.39;12.226105;56.9;12 / 15;242535;2022-10-13 13:25:30:709
2.4861;6.2964;0.7588;5.0999;8.0934;2.1583;-1.3597;-2.4684;-0.19;-0.0757;-0.7985;0.7274;1325.0;-47.74;-24.71;-5.83;49.48;-50.94;-57.01;5.0;978.69;45.619;35.956676;-83.92425;791.54;NaN;;4.39;12.226105;56.9;12 / 15;243035;2022-10-13 13:25:31:209
6.5204;2.953;9.0305;6.4889;2.7916;6.8023;-1.9725;0.6467;-1.6727;-0.8294;-0.3784;-0.2696;4006.0;-50.01;-17.76;-5.98;100.94;-16.54;-43.65;5.0;978.69;44.236;35.956684;-83.92424;792.61;NaN;;4.5;12.226105;53.0;12 / 15;243535;2022-10-13 13:25:31:709
3.3553;0.6296;0.0263;6.8033;3.2598;6.2657;-3.1622;-1.7099;-2.7544;1.9669;-3.991;-0.1288;3931.0;-50.19;-16.5;-8.34;92.18;-19.42;-47.36;5.0;978.66;44.679;35.956684;-83.92424;792.61;NaN;;4.5;12.226105;53.0;12 / 15;244035;2022-10-13 13:25:32:209
11.8735;1.3717;-1.5921;8.3692;-0.4528;-5.0914;0.4835;0.434;3.3789;-0.0547;-0.0816;0.2679;1777.0;-36.51;-15.96;29.06;140.29;0.41;-111.33;5.0;978.72;43.379;35.956684;-83.92424;792.61;NaN;;4.5;12.226105;53.0;12 / 15;244535;2022-10-13 13:25:32:709
