sep=;
ACCELEROMETER X (m/s²);ACCELEROMETER Y (m/s²);ACCELEROMETER Z (m/s²);GRAVITY X (m/s²);GRAVITY Y (m/s²);GRAVITY Z (m/s²);LINEAR ACCELERATION X (m/s²);LINEAR ACCELERATION Y (m/s²);LINEAR ACCELERATION Z (m/s²);GYROSCOPE X (rad/s);GYROSCOPE Y (rad/s);GYROSCOPE Z (rad/s);LIGHT (lux);MAGNETIC FIELD X (μT);MAGNETIC FIELD Y (μT);MAGNETIC FIELD Z (μT);ORIENTATION Z (azimuth °);ORIENTATION X (pitch °);ORIENTATION Y (roll °);PROXIMITY (i);ATMOSPHERIC PRESSURE (hPa);SOUND LEVEL (dB);LOCATION Latitude : ;LOCATION Longitude : ;LOCATION Altitude ( m);LOCATION Altitude-google ( m);LOCATION Altitude-atmospheric pressure ( m);LOCATION Speed ( Kmh);LOCATION Accuracy ( m);LOCATION ORIENTATION (°);Satellites in range;Time since start in ms ;YYYY-MO-DD HH-MI-SS_SSS
-2.0853;1.6017;11.2714;-1.4389;2.7042;9.316;-0.6348;0.2271;1.7635;0.429;-0.4429;-0.1581;17302.0;5.51;-33.58;-22.39;185.56;-16.01;8.78;5.0;995.41;60.957;35.95848;-83.92474;773.35;NaN;;3.74;18.287876;158.9;12 / 20;20;2022-10-11 12:50:18:478
-1.0845;-1.7237;9.6518;-1.912;-0.6311;9.5977;-1.177;-0.1327;-0.945;-1.8836;0.6556;1.237;56320.0;4.69;-29.36;-26.17;176.19;-4.12;14.78;5.0;995.4;61.454;35.95848;-83.924736;769.56;NaN;;4.72;16.121725;158.9;14 / 20;521;2022-10-11 12:50:18:979
0.51;3.8545;10.9723;-0.8519;3.9122;8.952;-0.3525;0.6561;-1.233;-0.2028;-0.1133;0.0467;29882.0;-0.92;-30.43;-25.69;168.64;-23.51;5.44;5.0;995.42;61.83;35.95848;-83.924736;769.56;NaN;;4.72;16.121725;158.9;14 / 20;1020;2022-10-11 12:50:19:478
0.8584;1.701;12.6565;0.6831;2.0618;9.5631;-0.854;1.3319;0.9242;-0.5706;0.1323;-0.0577;28056.0;-5.02;-33.37;-22.57;170.0;-15.0;-1.08;5.0;995.44;59.272;35.958473;-83.924736;769.86;NaN;;3.67;14.782836;155.6;14 / 20;1521;2022-10-11 12:50:19:979
-0.1687;3.5551;11.0225;-1.7091;1.6714;9.5108;1.3983;1.8403;0.191;0.263;0.7386;0.0525;52418.0;-7.52;-28.14;-27.07;149.66;-14.63;8.93;5.0;995.44;60.5;35.958473;-83.924736;769.86;NaN;;3.67;14.782836;155.6;14 / 20;2021;2022-10-11 12:50:20:479
-4.8793;-0.262;13.8631;-2.9198;1.5996;9.2242;-1.502;0.0804;1.6618;-0.1603;-0.2953;0.1521;65053.0;0.02;-28.39;-27.92;160.04;-9.39;17.56;5.0;995.42;62.692;35.958466;-83.924736;768.72;NaN;;4.54;13.946086;142.7;14 / 20;2521;2022-10-11 12:50:20:979
0.5339;4.386;10.4695;-1.7393;4.4209;8.5791;2.0081;0.0375;-0.4924;0.2953;-0.5546;0.3173;25111.0;0.47;-32.78;-21.79;161.71;-29.87;15.75;5.0;995.46;61.17;35.958466;-83.924736;768.72;NaN;;4.54;13.946086;142.7;14 / 20;3020;2022-10-11 12:50:21:478
-5.3291;1.1958;15.588;-2.5682;1.5396;9.3383;-2.7999;1.6343;0.2935;0.0382;0.1674;0.8301;34423.0;1.78;-33.3;-20.44;174.25;-14.13;13.52;5.0;995.44;56.758;35.95845;-83.924736;772.02;NaN;;4.0;14.662749;158.1;14 / 20;3520;2022-10-11 12:50:21:978
-1.1037;3.8438;9.6302;-1.9874;4.2164;8.628;0.3226;-0.0391;-1.5488;-0.7793;-1.3949;-0.265;14775.0;4.39;-33.23;-19.82;172.85;-33.19;17.14;5.0;995.44;58.791;35.95845;-83.924736;772.02;NaN;;4.0;14.662749;158.1;14 / 20;4020;2022-10-11 12:50:22:478
-6.2019;-0.7612;11.4652;-3.036;0.5998;9.3055;-1.5615;2.1066;0.0359;-0.0091;-0.1958;0.3861;50206.0;4.01;-29.81;-23.17;173.34;-3.51;18.07;5.0;995.42;63.829;35.95844;-83.92474;777.61;NaN;;3.82;14.647719;155.2;14 / 20;4520;2022-10-11 12:50:22:978
0.0167;6.1205;8.9276;-2.3551;3.8465;8.708;0.8755;-0.8744;-1.3396;-2.0032;0.3812;-1.6453;25973.0;6.09;-30.45;-23.23;179.33;-23.09;15.13;5.0;995.43;58.065;35.95844;-83.92474;777.61;NaN;;3.82;14.647719;155.2;14 / 20;5021;2022-10-11 12:50:23:479
-2.1296;2.831;12.3045;-1.7361;3.4294;9.0219;-1.1449;0.7425;0.1775;0.2156;0.3285;0.2692;15670.0;2.74;-32.68;-21.37;176.98;-21.9;11.37;5.0;995.43;55.513;35.958424;-83.92474;783.26;NaN;;4.39;14.463209;155.3;14 / 20;5520;2022-10-11 12:50:23:978
-2.1153;2.6886;11.3898;-1.2329;3.3331;9.1401;0.8289;1.0898;-1.2087;-0.6405;1.9926;0.191;20934.0;-2.08;-31.74;-22.93;167.3;-19.87;7.68;5.0;995.45;60.401;35.958424;-83.92474;783.26;NaN;;4.39;14.463209;155.3;14 / 20;6020;2022-10-11 12:50:24:478
-6.1409;1.5502;10.9146;-4.3295;1.2843;8.7049;-2.0477;1.2293;0.6739;-0.7374;1.6656;-0.2457;59254.004;2.81;-26.89;-27.82;162.34;-10.69;20.15;5.0;995.43;62.639;35.958412;-83.92474;788.49;NaN;;4.28;14.161742;154.1;13 / 20;6522;2022-10-11 12:50:24:980
0.8548;1.5048;10.582;0.1189;1.5423;9.6839;-1.4112;-1.292;-2.396;-0.004;-0.2004;-0.3248;75278.0;-0.08;-24.26;-29.94;181.11;-9.05;-0.7;5.0;995.39;59.374;35.958412;-83.92474;788.49;NaN;;4.28;14.161742;154.1;13 / 20;7021;2022-10-11 12:50:25:479
-0.9505;2.4538;11.0548;-0.3607;2.0936;9.5738;0.5851;1.1154;-0.4346;-0.4624;0.5732;0.1869;36603.0;-5.38;-28.5;-26.91;167.54;-14.74;-0.69;5.0;995.43;59.425;35.9584;-83.92474;787.48;NaN;;4.32;14.359073;151.9;13 / 20;7522;2022-10-11 12:50:25:980
0.0933;3.5731;9.7283;0.4629;2.8227;9.3802;-0.5018;0.5698;0.2499;0.3806;-0.1871;0.1421;36159.0;-3.68;-30.34;-25.69;165.54;-16.15;3.51;5.0;995.41;57.343;35.9584;-83.92474;787.48;NaN;;4.32;14.359073;151.9;13 / 20;8020;2022-10-11 12:50:26:478
-0.5578;4.9905;9.3562;0.4362;3.8197;9.0216;0.0075;0.1098;-1.5609;-0.1541;0.5081;0.3573;14119.0;-9.37;-33.77;-20.64;160.86;-22.92;-2.77;5.0;995.39;58.391;35.958385;-83.92474;790.98;NaN;;4.36;13.751188;149.6;13 / 20;8521;2022-10-11 12:50:26:979
-0.5782;2.7508;9.9488;-1.1476;1.7493;9.5809;-0.5511;1.4274;0.2425;0.0288;0.3376;0.9017;51177.0;-7.31;-28.39;-26.14;156.5;-10.28;6.83;5.0;995.41;57.506;35.958385;-83.92474;790.98;NaN;;4.36;13.751188;149.6;13 / 20;9021;2022-10-11 12:50:27:479
-6.524;2.6779;7.1871;-5.7837;1.7736;7.7184;1.297;-0.1925;-1.7633;0.5624;0.5121;-0.4085;68905.0;0.64;-24.39;-29.25;142.68;-8.18;34.13;5.0;995.39;57.598;35.95837;-83.92475;793.64;NaN;;4.14;12.921526;150.0;13 / 20;9520;2022-10-11 12:50:27:978
-5.5759;0.9398;9.7798;-4.6082;0.9043;8.6091;1.005;0.5766;-0.5261;-1.6998;1.1258;0.8759;29094.0;19.86;-25.18;-23.53;200.94;-6.5;24.59;5.0;995.39;59.112;35.95837;-83.92475;793.64;NaN;;4.14;12.921526;150.0;13 / 20;10020;2022-10-11 12:50:28:478
-2.2433;-0.9147;10.6609;-3.0263;-1.3343;9.2321;-0.9758;1.1321;-1.827;2.1293;-0.5543;-0.563;60439.0;18.86;-22.12;-27.13;200.29;7.82;18.15;5.0;995.41;58.876;35.95836;-83.92475;792.23;NaN;;4.25;12.502144;154.5;13 / 20;10520;2022-10-11 12:50:28:978
2.7532;4.6923;7.1704;0.2584;3.114;9.2955;0.868;-0.3128;-0.0688;-0.0146;-0.6877;0.0066;32443.002;-0.41;-30.3;-25.67;182.05;-18.51;-1.59;5.0;995.38;60.498;35.95836;-83.92475;792.23;NaN;;4.25;12.502144;154.5;13 / 20;11020;2022-10-11 12:50:29:478
-1.3944;4.3872;9.4196;0.232;3.5621;9.1339;-0.0689;0.0171;0.6036;0.2632;0.1171;-0.3334;28934.0;-5.19;-31.57;-25.03;169.41;-17.04;-1.5;5.0;995.36;58.237;35.958344;-83.92476;793.63;NaN;;4.25;12.555636;157.7;13 / 20;11520;2022-10-11 12:50:29:978
0.6727;4.835;10.8404;-0.8297;3.7843;9.009;0.0373;1.1905;-2.2352;-0.4704;-0.6414;-0.3913;16502.0;-0.64;-35.29;-19.67;173.45;-22.7;5.26;5.0;995.38;67.093;35.958344;-83.92476;793.63;NaN;;4.25;12.555636;157.7;13 / 20;12020;2022-10-11 12:50:30:478
-2.6073;3.1974;11.1637;-1.0387;3.6988;9.0228;-1.3707;0.1519;-0.3371;0.0018;-0.143;-0.3716;17592.0;2.7;-34.95;-20.92;182.52;-22.42;5.25;5.0;995.36;55.471;35.958332;-83.92476;796.19;NaN;;4.9;12.226105;155.5;14 / 20;12520;2022-10-11 12:50:30:978
0.6811;5.1329;10.5604;-0.4494;4.5023;8.7005;-0.8093;-0.4935;-2.5083;-0.3602;-0.542;-0.1;15070.0;3.02;-37.11;-17.66;184.81;-27.33;2.96;5.0;995.35;54.648;35.958332;-83.92476;796.19;NaN;;4.9;12.226105;155.5;14 / 20;13020;2022-10-11 12:50:31:478
-1.5514;4.3657;11.6809;-0.7239;3.8983;8.9694;-0.1725;0.9027;0.3845;-0.036;0.5268;-0.3531;15711.0;3.49;-36.56;-17.96;185.23;-25.01;2.0;5.0;995.34;58.814;35.95832;-83.92476;796.11;NaN;;4.36;12.677778;152.2;13 / 20;13520;2022-10-11 12:50:31:978
0.2357;2.7377;13.3914;-0.6736;4.5519;8.6601;0.9081;2.6235;-0.4224;-0.1904;-0.6717;0.0287;11434.0;9.53;-37.22;-15.38;198.98;-34.43;9.84;5.0;995.32;57.085;35.95832;-83.92476;796.11;NaN;;4.36;12.677778;152.2;13 / 20;14020;2022-10-11 12:50:32:478
-1.343;3.1579;11.3013;-0.7988;3.8902;8.9665;-1.8545;0.8382;0.3395;-0.9035;-0.1017;0.5603;13546.0;10.95;-36.58;-16.89;199.38;-23.37;5.09;5.0;995.33;57.606;35.95831;-83.92476;796.34;NaN;;4.54;12.536811;152.5;13 / 20;14521;2022-10-11 12:50:32:979
0.1771;2.2612;13.3005;-0.2479;3.8346;9.0225;2.9209;1.9705;0.1813;-0.5137;-0.7032;-0.0949;11326.0;9.84;-35.89;-17.49;199.86;-23.02;1.57;5.0;995.34;56.752;35.95831;-83.92476;796.34;NaN;;4.54;12.536811;152.5;13 / 20;15021;2022-10-11 12:50:33:479
-0.8429;4.4794;8.8152;-0.3301;3.82;9.026;-1.0973;0.9613;2.6769;0.2898;0.4268;0.1125;15448.0;7.8;-34.28;-20.44;198.87;-22.75;-0.22;5.0;995.34;58.07;35.958298;-83.92476;796.25;NaN;;4.64;12.566592;156.9;13 / 20;15521;2022-10-11 12:50:33:979
0.6715;4.9391;8.7147;-0.805;4.5731;8.6376;2.2234;1.0098;1.6683;0.2789;-0.2718;-0.5872;8819.0;10.37;-35.66;-18.3;201.12;-32.61;6.97;5.0;995.35;56.816;35.958298;-83.92476;796.25;NaN;;4.64;12.566592;156.9;13 / 20;16021;2022-10-11 12:50:34:479
0.6523;3.7899;9.7451;-1.0166;3.9432;8.9212;-0.8846;1.2869;1.3865;0.1868;-0.3186;-0.2488;14277.0;14.29;-32.44;-20.96;209.63;-23.71;6.5;5.0;995.37;56.366;35.95828;-83.92476;797.66;NaN;;4.82;12.226105;149.3;13 / 20;16521;2022-10-11 12:50:34:979
-0.2548;5.03;7.0173;0.2271;4.4365;8.7428;1.6562;0.6505;2.0956;0.2487;-0.6062;-0.1268;17367.0;15.43;-30.02;-23.72;224.17;-26.9;-1.49;5.0;995.28;56.121;35.95828;-83.92476;797.66;NaN;;4.82;12.226105;149.3;13 / 20;17021;2022-10-11 12:50:35:479
3.6918;4.6229;13.2287;1.4274;5.3248;8.1104;-0.3685;0.7213;1.3885;0.6548;0.8492;1.9361;28963.002;13.18;-30.07;-24.66;232.72;-32.89;-9.98;5.0;995.27;58.034;35.958267;-83.92476;799.0;NaN;;4.57;12.226105;159.7;12 / 20;17520;2022-10-11 12:50:35:978
4.8972;3.7445;9.4125;2.6871;4.2599;8.4145;3.5309;-0.3304;2.2071;-0.6535;1.2215;-0.0426;9510.0;-2.42;-36.39;-19.87;189.92;-25.75;-17.71;5.0;995.31;57.217;35.958267;-83.92476;799.0;NaN;;4.57;12.226105;159.7;12 / 20;18020;2022-10-11 12:50:36:478
0.8306;3.5228;10.3977;0.8989;4.3263;8.7548;-0.6916;1.0303;-1.1674;0.2204;0.2839;0.0537;12891.0;-6.69;-33.47;-23.1;162.83;-28.8;-3.83;5.0;995.31;58.289;35.958256;-83.92476;799.65;NaN;;4.68;12.666915;161.0;12 / 20;18520;2022-10-11 12:50:36:978
2.0219;2.9279;8.0297;1.378;4.0372;8.8302;0.9482;-0.1029;2.7901;0.3089;-0.0741;-0.5165;13464.0;-8.46;-30.56;-25.03;167.02;-24.31;-8.87;5.0;995.28;58.57;35.958256;-83.92476;799.65;NaN;;4.68;12.666915;161.0;12 / 20;19020;2022-10-11 12:50:37:478
0.3628;1.6902;10.9182;1.6118;3.3347;9.0803;0.1881;1.4076;0.8102;0.017;0.6138;0.9451;14072.0;-9.67;-30.45;-26.81;157.83;-22.57;-6.42;5.0;995.29;57.539;35.95825;-83.92476;797.27;NaN;;4.57;12.767438;152.9;13 / 20;19520;2022-10-11 12:50:37:978
-0.431;0.5183;11.6833;-2.7894;1.4954;9.2819;-0.5052;-3.1111;2.6679;-0.3762;0.2723;-1.9027;52197.0;-6.0;-25.09;-33.13;147.11;-10.53;11.03;5.0;995.33;61.491;35.95825;-83.92476;797.27;NaN;;4.57;12.767438;152.9;13 / 20;20020;2022-10-11 12:50:38:478
-5.0563;0.839;10.1258;-3.9262;2.1835;8.7171;-1.5025;0.1796;1.6725;0.142;0.3195;1.0678;14343.0;16.91;-27.32;-27.43;192.89;-12.86;24.25;5.0;995.29;57.86;35.958233;-83.92475;800.8;NaN;;4.72;13.783349;143.8;13 / 20;20520;2022-10-11 12:50:38:978
0.2596;1.5431;9.1035;-1.2477;2.3607;9.4361;0.7193;0.0455;1.6183;0.3008;0.01;1.1776;32887.0;6.6;-27.36;-28.95;184.79;-9.89;10.11;5.0;995.27;57.977;35.958233;-83.92475;800.8;NaN;;4.72;13.783349;143.8;13 / 20;21020;2022-10-11 12:50:39:478
-1.1575;1.9669;10.2012;-1.245;2.395;9.4278;-0.5794;0.5854;0.9102;-0.0377;-0.5573;-0.2166;29600.0;-2.83;-28.44;-28.78;162.89;-15.4;5.93;5.0;995.3;57.255;35.958225;-83.92475;801.89;NaN;;4.68;14.069589;149.0;14 / 20;21521;2022-10-11 12:50:39:979
-1.4174;0.4107;12.9257;-4.6094;-0.5764;8.6366;2.0392;-0.2036;5.1001;2.0838;0.8447;-1.1976;39733.0;-1.93;-26.06;-30.13;155.29;0.17;19.72;5.0;995.28;57.702;35.958225;-83.92475;801.89;NaN;;4.68;14.069589;149.0;14 / 20;22020;2022-10-11 12:50:40:478
-1.4617;2.9243;7.6074;-4.5257;2.5877;8.3062;-1.4854;-1.5846;2.4519;0.7718;-0.7917;0.3371;19384.0;20.23;-22.97;-26.53;199.11;-15.3;28.58;5.0;995.32;56.818;35.958214;-83.92474;802.47;NaN;;4.82;13.894352;133.6;14 / 20;22520;2022-10-11 12:50:40:978
0.9864;1.0307;13.1614;-0.0054;2.823;9.3916;-0.1893;1.6713;-1.4752;-1.3249;-1.2997;-0.9778;17838.0;5.38;-33.45;-22.72;196.06;-22.18;4.33;5.0;995.26;59.354;35.958214;-83.92474;802.47;NaN;;4.82;13.894352;133.6;14 / 20;23020;2022-10-11 12:50:41:478
-1.1838;2.6228;11.9848;0.0478;3.7917;9.0438;-0.7934;-0.3351;4.0696;-0.1973;-0.6996;0.0845;18427.0;3.17;-35.46;-20.96;187.34;-22.75;-0.3;5.0;995.3;56.702;35.9582;-83.92473;805.21;NaN;;4.68;13.82013;144.3;14 / 20;23520;2022-10-11 12:50:41:978
0.996;4.8111;11.5911;0.0368;5.9965;7.7595;0.8122;0.6755;0.4322;-0.3316;1.1863;-0.171;10158.0;-1.84;-39.09;-13.88;175.04;-37.7;-0.27;5.0;995.25;58.043;35.9582;-83.92473;805.21;NaN;;4.68;13.82013;144.3;14 / 20;24021;2022-10-11 12:50:42:479
2.1033;9.1944;4.9857;1.3845;7.8976;5.6464;2.8598;3.0713;-0.4995;1.0912;0.0416;1.1567;9563.0;-6.39;-42.92;-2.51;166.69;-53.73;-12.46;5.0;995.26;59.227;35.958187;-83.92473;803.47;NaN;;4.64;13.833284;151.3;14 / 20;24520;2022-10-11 12:50:42:978
-2.6312;2.8825;7.1716;-0.7014;8.06;5.5421;3.4211;2.5345;-0.5755;-0.4553;-1.013;-0.8811;10101.0;-9.96;-43.5;4.97;162.57;-55.27;7.21;5.0;995.24;58.291;35.958187;-83.92473;803.47;NaN;;4.64;13.833284;151.3;14 / 20;25020;2022-10-11 12:50:43:478
-2.6815;8.3112;6.5599;0.1992;7.5236;6.287;-1.9662;0.5823;4.1508;-0.2399;0.8577;0.5456;8835.0;-0.66;-43.99;3.73;178.39;-45.59;0.77;5.0;995.26;58.04;35.958176;-83.92472;807.67;NaN;;4.72;13.48284;146.1;13 / 20;25521;2022-10-11 12:50:43:979
-0.7816;4.0807;8.3602;-0.1368;6.838;7.028;-0.7156;1.7665;-3.4514;0.109;-0.7027;-0.0358;8560.0;9.23;-41.89;3.36;199.36;-51.02;14.49;5.0;995.25;57.95;35.958176;-83.92472;807.67;NaN;;4.72;13.48284;146.1;13 / 20;26020;2022-10-11 12:50:44:478
12.5031;7.9783;0.2815;6.6591;6.7538;2.4927;1.3285;0.7238;-0.5217;1.0508;-0.9811;1.7335;7664.0;-3.26;-40.48;7.48;165.18;-43.53;-69.48;5.0;995.25;58.037;35.95816;-83.92472;802.73;NaN;;4.72;13.143481;147.1;14 / 20;26520;2022-10-11 12:50:44:978
7.7186;8.3231;3.0873;6.7231;6.3982;3.1676;-0.4229;0.7157;1.0604;0.673;-0.7051;0.6745;10005.0;-18.81;-36.79;14.42;131.19;-46.91;-56.22;5.0;995.28;56.992;35.95816;-83.92472;802.73;NaN;;4.72;13.143481;147.1;14 / 20;27020;2022-10-11 12:50:45:478
4.6863;6.4328;7.8383;4.0527;4.8308;7.5107;-0.242;1.2547;-0.8234;-0.9474;1.4989;-0.3569;7383.0;-18.41;-36.75;7.63;145.34;-34.85;-37.89;5.0;995.25;57.182;35.958145;-83.92472;791.68;NaN;;4.9;13.555171;158.6;14 / 20;27521;2022-10-11 12:50:45:979
3.3326;7.0388;8.2238;1.775;5.2048;8.1197;0.2061;-0.3969;-1.6422;0.5971;0.5366;0.1649;7956.0;-15.54;-36.84;-8.94;151.14;-32.06;-12.33;5.0;995.28;59.42;35.958145;-83.92472;791.68;NaN;;4.9;13.555171;158.6;14 / 20;28021;2022-10-11 12:50:46:479
0.1711;4.66;10.4958;0.2904;5.6027;8.0433;1.775;1.3002;-2.1447;0.1824;0.5701;-1.0979;8898.0;-9.3;-35.81;-7.11;160.98;-34.84;-2.07;5.0;995.24;58.538;35.95813;-83.92473;787.4;NaN;;5.08;14.283509;172.4;15 / 20;28520;2022-10-11 12:50:46:978
6.428;7.5102;5.9231;4.9258;7.5868;3.7878;1.6291;0.5057;2.387;3.6564;-2.2361;1.5695;9063.0;1.41;-35.7;-5.64;189.98;-44.05;-31.56;5.0;995.21;61.09;35.95813;-83.92473;787.4;NaN;;5.08;14.283509;172.4;15 / 20;29020;2022-10-11 12:50:47:478
4.0041;6.1911;7.8849;3.5397;5.7361;7.123;0.3199;0.4028;-1.9933;-0.0379;0.8279;-0.1297;7242.0;-12.21;-35.04;1.14;156.54;-35.8;-26.42;5.0;995.26;56.73;35.958115;-83.92473;784.64;NaN;;5.11;13.584182;142.2;15 / 20;29522;2022-10-11 12:50:47:980
2.077;5.8331;7.3379;1.8897;4.908;8.2771;-0.4942;0.1313;-0.088;0.2145;-0.1443;-0.0151;7741.0;-11.91;-32.78;-11.51;157.18;-29.19;-12.19;5.0;995.24;55.767;35.958115;-83.92473;784.64;NaN;;5.11;13.584182;142.2;15 / 20;30020;2022-10-11 12:50:48:478
-1.258;4.7139;6.9727;0.6251;3.9117;8.971;0.3346;0.054;-1.3474;0.6137;0.0877;0.3267;14359.0;-10.07;-31.13;-19.14;157.2;-23.51;-3.99;5.0;995.21;57.558;35.9581;-83.92472;780.98;NaN;;5.36;13.801585;152.8;15 / 20;30520;2022-10-11 12:50:48:978
9.7271;6.4774;4.4411;5.9314;6.0579;4.9286;-2.7038;-1.4815;-1.9668;-0.7167;0.2979;-0.1197;7142.0;-20.92;-31.48;-4.33;141.1;-38.15;-50.28;5.0;995.22;57.971;35.9581;-83.92472;780.98;NaN;;5.36;13.801585;152.8;15 / 20;31020;2022-10-11 12:50:49:478
4.2401;6.6497;5.6668;3.9656;5.0391;7.4197;-0.9158;-1.0287;-0.2022;0.353;0.5259;-0.0076;7509.0;-25.16;-32.34;-1.56;136.03;-29.41;-35.11;5.0;995.24;59.267;35.958088;-83.92472;776.06;NaN;;3.78;13.135158;144.9;15 / 20;31521;2022-10-11 12:50:49:979
2.6145;2.4538;11.7861;3.4049;3.8624;8.3462;2.1365;1.4452;-3.0129;-1.0873;1.89;-1.3802;8733.0;-24.9;-34.39;-8.04;142.54;-27.55;-35.75;5.0;995.19;59.281;35.958088;-83.92472;776.06;NaN;;3.78;13.135158;144.9;15 / 20;32020;2022-10-11 12:50:50:478
-1.8123;5.5591;7.5799;-0.7778;5.5481;8.0489;1.7357;2.1763;-0.3699;0.5356;0.0521;-0.6787;11379.0;-12.26;-36.28;-19.99;149.46;-32.71;-1.76;5.0;995.18;57.516;35.958076;-83.92472;773.86;NaN;;4.07;12.662861;151.6;16 / 20;32521;2022-10-11 12:50:50:979
1.6065;5.5878;8.4236;0.2908;4.7826;8.5564;0.5372;0.5554;-0.3991;-0.4314;0.4005;-0.9893;10900.0;-5.51;-39.54;-17.91;168.32;-29.19;-1.95;5.0;995.2;56.548;35.958076;-83.92472;773.86;NaN;;4.07;12.662861;151.6;16 / 20;33020;2022-10-11 12:50:51:478
-0.2333;4.6875;9.6757;-0.0271;3.7949;9.0426;-0.0262;1.322;-2.0472;0.3027;-0.1351;-0.2262;16356.0;-1.05;-37.28;-20.94;179.25;-24.68;-1.84;5.0;995.2;58.473;35.958065;-83.92473;772.27;NaN;;4.21;12.226105;154.0;16 / 20;33520;2022-10-11 12:50:51:978
1.2473;4.4339;6.7418;0.4411;4.1241;8.8864;-1.0915;-1.2202;-0.8423;0.6958;-0.0101;-2.0E-4;25383.0;4.33;-33.9;-22.89;193.57;-24.87;-2.84;5.0;995.18;58.068;35.958065;-83.92473;772.27;NaN;;4.21;12.226105;154.0;16 / 20;34021;2022-10-11 12:50:52:479
1.2066;4.4363;7.1596;2.4369;3.6015;8.7898;-1.0385;-0.0656;-0.6078;-0.389;0.0997;-0.3627;31815.002;-0.3;-34.82;-20.18;191.85;-21.55;-15.5;5.0;995.2;56.325;35.95805;-83.92473;773.91;NaN;;4.46;12.226105;162.7;14 / 20;34520;2022-10-11 12:50:52:978
2.2493;3.9838;8.0429;1.0935;4.2234;8.7828;0.9244;-0.4195;-1.0785;0.2357;0.5238;-0.5191;45555.0;0.26;-31.84;-22.35;191.66;-22.97;-11.39;5.0;995.16;57.831;35.95805;-83.92473;773.91;NaN;;4.46;12.226105;162.7;14 / 20;35021;2022-10-11 12:50:53:479
-1.1085;4.6756;8.6234;1.1505;4.7098;8.5243;-1.8573;-2.3179;-0.4738;0.7091;-0.2349;0.3598;40206.0;8.29;-31.65;-21.06;210.01;-28.7;-7.69;5.0;995.17;58.389;35.95803;-83.924736;772.73;NaN;;4.43;12.226105;149.4;14 / 20;35521;2022-10-11 12:50:53:979
5.8271;6.3682;1.8446;0.6273;8.964;3.9274;5.4541;-2.1073;0.1993;-0.3086;5.4583;-1.5206;8920.0;-1.26;-37.82;2.23;173.76;-57.28;-68.58;5.0;995.17;59.382;35.95803;-83.924736;772.73;NaN;;4.43;12.226105;149.4;14 / 20;36020;2022-10-11 12:50:54:478
2.0303;9.7582;0.3628;0.6091;8.7376;4.4106;2.4866;0.5033;-0.2596;1.455;-1.5017;-0.3652;14101.0;-6.98;-41.12;10.46;162.66;-63.0;-7.86;5.0;995.15;59.311;35.958015;-83.924736;770.09;NaN;;3.92;12.226105;150.7;14 / 20;36520;2022-10-11 12:50:54:978
3.4678;7.5413;-0.8139;2.6758;9.3859;0.9569;-1.7214;-1.0276;-0.449;-0.0382;-0.491;0.3042;11131.0;-7.18;-38.57;17.1;119.69;-73.16;-70.32;5.0;995.18;62.017;35.958015;-83.924736;770.09;NaN;;3.92;12.226105;150.7;14 / 20;37021;2022-10-11 12:50:55:479
-2.3127;7.6337;0.7528;0.2159;9.1659;3.48;1.4756;-1.0211;0.102;-0.3519;1.5493;-0.0011;10404.0;-7.37;-37.46;19.67;153.26;-71.5;-20.84;5.0;995.14;58.813;35.958004;-83.92474;773.07;NaN;;3.49;12.226105;145.0;14 / 20;37520;2022-10-11 12:50:55:978
1.8936;7.7091;3.4199;1.298;8.9606;3.7674;0.5817;-9.0E-4;0.3006;0.4208;-0.0753;0.7768;10511.0;-1.89;-39.41;15.49;168.04;-70.48;-13.99;5.0;995.14;67.81;35.958004;-83.92474;773.07;NaN;;3.49;12.226105;145.0;14 / 20;38021;2022-10-11 12:50:56:479
-0.5219;7.9914;11.6019;0.3098;7.6519;6.1256;0.8727;-0.7428;6.3997;0.3133;1.1613;0.2054;10520.0;-12.54;-37.71;8.64;152.05;-45.84;-21.66;5.0;995.15;58.32;35.957993;-83.92474;772.29;NaN;;4.68;12.226105;158.5;15 / 20;38520;2022-10-11 12:50:56:978
2.0279;6.4101;5.8714;3.251;6.8248;6.2468;-2.2988;0.1465;1.5284;-0.1477;-0.5413;1.1573;12018.0;-20.06;-33.71;-1.11;135.15;-44.1;-27.49;5.0;995.17;61.53;35.957993;-83.92474;772.29;NaN;;4.68;12.226105;158.5;15 / 20;39020;2022-10-11 12:50:57:478
6.6473;6.5539;5.7673;5.8113;4.2104;6.6837;-0.4484;0.2794;-1.2625;-1.0798;-0.3309;-0.5585;10408.0;-27.9;-28.18;-0.32;125.71;-29.61;-39.22;5.0;995.18;57.43;35.95798;-83.92474;770.97;NaN;;4.0;12.226105;147.2;15 / 20;39520;2022-10-11 12:50:57:978
9.7475;2.843;8.2705;7.6046;4.0953;4.6442;-4.3356;1.8692;2.112;-0.1438;1.0139;0.9393;9549.0;-29.64;-28.95;4.78;130.08;-24.68;-58.59;5.0;995.17;59.098;35.95798;-83.92474;770.97;NaN;;4.0;12.226105;147.2;15 / 20;40021;2022-10-11 12:50:58:479
3.6583;3.8378;7.2434;2.2807;3.737;8.7752;1.5056;-0.5287;-1.9187;0.1003;0.6257;-0.222;10230.0;-27.04;-30.84;-3.69;134.39;-22.4;-14.57;5.0;995.13;59.331;35.957977;-83.924736;772.57;NaN;;5.98;12.226105;98.3;16 / 20;40520;2022-10-11 12:50:58:978
2.2253;4.7545;7.684;1.9681;3.0517;9.1096;0.4806;1.1176;-3.3667;-0.1599;0.3354;0.7873;13103.0;-21.99;-34.14;-14.7;142.94;-22.41;-12.83;5.0;995.14;58.807;35.957977;-83.924736;772.57;NaN;;5.98;12.226105;98.3;16 / 20;41020;2022-10-11 12:50:59:478
1.6519;0.8859;6.8507;1.9085;0.6339;9.5982;1.7772;-0.7732;-0.6356;0.3283;0.0395;-0.3056;56767.0;-20.89;-31.16;-18.81;151.23;-3.68;-13.05;5.0;995.12;58.433;35.95797;-83.92472;776.42;NaN;;5.58;12.226105;144.2;16 / 20;41520;2022-10-11 12:50:59:978
1.4031;-0.5399;7.9412;1.9485;-0.2137;9.6088;-0.4401;-3.1019;3.6272;0.4422;-0.5633;-0.066;79825.0;-14.16;-27.22;-26.01;163.85;6.09;-11.29;5.0;995.12;60.579;35.95797;-83.92472;776.42;NaN;;5.58;12.226105;144.2;16 / 20;42022;2022-10-11 12:51:00:480
2.6994;0.1926;8.8271;1.2447;-0.4629;9.7163;1.2883;1.0635;0.5026;0.9754;-0.0173;-0.3419;81531.0;-13.42;-26.83;-28.52;162.04;2.71;-7.3;5.0;995.14;60.115;35.957954;-83.92471;778.29;NaN;;4.0;12.226105;151.7;16 / 20;42520;2022-10-11 12:51:00:978
0.6954;0.5183;8.292;1.2106;1.3396;9.639;1.139;-5.6635;7.3471;-0.2162;1.6323;0.1631;95903.0;-4.12;-28.46;-30.41;179.44;-7.85;-7.16;5.0;995.11;59.384;35.957954;-83.92471;778.29;NaN;;4.0;12.226105;151.7;16 / 20;43020;2022-10-11 12:51:01:478
-1.4438;0.8524;8.2107;-1.2756;2.4061;9.4209;-0.4526;-0.5438;-0.74;0.2856;-2.0662;-0.2634;32922.0;4.44;-35.59;-23.85;181.82;-16.13;7.38;5.0;995.07;58.66;35.957943;-83.92471;778.23;NaN;;4.21;12.226105;167.0;16 / 20;43521;2022-10-11 12:51:01:979
-0.7636;0.8824;8.93;-0.0738;2.2515;9.5444;-0.6583;0.0346;1.5459;-0.0562;-0.1871;0.3125;76019.0;2.63;-33.96;-25.89;184.29;-8.0;1.64;5.0;994.83;58.879;35.957943;-83.92471;778.23;NaN;;4.21;12.226105;167.0;16 / 20;44021;2022-10-11 12:51:02:479
-2.4191;-0.9075;15.0003;-1.5895;2.0889;9.4488;0.3804;-1.9837;3.9747;-0.1084;-1.6213;-1.1091;40305.0;3.77;-36.41;-21.66;178.08;-12.21;12.92;5.0;995.14;58.492;35.957935;-83.924706;780.65;NaN;;4.39;12.226105;151.5;15 / 20;44521;2022-10-11 12:51:02:979
-0.8847;-1.051;9.6912;-0.9932;-0.1343;9.7553;-1.5548;0.6844;1.3347;-0.7427;-0.2355;0.5519;48215.0;10.86;-32.76;-22.46;194.66;0.78;5.81;5.0;995.11;60.127;35.957935;-83.924706;780.65;NaN;;4.39;12.226105;151.5;15 / 20;45021;2022-10-11 12:51:03:479
-1.6232;-3.8737;12.265;-0.4834;-2.2531;9.5321;0.6159;-0.5675;1.4677;-0.7128;-0.2556;-0.3576;107951.0;8.83;-25.03;-29.4;194.56;8.87;2.76;5.0;995.11;57.609;35.957928;-83.924706;778.62;NaN;;4.03;12.226105;167.3;15 / 20;45521;2022-10-11 12:51:03:979
-0.6153;-5.5101;10.0289;-0.5093;-3.76;9.0429;-0.402;1.1493;0.3402;-0.7195;0.1161;-0.1665;142727.0;4.97;-16.76;-33.9;186.1;22.55;3.22;5.0;995.11;57.508;35.957928;-83.924706;778.62;NaN;;4.03;12.226105;167.3;15 / 20;46021;2022-10-11 12:51:04:479
0.2285;-5.8822;10.3905;-0.688;-3.7239;9.046;-0.7399;-0.4698;1.0073;0.2736;-0.2513;-0.062;154670.0;4.22;-9.9;-36.24;183.13;22.32;4.35;5.0;995.1;57.585;35.957916;-83.9247;779.94;NaN;;4.18;12.226105;155.6;14 / 20;46521;2022-10-11 12:51:04:979
-1.2317;-3.9299;8.0907;-0.5433;-4.6084;8.6393;-0.5162;-0.5352;0.7727;-0.3455;-0.2545;0.2129;153118.0;3.19;-10.2;-37.16;180.27;25.33;4.45;5.0;995.09;56.695;35.957916;-83.9247;779.94;NaN;;4.18;12.226105;155.6;14 / 20;47021;2022-10-11 12:51:05:479
-2.5953;-7.4204;9.9894;-0.8096;-4.8352;8.4933;0.7281;0.9908;-0.3408;0.132;-0.3208;-0.5242;159719.0;1.86;-5.7;-38.85;177.32;29.24;4.61;5.0;995.11;57.995;35.95791;-83.92469;780.21;NaN;;4.32;12.226105;157.0;14 / 20;47520;2022-10-11 12:51:05:978
-0.7205;-6.2342;10.6968;0.0605;-2.6529;9.4408;-0.6538;-2.2539;1.7577;0.8996;-0.1846;-0.4251;155706.0;1.97;-6.19;-39.75;176.94;26.27;4.63;5.0;995.1;57.363;35.95791;-83.92469;780.21;NaN;;4.32;12.226105;157.0;14 / 20;48020;2022-10-11 12:51:06:478
4.5894;1.1575;8.2167;0.6329;-0.1679;9.7848;0.5867;1.2517;0.3057;0.1592;0.2256;0.35;118074.99;-4.07;-20.7;-35.53;175.59;0.98;-3.7;5.0;995.11;62.29;35.9579;-83.92468;780.75;NaN;;3.96;12.226105;152.8;14 / 20;48520;2022-10-11 12:51:06:978
-0.65;-3.6126;11.1218;1.8226;-2.2916;9.3593;-3.2015;-0.7956;3.1321;-0.2254;-0.2047;0.2824;134166.0;-4.09;-21.97;-35.57;185.66;13.51;-11.02;5.0;995.08;54.551;35.9579;-83.92468;780.75;NaN;;3.96;12.226105;152.8;14 / 20;49020;2022-10-11 12:51:07:478
5.1592;-1.6555;8.1338;0.888;0.0293;9.7663;1.2523;0.6628;-3.9666;-0.6815;-1.0744;0.024;93125.0;-2.01;-22.12;-35.62;178.23;3.7;-1.99;5.0;995.1;55.382;35.957893;-83.924675;779.23;NaN;;4.03;12.226105;159.0;14 / 20;49520;2022-10-11 12:51:07:978
4.7859;-7.1022;15.4107;2.8272;-3.2358;8.8151;-3.3639;-0.936;3.0638;0.2769;-0.4136;1.082;19770.0;-10.11;-20.08;-35.64;185.31;19.44;-19.99;5.0;995.09;52.618;35.957893;-83.924675;779.23;NaN;;4.03;12.226105;159.0;14 / 20;50020;2022-10-11 12:51:08:478
5.467;-3.0547;7.5078;2.7527;-1.4535;9.2995;1.3356;0.1977;-1.6912;-1.0091;-0.2275;-0.2327;6734.0;-13.59;-22.67;-32.68;163.8;-2.93;-13.11;5.0;995.12;58.983;35.957886;-83.92467;779.59;NaN;;4.68;12.226105;152.0;14 / 20;50521;2022-10-11 12:51:08:979
2.6396;-3.341;10.2359;3.1533;-3.4426;8.6241;-1.1812;0.5708;1.241;0.474;0.3509;0.4633;4238.0;-15.79;-17.19;-34.78;174.16;20.55;-20.08;5.0;995.12;55.042;35.957886;-83.92467;779.59;NaN;;4.68;12.226105;152.0;14 / 20;51020;2022-10-11 12:51:09:478
1.5491;0.9972;8.6991;1.2918;-0.014;9.7212;0.8358;0.91;-3.9426;1.0219;0.1327;0.5017;5187.0;-12.88;-17.51;-34.65;158.04;2.9;-8.02;5.0;995.08;55.533;35.95788;-83.924644;778.27;NaN;;4.14;12.226105;125.0;13 / 20;51520;2022-10-11 12:51:09:978
0.0945;-1.817;12.6191;1.7948;-1.9129;9.4493;-1.5461;2.2764;-1.6673;0.149;-0.5308;-0.1561;8397.0;-10.67;-23.89;-31.93;170.87;11.25;-10.75;5.0;995.13;58.146;35.95788;-83.924644;778.27;NaN;;4.14;12.226105;125.0;13 / 20;52020;2022-10-11 12:51:10:478
-0.7325;0.9601;6.4065;0.57;0.3365;9.7843;0.4335;1.0758;-2.9553;-0.7749;-0.7459;-0.6264;9190.0;-10.71;-24.88;-31.42;158.99;-1.97;-3.33;5.0;995.09;57.774;35.95787;-83.92464;776.89;NaN;;4.07;12.226105;147.5;13 / 20;52520;2022-10-11 12:51:10:978
0.0897;-2.3785;12.4421;1.5694;-2.0733;9.4556;-1.1009;0.2649;1.6676;-0.4726;-0.0485;-0.0066;9102.0;-12.11;-21.34;-32.21;167.19;12.0;-10.0;5.0;995.12;57.058;35.95787;-83.92464;776.89;NaN;;4.07;12.226105;147.5;13 / 20;53020;2022-10-11 12:51:11:478
1.2018;-2.1631;8.6043;0.9673;-0.2881;9.7546;-0.7696;-0.3908;-2.2225;-0.1932;0.1958;0.3292;16035.0;-13.42;-20.36;-32.4;156.15;4.04;-5.54;5.0;995.09;57.775;35.957863;-83.92463;777.01;NaN;;4.36;12.226105;155.8;13 / 20;53520;2022-10-11 12:51:11:978
1.2891;-2.0506;11.5995;1.7134;-2.3121;9.3749;-1.1815;1.0186;-0.0422;-0.3862;0.0777;-0.2343;7625.0;-13.59;-19.5;-32.74;162.01;13.72;-8.99;5.0;995.12;61.542;35.957863;-83.92463;777.01;NaN;;4.36;12.226105;155.8;13 / 20;54020;2022-10-11 12:51:12:478
3.6679;0.0538;7.046;1.4766;-0.993;9.6439;-0.9561;0.6481;-3.6933;0.0699;-0.6286;-0.2556;9252.0;-11.74;-19.12;-33.98;163.37;5.81;-8.71;5.0;995.1;57.691;35.957855;-83.92462;774.34;NaN;;4.14;12.226105;159.4;13 / 20;54520;2022-10-11 12:51:12:978
-0.2524;-5.2442;13.0107;3.0179;-3.1322;8.7893;-2.1067;2.2071;-2.3843;-0.4485;0.1723;-0.0204;4276.0;-9.17;-19.71;-34.14;184.79;18.63;-18.95;5.0;995.11;60.288;35.957855;-83.92462;774.34;NaN;;4.14;12.226105;159.4;13 / 20;55020;2022-10-11 12:51:13:478
-2.7736;-3.3541;7.8993;-4.1403;-3.9038;7.9868;3.4772;1.9064;-1.462;0.2032;-0.2889;1.1062;5155.0;1.99;-13.86;-36.32;173.9;16.5;7.2;5.0;995.06;58.962;35.95785;-83.924614;772.81;NaN;;3.96;12.226105;157.6;13 / 20;55520;2022-10-11 12:51:13:978
-5.3052;-1.3406;6.5013;-4.2485;-3.0244;8.305;-0.869;1.7569;-2.395;0.2653;0.1322;-0.4303;3223.0;20.08;-11.62;-32.79;186.69;17.14;27.24;5.0;995.1;55.171;35.95785;-83.924614;772.81;NaN;;3.96;12.226105;157.6;13 / 20;56020;2022-10-11 12:51:14:478
-2.5439;2.0183;5.7805;-5.4475;1.1083;8.0788;2.3581;-1.6236;-2.0834;0.7992;0.6682;1.2503;22281.0;19.33;-18.39;-29.17;182.65;1.55;31.79;5.0;995.08;55.912;35.957844;-83.9246;775.16;NaN;;4.18;12.226105;146.1;13 / 20;56520;2022-10-11 12:51:14:978
-9.1274;-2.6934;9.137;-4.6983;-1.4065;8.4922;-0.0011;2.1591;-2.3665;-0.3392;0.1615;-0.6399;7803.0;18.54;-24.26;-27.39;187.12;8.25;28.95;5.0;995.12;55.535;35.957844;-83.9246;775.16;NaN;;4.18;12.226105;146.1;13 / 20;57020;2022-10-11 12:51:15:478
-2.636;1.5395;6.2366;-4.5652;0.8982;8.6326;1.8858;0.5325;-3.5406;0.3735;0.2622;1.1435;2550.0;21.75;-21.92;-27.79;193.34;-3.07;30.47;5.0;995.09;55.877;35.957836;-83.92459;776.69;NaN;;4.14;12.226105;151.7;14 / 20;57521;2022-10-11 12:51:15:979
-1.5933;2.3438;10.7303;0.4346;2.1475;9.5588;-1.8168;-0.1814;-2.0896;-0.2151;0.1147;0.1355;2634.0;5.18;-30.73;-25.99;194.09;-12.65;-2.6;5.0;995.09;54.991;35.957836;-83.92459;776.69;NaN;;4.14;12.226105;151.7;14 / 20;58022;2022-10-11 12:51:16:480
1.4701;0.0407;10.0696;0.4699;1.1288;9.7301;0.5366;1.3664;-1.059;-0.2144;0.1641;0.0723;1895.0;-4.95;-32.94;-24.0;172.71;-6.61;-2.76;5.0;995.06;56.077;35.95783;-83.92458;776.94;NaN;;4.18;12.226105;161.3;14 / 20;58520;2022-10-11 12:51:16:978
-1.5455;1.6101;9.3072;-0.4832;1.0709;9.736;-0.5258;0.1428;-1.1037;-0.1045;0.488;0.0852;2107.0;-1.14;-29.34;-26.96;174.84;-6.27;2.84;5.0;995.09;56.185;35.95783;-83.92458;776.94;NaN;;4.18;12.226105;161.3;14 / 20;59023;2022-10-11 12:51:17:481
0.4597;1.3143;9.8001;0.6316;1.0652;9.7282;-0.3831;0.5502;-1.6944;0.2275;-0.4771;0.154;6394.0;-3.66;-30.19;-25.44;174.99;-6.24;-3.71;5.0;995.08;55.138;35.95782;-83.924576;776.56;NaN;;4.18;12.226105;145.2;14 / 20;59521;2022-10-11 12:51:17:979
-0.3568;1.5921;10.2921;-0.0559;0.8114;9.7729;1.4549;-0.1849;-1.6683;-0.0638;0.2978;-1.3546;2082.0;-7.61;-28.63;-24.82;163.12;-4.75;0.33;5.0;995.08;54.414;35.95782;-83.924576;776.56;NaN;;4.18;12.226105;145.2;14 / 20;60020;2022-10-11 12:51:18:478
-2.4335;2.7102;9.0509;-1.9084;1.1556;9.5495;-0.9535;1.0459;-0.3823;0.4414;-0.3731;0.929;27610.0;5.03;-29.85;-22.87;178.85;-5.56;13.61;5.0;995.08;52.673;35.957813;-83.92456;777.25;NaN;;4.18;12.226105;134.4;14 / 20;60520;2022-10-11 12:51:18:978
-1.5885;3.4606;8.1437;-1.3489;2.1023;9.4832;0.5289;1.48;-2.6643;-0.5382;-0.2288;-0.2821;26240.0;-0.39;-28.99;-23.91;171.72;-12.38;8.1;5.0;995.11;56.122;35.957813;-83.92456;777.25;NaN;;4.18;12.226105;134.4;14 / 20;61021;2022-10-11 12:51:19:479
-1.3466;2.9076;7.9831;-1.5331;2.59;9.3334;-0.1576;-2.0846;0.8543;0.4904;0.2887;0.3763;2946.0;-0.54;-29.4;-25.54;169.69;-10.99;7.28;5.0;995.05;57.27;35.95781;-83.92455;776.54;NaN;;4.14;12.226105;143.8;14 / 20;61520;2022-10-11 12:51:19:978
-2.0423;3.0571;9.0233;-1.8929;2.8935;9.1769;-0.1977;-0.053;-2.4192;-0.0583;-0.2078;-0.5987;2228.0;-0.66;-33.37;-22.69;167.53;-18.02;11.09;5.0;995.1;56.087;35.95781;-83.92455;776.54;NaN;;4.14;12.226105;143.8;14 / 20;62022;2022-10-11 12:51:20:480
-3.0667;3.2584;9.4304;-2.2074;2.6347;9.1846;-0.7546;0.9357;-1.6342;-0.6732;-0.0656;-0.255;19509.0;2.46;-34.03;-23.66;167.6;-20.48;17.22;5.0;995.08;54.755;35.9578;-83.924545;777.61;NaN;;4.1;12.226105;140.1;14 / 20;62521;2022-10-11 12:51:20:979
-1.7022;2.7832;6.6808;-1.7159;1.8144;9.4834;2.2581;-0.151;-0.84;-0.844;0.103;-0.4219;25666.0;0.47;-32.76;-24.82;170.93;-10.66;10.26;5.0;995.06;54.108;35.9578;-83.924545;777.61;NaN;;4.1;12.226105;140.1;14 / 20;63020;2022-10-11 12:51:21:478
-0.3221;0.4298;8.2226;-0.1993;0.0663;9.8044;-0.3392;0.3755;-0.8865;-0.7677;-0.3868;0.8359;54005.0;1.97;-31.18;-26.46;183.11;-7.59;1.14;5.0;995.05;54.336;35.95779;-83.92454;774.97;NaN;;4.1;12.226105;148.6;14 / 20;63520;2022-10-11 12:51:21:978
0.7217;1.0223;8.432;1.3247;1.6466;9.5762;0.1346;-0.9595;-0.4775;0.1389;0.2733;0.0167;59339.0;-8.27;-28.13;-28.69;170.08;-9.67;-7.88;5.0;995.05;54.277;35.95779;-83.92454;774.97;NaN;;4.1;12.226105;148.6;14 / 20;64021;2022-10-11 12:51:22:479
-0.073;1.5778;7.8885;0.9183;1.5162;9.6451;-0.4295;-0.5412;-0.7348;-0.7;0.9691;-0.1003;53335.0;-10.07;-30.09;-26.68;163.73;-8.89;-5.44;5.0;995.05;54.135;35.95778;-83.92453;777.42;NaN;;3.96;12.226105;154.5;14 / 20;64520;2022-10-11 12:51:22:978
1.0941;0.3951;6.8865;-1.8696;0.3046;9.622;3.7321;0.3087;-1.8078;0.3907;2.4438;0.4032;68353.0;-7.29;-27.77;-30.45;164.05;-1.32;1.54;5.0;994.99;53.861;35.95778;-83.92453;777.42;NaN;;3.96;12.226105;154.5;14 / 20;65020;2022-10-11 12:51:23:478
-1.567;0.935;7.107;-1.6192;0.2199;9.6696;-0.219;-1.57;4.4496;0.1078;0.5643;0.9092;79634.0;0.73;-26.16;-31.78;169.33;-2.39;10.13;5.0;995.0;55.226;35.95777;-83.92453;777.24;NaN;;3.92;12.226105;172.6;13 / 20;65520;2022-10-11 12:51:23:978
-1.4833;-1.7501;8.7278;-2.0447;-1.1709;9.5194;0.6492;-3.0943;1.4156;-0.2089;-0.0927;-1.0088;105301.0;-1.39;-19.99;-34.63;163.88;9.69;10.5;5.0;994.97;54.966;35.95777;-83.92453;777.24;NaN;;3.92;12.226105;172.6;13 / 20;66020;2022-10-11 12:51:24:478
-1.5335;-0.5686;10.3747;-2.0997;0.1057;9.5787;-1.0218;-1.0474;2.134;0.4057;-0.1855;-0.111;92274.0;4.22;-20.31;-33.81;170.25;-0.62;12.36;5.0;995.02;54.75;35.95776;-83.92452;780.71;NaN;;4.79;12.226105;149.4;13 / 20;66520;2022-10-11 12:51:24:978
-2.5546;2.2516;5.3761;-2.1781;0.5784;9.5442;1.1582;-2.3036;2.2804;0.056;0.0139;-0.5466;64017.0;2.76;-26.68;-29.42;172.05;-3.38;12.86;5.0;994.96;53.906;35.95776;-83.92452;780.71;NaN;;4.79;12.226105;149.4;13 / 20;67021;2022-10-11 12:51:25:479
-4.1393;2.3928;3.7636;-2.6721;2.7854;9.0151;-2.3762;-2.1222;4.9019;2.4283;1.8031;0.4058;42402.0;8.79;-26.06;-28.07;178.41;-4.51;19.1;5.0;995.0;55.226;35.95775;-83.924515;779.48;NaN;;3.74;12.226105;159.5;13 / 20;67521;2022-10-11 12:51:25:979
-0.443;4.2556;8.9862;-0.8779;3.9421;8.9364;-0.243;-1.0964;1.4196;-0.0363;-0.2538;0.0138;11106.0;6.58;-36.86;-16.44;186.97;-25.89;13.23;5.0;995.01;55.251;35.95775;-83.924515;779.48;NaN;;3.74;12.226105;159.5;13 / 20;68020;2022-10-11 12:51:26:478
-1.3358;3.3434;6.2234;-1.1406;2.9409;9.2855;1.1977;-0.7654;1.7135;-0.4113;-0.4051;0.7617;17908.0;0.3;-34.76;-20.42;173.76;-17.93;8.55;5.0;995.0;54.769;35.95774;-83.924515;781.37;NaN;;3.53;12.226105;155.3;14 / 20;68520;2022-10-11 12:51:26:978
1.2987;2.5905;10.4982;-1.2117;1.7741;9.5684;-0.6681;-0.8167;1.855;-0.0394;0.3606;-0.1624;25535.0;-3.64;-31.29;-24.58;164.76;-10.42;7.22;5.0;995.02;55.564;35.95774;-83.924515;781.37;NaN;;3.53;12.226105;155.3;14 / 20;69021;2022-10-11 12:51:27:479
-1.3705;3.1328;7.3415;-1.5237;1.925;9.4944;-0.606;-0.2203;-0.2499;0.1122;-0.2436;0.2537;40811.0;-2.91;-29.25;-26.46;161.83;-13.51;9.68;5.0;994.98;55.674;35.95773;-83.92451;784.3;NaN;;4.72;12.226105;150.9;14 / 20;69520;2022-10-11 12:51:27:978
-0.2106;2.4395;7.9878;-0.3662;3.1878;9.2668;-0.1113;1.1479;0.2831;-0.1137;-0.0828;-0.1051;37196.0;-5.85;-29.32;-25.78;159.77;-18.97;2.26;5.0;994.97;53.882;35.95773;-83.92451;784.3;NaN;;4.72;12.226105;150.9;14 / 20;70020;2022-10-11 12:51:28:478
1.7632;2.3665;11.1147;-0.4086;2.5411;9.4629;-2.2343;-0.3625;0.0641;-0.1959;0.2969;0.1357;21757.0;-6.75;-31.16;-23.62;161.36;-15.02;2.47;5.0;994.97;53.629;35.95772;-83.9245;787.62;NaN;;4.54;12.226105;153.2;14 / 20;70520;2022-10-11 12:51:28:978
0.0742;3.5336;7.7186;0.1961;2.3257;9.5249;0.4949;0.7911;-1.4712;0.1528;0.2951;-0.2068;26455.0;-9.09;-29.89;-24.36;160.53;-14.85;-2.26;5.0;994.98;54.592;35.95772;-83.9245;787.62;NaN;;4.54;12.226105;153.2;14 / 20;71021;2022-10-11 12:51:29:479
0.5722;3.5121;8.5588;-0.4097;2.5591;9.458;0.5159;-1.8174;3.6621;0.2155;-0.5336;0.713;31964.998;-6.94;-30.32;-25.01;160.39;-14.82;2.5;5.0;994.98;52.988;35.957706;-83.924484;790.24;NaN;;4.18;12.226105;147.7;14 / 20;71521;2022-10-11 12:51:29:979
1.439;3.14;8.93;-0.2519;2.9311;9.355;0.9009;-0.3397;0.6873;-0.1398;-0.2427;-0.321;23339.0;-6.54;-31.2;-24.34;160.49;-18.03;2.02;5.0;994.98;53.741;35.957706;-83.924484;790.24;NaN;;4.18;12.226105;147.7;14 / 20;72022;2022-10-11 12:51:30:480
-1.0355;3.5468;8.4787;-1.1363;2.3759;9.4464;0.412;1.5402;1.3055;0.111;-0.1962;0.9605;26816.0;-1.8;-31.95;-25.14;168.79;-14.02;6.86;5.0;995.01;52.124;35.9577;-83.92448;793.37;NaN;;4.25;12.226105;148.6;14 / 20;72521;2022-10-11 12:51:30:979
0.4537;1.3633;9.647;0.3279;1.5748;9.6738;0.9221;-0.8969;0.9146;-0.2302;-0.5695;0.1577;62165.0;-5.55;-26.94;-30.19;167.13;-9.24;-1.94;5.0;994.98;56.455;35.9577;-83.92448;793.37;NaN;;4.25;12.226105;148.6;14 / 20;73020;2022-10-11 12:51:31:478
-0.3556;-0.1998;13.4608;-0.6142;1.4066;9.6858;0.2833;0.7603;0.628;-0.9272;-0.1104;-0.5716;52819.0;-6.02;-27.99;-30.26;168.59;-10.37;-2.93;5.0;994.98;53.001;35.95769;-83.92446;795.02;NaN;;4.25;12.226105;149.6;14 / 20;73520;2022-10-11 12:51:31:978
0.0526;0.7576;10.3077;-0.4182;1.7554;9.6392;-0.6124;0.9033;0.5178;-0.3047;-0.1003;-0.262;64361.0;0.06;-26.17;-31.57;172.71;-11.64;4.36;5.0;994.98;54.024;35.95769;-83.92446;795.02;NaN;;4.25;12.226105;149.6;14 / 20;74020;2022-10-11 12:51:32:478
-0.1519;2.9339;9.7941;-0.9131;2.1565;9.5229;0.4619;0.3183;1.339;0.213;0.4742;0.5574;47225.0;-1.78;-29.32;-30.43;173.08;-10.28;1.55;5.0;994.97;53.164;35.957684;-83.92446;796.19;NaN;;4.28;12.226105;153.9;14 / 20;74521;2022-10-11 12:51:32:979
-0.0586;3.3613;11.5768;-0.3305;2.215;9.5475;-0.3577;0.7991;-0.6056;0.3342;-0.3751;-0.0626;42097.0;-2.57;-30.45;-29.79;169.82;-13.05;1.98;5.0;994.98;54.62;35.957684;-83.92446;796.19;NaN;;4.28;12.226105;153.9;14 / 20;75020;2022-10-11 12:51:33:478
-0.4478;2.6563;11.4114;-0.6366;2.8067;9.3748;-0.3018;0.0737;0.8491;0.2861;0.1317;-0.0567;35273.0;-3.28;-31.01;-28.29;170.17;-15.58;1.79;5.0;994.97;51.522;35.957676;-83.92445;795.48;NaN;;4.07;12.226105;157.7;14 / 20;75522;2022-10-11 12:51:33:980
0.2788;4.6409;9.6194;-0.1641;3.4429;9.1809;-0.4385;-0.025;-0.4317;-0.2163;0.1203;0.1734;21389.0;-3.36;-33.45;-24.36;171.33;-20.55;1.02;5.0;994.96;55.146;35.957676;-83.92445;795.48;NaN;;4.07;12.226105;157.7;14 / 20;76023;2022-10-11 12:51:34:481
-2.8621;3.0308;10.4097;-1.8102;1.673;9.4918;-0.6805;-0.3008;0.6674;-0.3331;-0.1225;-0.3303;49974.0;-2.44;-30.19;-26.68;164.37;-9.82;10.8;5.0;995.02;57.248;35.957664;-83.924446;794.37;NaN;;4.21;12.226105;150.2;14 / 20;76520;2022-10-11 12:51:34:978
0.1771;2.8394;8.4811;-0.7826;3.4171;9.1587;0.3507;-0.8637;-0.165;0.8815;-0.0146;0.8674;49660.0;-0.32;-29.7;-26.83;172.32;-18.08;5.79;5.0;994.96;57.05;35.957664;-83.924446;794.37;NaN;;4.21;12.226105;150.2;14 / 20;77020;2022-10-11 12:51:35:478
-0.929;4.5715;10.206;-1.4375;3.2062;9.1556;0.5866;0.7773;0.0268;0.0481;0.5733;0.0663;23154.0;-4.84;-32.04;-24.09;159.15;-19.08;8.92;5.0;994.99;56.687;35.957657;-83.92443;792.06;NaN;;4.1;12.226105;138.9;14 / 20;77520;2022-10-11 12:51:35:978
0.5518;3.7134;9.8219;0.0378;3.4025;9.1974;-0.5649;-0.0989;0.0081;0.3106;-0.1603;0.0923;23124.0;-5.91;-32.31;-24.19;164.96;-18.07;0.42;5.0;995.02;57.615;35.957657;-83.92443;792.06;NaN;;4.1;12.226105;138.9;14 / 20;78020;2022-10-11 12:51:36:478
0.4561;3.5228;10.4982;-0.0501;2.772;9.4066;0.0616;0.6875;-2.6055;-0.076;0.2097;-0.1229;20197.0;-7.67;-33.36;-23.38;161.49;-18.7;-0.01;5.0;995.01;63.137;35.95765;-83.92443;792.4;NaN;;4.46;12.226105;163.9;14 / 20;78520;2022-10-11 12:51:36:978
0.5566;2.6635;8.3076;0.1274;3.0539;9.3181;-0.2652;-0.5752;-1.4148;-0.1858;0.1684;0.1637;31460.0;-6.32;-31.76;-25.61;166.8;-15.82;-0.99;5.0;994.99;63.331;35.95765;-83.92443;792.4;NaN;;4.46;12.226105;163.9;14 / 20;79020;2022-10-11 12:51:37:478
-0.7504;2.9411;10.6908;-0.0344;2.1821;9.5607;-0.4577;0.4631;-2.8826;-0.3005;0.2926;-0.2607;35060.0;-4.97;-31.88;-25.31;168.77;-12.86;0.21;5.0;994.98;62.219;35.95764;-83.92442;790.19;NaN;;4.32;12.226105;147.1;14 / 20;79520;2022-10-11 12:51:37:978
1.2293;2.5606;10.448;0.2785;3.8672;9.0076;-1.3061;-1.8764;-0.4844;0.3213;-0.2908;-0.1335;32514.0;-3.28;-32.68;-24.88;173.78;-23.22;-1.77;5.0;994.97;59.29;35.95764;-83.92442;790.19;NaN;;4.32;12.226105;147.1;14 / 20;80020;2022-10-11 12:51:38:478
-0.3772;3.5755;8.93;-0.3669;3.4331;9.1787;0.5467;0.1063;-0.7633;-0.0878;0.2689;0.0961;18191.0;-4.59;-35.4;-22.11;170.16;-20.05;-1.59;5.0;994.95;52.575;35.957626;-83.924416;788.84;NaN;;4.07;12.226105;150.3;14 / 20;80520;2022-10-11 12:51:38:978
0.6404;3.8007;8.5576;-0.8183;3.3735;9.1717;-9.0E-4;-1.0387;-1.3299;0.3564;0.0924;0.8682;30052.0;-4.52;-34.09;-25.31;163.36;-15.74;6.53;5.0;994.95;51.15;35.957626;-83.924416;788.84;NaN;;4.07;12.226105;150.3;14 / 20;81020;2022-10-11 12:51:39:478
-2.3498;2.3952;10.4384;-1.5908;1.8818;9.492;-0.3251;1.2539;-1.8774;-0.0971;0.1903;-0.0448;45308.0;-7.61;-31.35;-27.75;153.96;-12.87;8.11;5.0;994.92;51.039;35.95762;-83.92441;790.32;NaN;;4.18;12.226105;148.9;14 / 20;81521;2022-10-11 12:51:39:979
-0.8501;3.5264;7.0998;-1.4684;3.5497;9.023;0.3901;-0.6749;-1.1025;0.6112;0.182;0.4704;43512.0;-8.4;-30.07;-28.72;145.21;-21.22;9.24;5.0;994.91;51.378;35.95762;-83.92441;790.32;NaN;;4.18;12.226105;148.9;14 / 20;82020;2022-10-11 12:51:40:478
-3.347;2.5738;7.8778;-2.1675;2.435;9.249;1.3645;1.4966;-1.5456;0.1439;0.0396;-0.1189;31600.0;-11.17;-32.03;-26.4;147.04;-18.02;8.98;5.0;994.9;53.218;35.957607;-83.9244;792.7;NaN;;3.96;12.226105;148.4;14 / 20;82521;2022-10-11 12:51:40:979
-1.5778;2.2612;6.9523;-3.5682;4.3514;8.0314;2.0984;-1.8244;-1.1119;0.2195;1.0152;-0.0455;34511.0;-2.51;-32.55;-28.16;148.6;-21.92;21.36;5.0;994.92;53.565;35.957607;-83.9244;792.7;NaN;;3.96;12.226105;148.4;14 / 20;83020;2022-10-11 12:51:41:478
-4.5559;4.04;7.223;-3.2704;2.6418;8.8598;0.5049;0.9378;-1.9426;-0.2298;-0.2817;-0.8596;21456.0;4.24;-35.29;-23.49;171.3;-15.63;20.26;5.0;994.91;56.673;35.9576;-83.924385;791.61;NaN;;4.18;12.226105;142.0;14 / 20;83520;2022-10-11 12:51:41:978
-0.7911;3.1627;5.0755;-5.3019;3.1828;7.6112;3.983;-1.1858;-0.6203;0.2704;1.5709;0.0538;22088.0;5.53;-33.66;-24.64;171.66;-20.76;20.95;5.0;994.92;61.461;35.9576;-83.924385;791.61;NaN;;4.18;12.226105;142.0;14 / 20;84020;2022-10-11 12:51:42:478
-8.7996;2.8274;6.8686;-4.3026;1.1342;8.7391;-0.4789;0.1018;-0.7962;0.1206;-0.0649;-0.6667;37844.0;10.35;-31.72;-25.86;173.32;-8.62;27.67;5.0;994.95;47.479;35.957592;-83.92438;793.17;NaN;;4.9;12.226105;147.5;14 / 20;84522;2022-10-11 12:51:42:980
-2.0961;1.9884;11.3013;-2.8731;2.6006;9.0085;1.2307;-0.3236;-3.4151;-0.116;0.0163;0.0336;42483.0;7.07;-30.15;-28.26;174.53;-15.93;18.02;5.0;994.97;49.473;35.957592;-83.92438;793.17;NaN;;4.9;12.226105;147.5;14 / 20;85020;2022-10-11 12:51:43:478
-3.0236;1.6795;7.515;-2.7544;1.4803;9.2948;1.1358;-0.0137;-0.6377;0.1365;0.1332;-0.321;46580.0;-0.43;-29.96;-29.79;161.39;-8.68;16.51;5.0;994.87;54.565;35.95758;-83.92436;793.76;NaN;;4.54;12.226105;148.4;15 / 20;85522;2022-10-11 12:51:43:980
-3.9838;2.6456;4.8996;-5.2539;3.068;7.6912;2.555;-2.0436;1.2565;1.1047;-0.4482;0.5358;6390.0;3.56;-29.53;-30.39;145.8;-18.23;34.34;5.0;994.89;49.715;35.95758;-83.92436;793.76;NaN;;4.54;12.226105;148.4;15 / 20;86021;2022-10-11 12:51:44:479
0.1196;4.5763;8.2549;-0.1403;3.1106;9.2992;0.5616;0.4725;-0.2427;0.3721;-1.8313;0.0783;3929.0;6.08;-33.56;-25.99;189.82;-17.09;3.75;5.0;994.89;50.318;35.95757;-83.924355;792.68;NaN;;4.25;12.226105;149.8;14 / 20;86520;2022-10-11 12:51:44:978
0.4597;3.1914;9.1095;-0.434;2.1903;9.5491;0.9893;1.1501;-2.4716;0.0654;-0.1444;0.5784;3564.0;-5.25;-36.99;-24.67;168.17;-21.03;0.82;5.0;994.93;55.08;35.95757;-83.924355;792.68;NaN;;4.25;12.226105;149.8;14 / 20;87020;2022-10-11 12:51:45:478
-2.7078;2.2552;11.397;-1.0485;1.1765;9.6792;-0.6449;1.1462;-3.4866;-0.1607;0.5908;-0.4831;4014.0;-10.44;-31.99;-30.19;155.8;-9.2;4.05;5.0;994.9;53.635;35.957558;-83.92435;794.61;NaN;;4.5;12.226105;151.6;15 / 20;87520;2022-10-11 12:51:45:978
-3.2046;2.9327;5.7374;-3.9478;2.5798;8.5982;3.2329;-1.169;0.2487;0.1418;1.2634;0.1873;2966.0;-4.22;-30.77;-32.51;142.22;-15.25;24.66;5.0;994.93;53.614;35.957558;-83.92435;794.61;NaN;;4.5;12.226105;151.6;15 / 20;88021;2022-10-11 12:51:46:479
-4.6265;0.9517;8.2286;-3.7718;0.399;9.0435;1.4288;1.7452;-3.3675;-0.5347;0.1938;-0.756;2763.0;3.6;-29.04;-33.3;161.77;-3.72;22.35;5.0;994.89;53.496;35.957542;-83.92434;795.48;NaN;;4.32;12.226105;154.2;15 / 20;88520;2022-10-11 12:51:46:978
-1.8218;2.8561;6.4208;-3.5789;3.1551;8.5678;1.6707;-1.2354;-2.2308;0.6718;-0.053;0.8522;2559.0;5.53;-26.79;-34.44;154.0;-14.93;24.29;5.0;994.91;57.401;35.957542;-83.92434;795.48;NaN;;4.32;12.226105;154.2;15 / 20;89020;2022-10-11 12:51:47:478
-6.4546;0.9206;9.9667;-3.0447;1.1714;9.2481;1.4421;0.8774;-4.4883;-0.7244;-0.1419;-1.3123;2089.0;-0.04;-30.19;-30.26;160.42;-6.86;18.22;5.0;994.85;57.925;35.957535;-83.92434;797.43;NaN;;4.21;12.226105;151.4;15 / 20;89520;2022-10-11 12:51:47:978
-1.7859;1.8254;7.8144;-2.97;2.2453;9.0724;1.1422;-0.5705;-3.125;0.1766;0.2567;0.7023;28747.002;2.89;-27.94;-31.09;161.69;-13.2;18.0;5.0;994.89;51.026;35.957535;-83.92434;797.43;NaN;;4.21;12.226105;151.4;15 / 20;90022;2022-10-11 12:51:48:480
-3.2847;0.7014;8.2083;-2.0798;-0.1707;9.582;0.4353;1.3283;-1.9324;-0.2467;0.272;-1.1179;85208.0;-1.44;-25.89;-31.5;163.75;-1.64;11.42;5.0;994.85;49.235;35.957523;-83.92433;798.74;NaN;;4.28;12.226105;145.3;16 / 20;90521;2022-10-11 12:51:48:979
-1.7345;2.697;7.0316;-3.5971;2.7749;8.6909;1.0993;-1.205;-3.0471;0.3131;-0.3801;0.7757;78594.0;4.29;-24.56;-32.36;155.42;-11.7;22.05;5.0;994.9;52.756;35.957523;-83.92433;798.74;NaN;;4.28;12.226105;145.3;16 / 20;91021;2022-10-11 12:51:49:479
-4.3705;0.2994;9.2713;-2.1894;-0.0395;9.559;1.6948;1.5381;-1.6532;-0.8727;-0.2062;-1.1669;78736.0;1.2;-27.3;-31.42;167.63;0.23;12.9;5.0;994.87;53.813;35.95751;-83.92432;799.75;NaN;;4.18;12.226105;150.5;16 / 20;91520;2022-10-11 12:51:49:978
-1.3226;0.3042;6.8554;-3.6486;1.4158;8.9919;2.1471;-1.1766;-1.7588;1.2521;-0.3482;-0.068;104780.0;4.8;-19.72;-35.57;148.81;-8.3;22.09;5.0;994.85;54.826;35.95751;-83.92432;799.75;NaN;;4.18;12.226105;150.5;16 / 20;92021;2022-10-11 12:51:50:479
-4.1919;1.5227;10.1402;-1.9967;-0.5379;9.5861;-1.6872;2.4288;-1.0932;-0.5736;-0.5355;-1.1547;61541.0;4.84;-27.64;-30.3;176.94;-3.26;12.11;5.0;994.88;47.329;35.957504;-83.92431;799.26;NaN;;4.43;12.226105;155.8;16 / 20;92521;2022-10-11 12:51:50:979
-2.6013;2.4479;7.5006;-3.4902;2.0997;8.9208;1.7042;-0.365;-3.2665;0.6652;0.3149;0.5275;70246.0;8.59;-24.9;-31.72;179.01;-6.65;16.33;5.0;994.86;50.698;35.957504;-83.92431;799.26;NaN;;4.43;12.226105;155.8;16 / 20;93020;2022-10-11 12:51:51:478
-2.2636;2.0327;10.5114;-1.9792;0.9446;9.5583;-2.2975;1.4778;-5.2306;-0.5072;0.2658;-0.5214;40774.0;6.79;-30.9;-27.79;179.91;-12.66;14.11;5.0;994.84;50.272;35.95749;-83.9243;798.54;NaN;;4.36;12.226105;151.7;16 / 20;93521;2022-10-11 12:51:51:979
-1.8805;1.1922;4.3932;-2.4011;2.4448;9.1885;-1.6285;-3.3748;2.2768;2.0335;1.1602;0.797;77205.0;2.85;-27.07;-31.76;164.12;-14.44;14.64;5.0;994.85;51.321;35.95749;-83.9243;798.54;NaN;;4.36;12.226105;151.7;16 / 20;94020;2022-10-11 12:51:52:478
-3.6066;2.2768;7.0316;-2.1024;0.3013;9.5739;-0.2213;1.9989;-3.3794;-0.7868;-0.4803;-1.0113;44210.0;2.12;-33.11;-25.86;171.42;-8.77;13.96;5.0;994.85;50.199;35.95748;-83.92429;797.49;NaN;;4.46;12.226105;164.8;16 / 20;94520;2022-10-11 12:51:52:978
-2.0183;0.7253;5.6357;-4.2161;4.2034;7.7927;2.5682;-3.39;-1.9294;0.6855;1.5703;1.1854;73294.0;4.29;-26.25;-31.84;154.26;-16.07;21.25;5.0;994.85;47.243;35.95748;-83.92429;797.49;NaN;;4.46;12.226105;164.8;16 / 20;95020;2022-10-11 12:51:53:478
-5.2633;1.3238;7.5126;-2.5104;-0.0011;9.4799;0.5736;1.0542;-1.0002;-0.2279;0.0467;-1.7915;68113.0;1.93;-29.96;-28.95;169.63;0.01;14.83;5.0;994.85;49.878;35.957462;-83.924286;798.01;NaN;;4.43;12.226105;151.2;16 / 20;95520;2022-10-11 12:51:53:978
-0.4633;3.5504;5.1784;-3.5515;3.4366;8.4703;2.2326;-2.2937;-2.8782;1.0423;0.1879;2.1102;72848.0;8.76;-24.99;-31.82;163.76;-9.06;25.56;5.0;994.87;51.845;35.957462;-83.924286;798.01;NaN;;4.43;12.226105;151.2;16 / 20;96020;2022-10-11 12:51:54:478
-6.7298;0.3305;8.7876;-2.7854;0.2169;9.4002;1.466;1.7517;-1.3763;-0.5395;0.1376;-1.0845;69150.0;3.36;-29.49;-28.54;168.65;-5.48;16.27;5.0;994.85;50.056;35.957455;-83.92428;797.56;NaN;;4.28;12.226105;155.4;15 / 20;96521;2022-10-11 12:51:54:979
-0.6452;0.699;8.6019;-1.6339;3.8175;8.8841;0.2391;-3.655;-1.0173;2.0166;-0.4649;1.3118;80134.0;4.33;-23.1;-33.54;162.01;-7.38;16.81;5.0;994.87;49.493;35.957455;-83.92428;797.56;NaN;;4.28;12.226105;155.4;15 / 20;97020;2022-10-11 12:51:55:478
-3.9263;1.8553;7.0663;-2.62;1.0135;9.3957;2.7576;2.2142;-0.1676;-0.6483;0.0473;-1.4828;74462.0;-3.6;-27.66;-30.13;154.5;-5.93;15.58;5.0;994.84;49.011;35.957443;-83.92427;797.4;NaN;;4.36;12.226105;149.1;14 / 20;97520;2022-10-11 12:51:55:978
-0.0502;2.3509;5.5149;-3.0438;1.2712;9.2353;-0.1911;-2.4749;-1.7717;0.8463;0.3357;0.0092;90625.0;1.54;-21.64;-34.99;152.54;-7.45;18.24;5.0;994.85;49.391;35.957443;-83.92427;797.4;NaN;;4.36;12.226105;149.1;14 / 20;98020;2022-10-11 12:51:56:478
-5.7625;-2.2397;6.9117;-2.4544;-2.0905;9.2615;2.3398;3.8718;-2.8753;0.586;0.1512;-1.6814;92575.0;2.51;-22.57;-34.16;169.19;3.79;13.14;5.0;994.83;49.336;35.957436;-83.92426;798.48;NaN;;4.68;12.226105;142.6;14 / 20;98520;2022-10-11 12:51:56:978
-3.1699;0.3221;7.1381;-4.1764;-0.0737;8.8726;0.9453;-0.8882;-2.4112;0.4547;0.161;1.2199;93001.0;14.72;-16.29;-34.54;175.32;0.43;25.21;5.0;994.82;50.577;35.957436;-83.92426;798.48;NaN;;4.68;12.226105;142.6;14 / 20;99020;2022-10-11 12:51:57:478
-4.1931;0.4765;5.8056;-2.7935;0.091;9.3999;-0.0876;0.3842;-3.7488;0.6701;0.1643;-0.8845;75189.0;12.24;-23.06;-31.93;183.01;1.51;18.45;5.0;994.83;48.812;35.957424;-83.924255;797.66;NaN;;4.43;12.226105;147.3;14 / 20;99520;2022-10-11 12:51:57:978
-2.059;0.6176;6.7932;-3.6504;0.6413;9.0793;1.3212;-0.6461;0.2989;0.8714;0.091;0.6962;81757.0;11.96;-21.39;-33.21;176.39;-3.75;21.9;5.0;994.83;48.515;35.957424;-83.924255;797.66;NaN;;4.43;12.226105;147.3;14 / 20;100021;2022-10-11 12:51:58:479
-3.6511;1.1695;8.4428;-2.1963;0.0797;9.5572;0.3596;2.0182;-2.7886;-0.6772;0.1332;-1.0329;71295.0;10.76;-25.33;-31.2;184.84;-1.06;15.94;5.0;994.81;48.382;35.957417;-83.92424;797.74;NaN;;4.5;12.226105;146.1;14 / 20;100522;2022-10-11 12:51:58:980
-1.5622;1.8063;5.7829;-3.5766;2.3112;8.8338;1.7442;-1.157;-2.8729;0.8084;0.293;1.0975;76573.0;11.85;-22.28;-32.96;176.06;-6.96;21.96;5.0;994.85;47.948;35.957417;-83.92424;797.74;NaN;;4.5;12.226105;146.1;14 / 20;101020;2022-10-11 12:51:59:478
-3.8641;-0.583;10.5257;-2.2546;-0.1466;9.5428;0.8307;1.7346;-3.4227;-0.6738;-0.3281;-0.8727;75419.0;8.57;-25.54;-31.42;183.53;0.86;13.29;5.0;994.81;48.345;35.95741;-83.92423;796.52;NaN;;4.43;12.226105;149.3;14 / 20;101520;2022-10-11 12:51:59:978
-2.3294;1.646;5.2657;-2.6104;1.9618;9.247;0.4657;-0.7377;-2.9024;0.8707;0.0554;0.7638;83509.0;9.06;-21.99;-33.75;174.69;-4.88;17.69;5.0;994.84;48.653;35.95741;-83.92423;796.52;NaN;;4.43;12.226105;149.3;14 / 20;102020;2022-10-11 12:52:00:478
0.3867;3.2967;9.1705;1.0914;2.0475;9.5282;2.1248;1.3411;-1.0533;-0.0156;0.151;0.1326;33438.0;-2.76;-28.54;-29.78;184.1;-11.23;-8.79;5.0;994.82;48.334;35.957397;-83.924225;796.12;NaN;;4.82;12.226105;152.6;14 / 20;102520;2022-10-11 12:52:00:978
-0.7469;3.5527;7.7246;0.1221;2.8888;9.3707;0.241;0.8066;-1.9527;-0.151;0.1012;0.1714;20074.0;-11.23;-31.33;-27.64;154.19;-17.13;-1.43;5.0;994.87;46.972;35.957397;-83.924225;796.12;NaN;;4.82;12.226105;152.6;14 / 20;103021;2022-10-11 12:52:01:479
-1.8015;1.5837;9.3239;0.0518;0.867;9.7681;0.5251;1.2567;-2.6099;-1.0345;-0.3297;-0.7662;57945.996;-7.78;-28.86;-30.62;163.31;-5.07;-0.3;5.0;994.82;49.039;35.957382;-83.92422;793.73;NaN;;4.79;12.226105;152.3;14 / 20;103520;2022-10-11 12:52:01:978
1.4115;3.1687;7.0232;-0.8073;3.5378;9.1106;0.6636;-2.8651;-3.1744;0.4504;-0.2724;0.4937;72067.0;-6.47;-26.81;-32.91;146.66;-21.15;5.06;5.0;994.84;48.068;35.957382;-83.92422;793.73;NaN;;4.79;12.226105;152.3;14 / 20;104020;2022-10-11 12:52:02:478
-1.2245;2.8549;11.2546;-0.0746;1.1734;9.7359;-1.0901;2.234;-3.5149;-0.3018;0.0251;-0.4785;38585.0;-9.79;-30.94;-29.17;156.72;-11.22;1.34;5.0;994.82;48.632;35.957375;-83.92421;793.96;NaN;;5.0;12.226105;144.3;14 / 20;104520;2022-10-11 12:52:02:978
-0.146;2.7341;7.4839;-0.8505;3.3261;9.1861;-0.4154;-1.9688;-2.9544;0.1127;-0.0229;0.3362;53793.996;-7.07;-28.33;-32.25;153.91;-14.22;4.55;5.0;994.86;48.523;35.957375;-83.92421;793.96;NaN;;5.0;12.226105;144.3;14 / 20;105020;2022-10-11 12:52:03:478
-2.1284;1.8924;10.1533;-0.5749;0.3955;9.7818;0.0344;2.3807;-3.754;-0.1013;-0.0215;-0.721;65577.0;-5.92;-28.67;-32.21;162.82;-6.94;3.1;5.0;994.8;48.996;35.957363;-83.9242;792.86;NaN;;5.18;12.226105;149.4;14 / 20;105520;2022-10-11 12:52:03:978
-1.6448;2.4431;5.7637;-1.6959;3.0127;9.177;-0.0819;-2.0778;-1.6581;0.8702;0.4468;0.8253;68707.0;-2.12;-27.32;-33.98;152.33;-17.89;10.47;5.0;994.8;47.665;35.957363;-83.9242;792.86;NaN;;5.18;12.226105;149.4;14 / 20;106020;2022-10-11 12:52:04:478
-3.3063;1.3705;7.8251;-1.8731;0.5663;9.6094;0.1756;1.28;-3.8617;-0.5356;-0.0603;-0.7847;70818.0;-3.6;-30.49;-31.22;159.99;-7.02;10.37;5.0;994.84;48.849;35.957355;-83.924194;792.67;NaN;;4.82;12.226105;149.1;14 / 20;106520;2022-10-11 12:52:04:978
-1.258;2.1858;5.6393;-2.8538;3.5333;8.6915;1.3589;-1.4637;-3.1771;0.7847;0.2263;0.4028;72659.0;5.06;-26.79;-34.2;159.07;-17.69;18.26;5.0;994.84;48.653;35.957355;-83.924194;792.67;NaN;;4.82;12.226105;149.1;14 / 20;107020;2022-10-11 12:52:05:478
-3.536;1.4031;9.2195;-1.3047;0.4917;9.707;-0.7175;1.2692;-2.4411;-0.2763;-0.3029;-0.6325;61969.0;5.66;-31.16;-29.87;183.79;-2.87;7.65;5.0;994.83;50.121;35.957344;-83.92418;792.08;NaN;;5.0;12.226105;158.8;14 / 20;107521;2022-10-11 12:52:05:979
1.9427;2.9865;6.9404;0.6036;3.6427;9.085;1.183;-1.0508;-2.2988;1.0804;-0.0235;0.8941;60733.0;-1.41;-30.24;-30.6;183.11;-16.63;-3.85;5.0;994.82;54.714;35.957344;-83.92418;792.08;NaN;;5.0;12.226105;158.8;14 / 20;108020;2022-10-11 12:52:06:478
-1.5814;2.6719;8.0979;-0.0836;2.0661;9.5862;2.6622;2.091;-2.3869;-0.4709;0.0505;-0.8096;28071.002;-10.52;-34.12;-25.39;159.77;-15.23;-3.13;5.0;994.81;47.582;35.957333;-83.92417;790.92;NaN;;4.9;12.226105;153.8;14 / 20;108521;2022-10-11 12:52:06:979
-0.8151;2.7485;6.0057;-1.4583;3.5789;9.013;0.5692;-1.6516;-3.4568;0.012;-0.1087;-0.089;55199.0;-4.05;-30.17;-30.54;158.52;-14.68;8.27;5.0;994.82;48.152;35.957333;-83.92417;790.92;NaN;;4.9;12.226105;153.8;14 / 20;109020;2022-10-11 12:52:07:478
-2.0363;1.646;9.3048;-1.2857;1.3941;9.6215;3.0342;1.6746;0.3286;-0.32;-0.1025;-0.8656;58537.996;-2.38;-31.42;-28.88;167.67;-8.17;7.61;5.0;994.82;50.317;35.95732;-83.92416;790.53;NaN;;4.82;12.226105;155.7;14 / 20;109522;2022-10-11 12:52:07:980
-0.3772;2.5017;5.9985;-2.1961;2.3208;9.2716;0.0472;-1.7135;-2.1353;0.4272;0.0813;0.5014;74130.0;1.84;-27.47;-31.93;163.85;-13.69;13.33;5.0;994.83;50.062;35.95732;-83.92416;790.53;NaN;;4.82;12.226105;155.7;14 / 20;110020;2022-10-11 12:52:08:478
-2.9566;0.9685;7.6361;-1.4078;-0.2417;9.7021;-0.8403;1.2689;-3.3682;0.0837;0.0943;-1.1209;79544.0;2.72;-28.2;-31.31;176.12;-0.82;8.97;5.0;994.8;49.7;35.957314;-83.92415;789.23;NaN;;4.82;12.226105;155.4;14 / 20;110521;2022-10-11 12:52:08:979
-4.2353;0.7995;7.1189;-3.2678;1.0073;9.1911;2.0574;-0.0192;-2.4821;-0.0226;-0.0135;0.1852;79887.0;8.31;-23.7;-33.53;177.94;-6.33;14.42;5.0;994.83;47.892;35.957314;-83.92415;789.23;NaN;;4.82;12.226105;155.4;14 / 20;111022;2022-10-11 12:52:09:480
-2.0171;1.6711;6.1421;-1.8312;-0.1784;9.6325;0.3545;2.0144;-3.1746;0.1572;-0.2687;-0.7546;69344.0;11.4;-26.04;-31.82;187.79;-1.5;13.14;5.0;994.79;48.133;35.957302;-83.92414;788.08;NaN;;4.82;12.226105;159.3;14 / 20;111520;2022-10-11 12:52:09:978
-2.0602;0.827;6.4029;-2.8013;1.076;9.3362;-0.3005;-1.8986;1.2975;1.0032;0.5156;1.0594;78585.0;13.14;-23.66;-33.04;188.45;-6.3;16.7;5.0;994.8;47.536;35.957302;-83.92414;788.08;NaN;;4.82;12.226105;159.3;14 / 20;112020;2022-10-11 12:52:10:478
-1.7022;1.8314;5.2813;-2.4982;0.0371;9.483;2.5123;0.7415;2.9684;0.0932;-0.1745;-0.8162;55094.004;12.54;-28.91;-28.78;190.3;-1.55;14.89;5.0;994.82;48.417;35.95729;-83.92413;788.03;NaN;;4.86;12.226105;154.6;15 / 20;112520;2022-10-11 12:52:10:978
-0.7516;1.002;5.3438;-3.5106;1.7784;8.9824;0.5957;-2.7494;0.6227;0.698;0.7114;0.335;74081.0;14.4;-22.57;-33.06;191.27;-1.67;15.98;5.0;994.78;47.858;35.95729;-83.92413;788.03;NaN;;4.86;12.226105;154.6;15 / 20;113020;2022-10-11 12:52:11:478
-2.8777;1.8936;7.1524;-1.7931;0.6328;9.6205;0.2759;0.2986;-0.0667;-0.1089;-0.4921;-0.881;38825.0;15.71;-28.5;-27.15;201.74;-3.7;10.56;5.0;994.85;48.901;35.95728;-83.924126;788.21;NaN;;4.86;12.226105;161.2;16 / 20;113520;2022-10-11 12:52:11:978
-1.0068;2.1428;5.9351;-3.6747;1.7255;8.9269;0.9724;-2.1472;-1.2898;0.7418;1.1124;1.3173;67123.0;16.44;-23.06;-31.05;201.04;-2.79;13.7;5.0;994.8;49.381;35.95728;-83.924126;788.21;NaN;;4.86;12.226105;161.2;16 / 20;114020;2022-10-11 12:52:12:478
-2.9626;1.5431;5.0348;-2.82;0.4801;9.3802;0.7539;-0.0083;3.5648;-0.2129;0.1556;-0.644;40600.0;16.43;-28.16;-27.07;195.92;-2.81;16.73;5.0;994.83;47.644;35.95727;-83.924126;789.06;NaN;;4.75;12.226105;162.5;15 / 20;114521;2022-10-11 12:52:12:979
-4.034;-0.0479;7.3415;-3.4097;1.3085;9.1012;0.0425;-1.1059;-1.6969;0.5195;0.339;1.2477;97522.0;15.92;-21.94;-32.59;196.49;-2.55;16.4;5.0;994.77;47.862;35.95727;-83.924126;789.06;NaN;;4.75;12.226105;162.5;15 / 20;115020;2022-10-11 12:52:13:478
-1.8338;1.3801;7.9831;-3.1715;0.6968;9.2535;-0.9803;-2.4108;3.5042;0.2453;-0.2461;-0.927;46157.0;13.14;-28.56;-28.5;186.19;-4.07;18.92;5.0;994.81;49.04;35.957264;-83.92412;787.49;NaN;;5.08;12.226105;168.7;15 / 20;115521;2022-10-11 12:52:13:979
-2.9806;0.4178;7.5413;-3.5596;1.3828;9.0326;-0.225;-1.4024;1.2062;0.8171;0.7239;0.9497;58249.0;18.45;-25.14;-31.01;195.24;-8.11;21.51;5.0;994.77;53.331;35.957264;-83.92412;787.49;NaN;;5.08;12.226105;168.7;15 / 20;116021;2022-10-11 12:52:14:479
-2.4335;2.7676;7.3846;-2.7597;0.8124;9.3752;1.2059;1.9866;-0.6693;0.0921;-0.5718;-0.0973;35132.0;16.2;-31.61;-27.02;192.99;-6.15;18.55;5.0;994.83;47.213;35.957253;-83.92411;787.94;NaN;;5.22;12.226105;160.8;15 / 20;116521;2022-10-11 12:52:14:979
-3.2261;1.3178;8.1266;-2.88;1.0614;9.3139;-2.7135;-3.1149;1.1356;0.1247;0.0697;0.4345;53060.0;16.97;-26.83;-30.69;195.05;-0.19;16.95;5.0;994.79;46.604;35.957253;-83.92411;787.94;NaN;;5.22;12.226105;160.8;15 / 20;117020;2022-10-11 12:52:15:478
-2.0028;2.5161;7.4659;-2.9191;0.909;9.3179;2.3961;1.7307;1.0423;-0.156;-0.6343;0.3258;32901.0;16.74;-31.16;-27.64;194.66;-6.79;18.81;5.0;994.8;56.184;35.95724;-83.92411;788.03;NaN;;4.97;12.226105;166.4;15 / 20;117520;2022-10-11 12:52:15:978
-2.8346;0.8524;7.2087;-2.9742;1.1039;9.2793;-3.5459;-3.083;4.7676;0.7029;0.4497;0.7392;47408.0;20.4;-27.24;-28.18;204.41;-6.46;17.77;5.0;994.74;54.772;35.95724;-83.92411;788.03;NaN;;4.97;12.226105;166.4;15 / 20;118020;2022-10-11 12:52:16:478
-3.0308;1.5323;7.296;-2.7568;0.4607;9.3999;-0.3395;-0.3263;1.5224;-0.3663;-0.1566;-0.5366;36488.0;16.78;-30.77;-25.59;196.37;-6.14;18.04;5.0;994.82;48.339;35.957233;-83.9241;787.68;NaN;;4.75;12.226105;161.8;15 / 20;118520;2022-10-11 12:52:16:978
-3.1077;0.2922;5.7805;-3.2681;1.2069;9.1669;0.2382;-1.3984;-2.0246;0.449;0.5039;0.6703;67432.0;18.49;-24.53;-29.64;199.29;-2.78;17.48;5.0;994.77;49.802;35.957233;-83.9241;787.68;NaN;;4.75;12.226105;161.8;15 / 20;119020;2022-10-11 12:52:17:478
-2.3605;1.4653;5.9231;-3.0247;0.5148;9.3143;0.8344;-0.5491;2.0247;0.193;0.2831;-0.2349;58120.0;15.3;-29.06;-27.45;192.22;-3.01;17.99;5.0;994.82;47.404;35.95722;-83.924095;788.98;NaN;;5.0;12.226105;150.5;15 / 20;119521;2022-10-11 12:52:17:979
-3.1711;0.8608;7.2494;-3.4987;1.6953;9.0031;0.1464;-1.262;-0.796;0.3002;0.2821;0.5595;59032.0;17.21;-27.41;-27.75;196.08;-5.93;19.3;5.0;994.79;46.469;35.95722;-83.924095;788.98;NaN;;5.0;12.226105;150.5;15 / 20;120021;2022-10-11 12:52:18:479
-3.1364;1.4028;7.2565;-3.1042;0.992;9.2493;0.7187;-0.1658;1.1341;-0.0457;0.0418;-0.922;47845.0;14.48;-30.34;-25.72;189.27;-6.91;19.95;5.0;994.82;48.543;35.957207;-83.924095;790.32;NaN;;5.08;12.226105;170.6;15 / 20;120520;2022-10-11 12:52:18:978
-2.7939;1.0977;6.0751;-3.5689;1.7184;8.9711;0.449;-1.2713;0.8207;0.5168;-0.1877;0.5888;52008.0;18.79;-26.27;-26.66;200.09;-4.91;20.26;5.0;994.76;49.992;35.957207;-83.924095;790.32;NaN;;5.08;12.226105;170.6;15 / 20;121020;2022-10-11 12:52:19:478
-2.7616;0.8258;6.463;-2.9417;0.6906;9.3295;-2.5636;-2.1311;2.2529;0.1609;0.5482;-0.6919;48795.0;17.46;-28.33;-25.33;198.56;-4.04;17.5;5.0;994.84;46.925;35.957195;-83.92409;790.92;NaN;;4.82;12.226105;166.9;15 / 20;121520;2022-10-11 12:52:19:978
-2.9937;1.5897;6.2175;-3.9197;1.062;8.9263;0.1295;-0.7614;1.2809;0.5501;0.2807;0.8719;50927.0;20.23;-24.24;-26.98;200.16;-6.22;23.71;5.0;994.74;47.304;35.957195;-83.92409;790.92;NaN;;4.82;12.226105;166.9;15 / 20;122020;2022-10-11 12:52:20:478
-3.4642;1.6591;6.446;-3.7929;1.2962;8.9501;2.3422;1.401;-0.6189;0.1255;-0.3902;-0.325;28315.002;18.02;-28.42;-24.64;196.92;-9.83;22.94;5.0;994.8;46.607;35.957184;-83.92409;790.25;NaN;;4.82;12.226105;155.7;15 / 20;122520;2022-10-11 12:52:20:978
-3.6523;1.1013;6.2749;-3.7922;1.1411;8.9715;-2.9698;-2.5759;1.643;0.2188;0.2647;0.6206;38365.0;20.34;-25.91;-25.31;198.66;-1.34;23.2;5.0;994.74;49.084;35.957184;-83.92409;790.25;NaN;;4.82;12.226105;155.7;15 / 20;123020;2022-10-11 12:52:21:478
-3.1531;1.0546;6.0021;-3.7969;0.7108;9.0138;3.3375;1.3693;1.0428;0.0605;-0.4377;0.6982;47672.0;16.29;-27.86;-26.31;189.75;-4.85;23.41;5.0;994.77;47.158;35.957172;-83.92408;791.03;NaN;;4.61;12.226105;167.9;15 / 20;123520;2022-10-11 12:52:21:978
-3.4211;0.7122;8.3136;-3.6279;0.7636;9.0789;-1.8986;-2.4033;4.0825;0.6675;0.0868;0.0684;59868.0;18.13;-24.94;-27.84;195.78;-4.47;21.78;5.0;994.76;47.543;35.957172;-83.92408;791.03;NaN;;4.61;12.226105;167.9;15 / 20;124021;2022-10-11 12:52:22:479
-2.0171;1.3765;8.2729;-3.14;0.3887;9.2822;-1.3686;-1.4949;2.0666;0.0575;0.2372;-0.9648;40206.0;18.68;-27.64;-25.72;199.1;-3.48;19.88;5.0;994.7;48.417;35.95716;-83.92408;789.16;NaN;;4.82;12.226105;172.0;14 / 20;124520;2022-10-11 12:52:22:978
-3.4487;-0.0479;10.133;-3.9418;1.34;8.879;0.5233;-1.3073;1.281;0.7118;-0.3141;1.313;50810.0;22.56;-22.2;-27.41;205.38;0.11;23.26;5.0;994.71;47.326;35.95716;-83.92408;789.16;NaN;;4.82;12.226105;172.0;14 / 20;125020;2022-10-11 12:52:23:478
-3.2154;1.2269;6.2462;-3.6843;0.5889;9.0691;-0.6818;-1.3961;2.1173;0.1303;0.0576;-0.5566;43826.0;18.99;-27.17;-25.71;197.31;-3.44;22.11;5.0;994.75;48.097;35.957153;-83.92408;789.55;NaN;;4.79;12.226105;173.3;15 / 20;125521;2022-10-11 12:52:23:979
-3.0296;1.1192;6.7609;-3.7047;1.421;8.9681;0.3373;-0.6337;1.6989;0.463;-0.2121;0.7642;51447.0;19.74;-24.82;-27.54;199.17;-3.38;22.11;5.0;994.72;47.313;35.957153;-83.92408;789.55;NaN;;4.79;12.226105;173.3;15 / 20;126020;2022-10-11 12:52:24:478
-1.7309;1.5072;8.013;-0.9616;1.4101;9.657;0.2555;-0.4383;1.6639;0.7749;-0.8539;-0.8866;34616.0;14.79;-30.11;-24.96;202.54;-13.72;12.2;5.0;994.73;46.874;35.957134;-83.92408;788.84;NaN;;4.97;12.226105;182.9;15 / 20;126520;2022-10-11 12:52:24:978
0.3808;2.3521;10.0564;-0.3821;1.8276;9.6273;-2.0375;-1.4851;1.4033;0.5027;0.0402;0.8456;39775.0;11.7;-30.0;-26.94;200.43;-7.73;4.85;5.0;994.73;48.513;35.957134;-83.92408;788.84;NaN;;4.97;12.226105;182.9;15 / 20;127021;2022-10-11 12:52:25:479
1.6268;3.1651;7.873;-0.454;1.9589;9.5983;2.1215;-0.3322;3.2435;0.8049;0.524;0.4833;35512.0;6.9;-31.42;-26.4;192.92;-11.52;2.71;5.0;994.74;49.546;35.957127;-83.92408;786.98;NaN;;4.75;12.226105;186.9;15 / 20;127520;2022-10-11 12:52:25:978
-0.3233;1.7752;5.8355;-1.2897;1.8626;9.5414;-0.529;-1.8615;2.7058;0.7888;0.545;0.8587;41455.0;11.94;-29.68;-26.74;198.98;-10.95;7.7;5.0;994.7;47.682;35.957127;-83.92408;786.98;NaN;;4.75;12.226105;186.9;15 / 20;128020;2022-10-11 12:52:26:478
-1.7572;2.3725;4.3573;-1.5896;1.2439;9.5967;0.6466;0.1859;-0.6254;0.2899;0.0932;-0.1348;49380.0;9.68;-30.64;-26.64;192.04;-5.1;8.19;5.0;994.73;65.111;35.95712;-83.92408;786.51;NaN;;4.86;12.226105;182.4;15 / 20;128520;2022-10-11 12:52:26:978
-1.1061;2.2181;7.5437;-2.0058;1.5774;9.4689;-1.7431;-3.9283;4.6174;0.6603;0.0574;1.2102;55268.0;16.28;-26.51;-28.28;204.25;-3.35;9.15;5.0;994.72;46.769;35.95712;-83.92408;786.51;NaN;;4.86;12.226105;182.4;15 / 20;129020;2022-10-11 12:52:27:478
-1.5096;2.8597;6.4738;-1.6408;1.8467;9.4904;0.7268;0.1685;0.0365;-1.1679;0.5118;-0.5155;23571.0;11.53;-32.85;-23.08;193.05;-11.67;13.48;5.0;994.71;46.315;35.957108;-83.92408;785.4;NaN;;4.82;12.226105;179.0;15 / 20;129521;2022-10-11 12:52:27:979
-2.8765;-0.1268;7.2374;-3.2678;1.4515;9.1315;0.3546;-2.4107;4.5443;0.5414;1.1608;1.0823;50715.0;16.54;-27.26;-25.82;198.05;-8.51;19.69;5.0;994.71;48.417;35.957108;-83.92408;785.4;NaN;;4.82;12.226105;179.0;15 / 20;130020;2022-10-11 12:52:28:478
-3.384;2.8059;6.1193;-3.0839;1.4773;9.1912;2.0748;1.8432;1.4341;-0.3817;0.095;-1.1551;17792.0;16.5;-32.96;-18.9;201.66;-15.36;18.29;5.0;994.75;49.321;35.957096;-83.92407;786.05;NaN;;4.9;12.226105;174.6;15 / 20;130520;2022-10-11 12:52:28:978
-6.4953;-4.0723;8.2717;-5.928;-0.0486;7.812;0.1704;-2.0908;1.0984;-0.4326;0.2805;-1.4021;33429.0;22.37;-24.53;-23.76;193.82;-1.54;32.01;5.0;994.68;48.707;35.957096;-83.92407;786.05;NaN;;4.9;12.226105;174.6;15 / 20;131020;2022-10-11 12:52:29:478
-4.1249;1.3382;5.7338;-4.5486;1.9663;8.4625;-1.9457;-2.5554;4.0589;-1.0321;0.572;-0.6702;13512.0;30.79;-24.09;-17.08;227.63;-11.57;28.26;5.0;994.73;49.742;35.95709;-83.92407;787.3;NaN;;4.9;12.226105;182.4;15 / 20;131520;2022-10-11 12:52:29:978
-0.1962;2.4897;9.1382;-0.2332;3.7694;9.0503;-0.3227;-0.9627;0.6493;0.5716;-0.5488;0.6959;18578.0;23.91;-27.47;-20.38;230.95;-19.29;3.7;5.0;994.75;49.281;35.95709;-83.92407;787.3;NaN;;4.9;12.226105;182.4;15 / 20;132020;2022-10-11 12:52:30:478
0.3317;2.9088;7.3654;1.6928;2.84;9.2325;0.0438;-0.4183;2.2944;0.1708;-0.2106;-0.3321;27082.0;7.18;-34.59;-21.0;200.94;-16.83;-10.39;5.0;994.73;50.644;35.957077;-83.92407;788.0;NaN;;4.64;12.226105;182.9;15 / 20;132521;2022-10-11 12:52:30:979
0.6823;2.6169;7.0208;1.7422;4.4145;8.5818;-1.4189;-2.053;-0.2194;0.6141;-1.0033;0.7843;36613.0;4.86;-33.11;-22.56;195.35;-18.3;-4.16;5.0;994.74;50.732;35.957077;-83.92407;788.0;NaN;;4.64;12.226105;182.9;15 / 20;133020;2022-10-11 12:52:31:478
3.7505;3.7409;6.044;3.0699;3.576;8.5999;0.7385;0.6426;-0.3373;0.3541;-0.3247;-0.313;25975.0;-2.51;-35.4;-17.7;187.06;-21.39;-19.65;5.0;994.76;49.926;35.95707;-83.92407;787.73;NaN;;4.9;12.226105;181.5;15 / 20;133521;2022-10-11 12:52:31:979
-0.9577;2.9291;10.334;0.777;3.9083;8.9606;2.0715;-0.7375;7.3432;-2.0253;2.4364;-0.792;45536.0;10.09;-28.29;-24.19;216.12;-23.49;-4.96;5.0;994.65;49.835;35.95707;-83.92407;787.73;NaN;;4.9;12.226105;181.5;15 / 20;134020;2022-10-11 12:52:32:478
2.5343;2.9853;6.6796;1.8514;1.9303;9.4349;0.1549;1.3524;-1.2941;0.9604;-1.691;-0.5745;37762.0;19.67;-23.85;-25.11;230.2;-14.57;-1.01;5.0;994.73;49.359;35.957054;-83.92407;788.29;NaN;;4.75;12.226105;191.0;15 / 20;134520;2022-10-11 12:52:32:978
1.8984;2.9195;7.4803;-0.2474;2.2458;9.5428;-1.2159;-2.7164;5.2168;1.1067;0.0497;0.9002;82640.0;15.38;-18.99;-34.22;223.85;-5.32;-0.26;5.0;994.7;49.564;35.957054;-83.92407;788.29;NaN;;4.75;12.226105;191.0;15 / 20;135020;2022-10-11 12:52:33:478
11.2702;2.5702;-2.0423;9.0479;3.2401;-1.9513;9.2279;1.3245;2.8878;-2.4748;-3.2192;3.3865;7529.0;-0.54;-39.77;-13.03;202.89;-38.0;-88.8;5.0;994.74;48.534;35.957047;-83.92407;789.35;NaN;;4.72;12.226105;180.7;15 / 20;135520;2022-10-11 12:52:33:978
15.8369;-0.856;2.1332;9.2151;-1.7053;-2.8886;6.4381;1.588;4.0878;0.7717;0.6177;-0.3421;13704.0;-43.43;-20.89;-1.97;208.06;10.01;-107.4;5.0;994.73;49.257;35.957047;-83.92407;789.35;NaN;;4.72;12.226105;180.7;15 / 20;136020;2022-10-11 12:52:34:478
7.617;-0.0012;-3.7576;9.2667;0.1649;-3.2049;-0.4247;-1.9272;-1.1915;-1.9307;-0.0607;1.2167;6275.0;-41.7;-21.71;1.14;222.25;-10.88;-109.05;5.0;994.77;49.793;35.957035;-83.92408;789.18;NaN;;5.22;12.226105;214.3;15 / 20;136521;2022-10-11 12:52:34:979
9.3586;-2.7784;-3.2501;9.4744;-0.7113;-2.429;4.2718;-2.0183;1.2926;1.4404;0.8749;-1.9163;10782.0;-43.84;-11.55;3.99;213.2;18.25;-116.29;5.0;994.71;52.011;35.957035;-83.92408;789.18;NaN;;5.22;12.226105;214.3;15 / 20;137020;2022-10-11 12:52:35:478
7.3176;-0.6571;-3.1041;9.1825;-0.0269;-3.4426;-1.9341;-3.5739;-0.4791;-0.4935;-0.2467;1.7805;7788.0;-37.28;-25.39;3.34;202.08;0.16;-110.55;5.0;994.74;52.388;35.957024;-83.92409;787.79;NaN;;4.75;12.226105;192.7;15 / 20;137520;2022-10-11 12:52:35:978
11.1661;-3.6679;-2.5762;9.4231;-1.6687;-2.1428;4.9777;-1.1483;2.1837;-0.3104;1.3685;-1.2163;9325.0;-41.51;-6.3;1.86;216.55;24.01;-114.82;5.0;994.74;52.741;35.957024;-83.92409;787.79;NaN;;4.75;12.226105;192.7;15 / 20;138020;2022-10-11 12:52:36:478
8.4464;-1.3346;-4.6385;9.0253;0.4311;-3.8116;-1.2267;-5.1246;-0.8663;-0.6406;0.3089;1.9624;5542.0;-35.4;-25.44;8.36;194.93;-2.52;-112.9;5.0;994.75;51.995;35.957016;-83.92409;786.51;NaN;;4.64;12.226105;196.6;15 / 20;138522;2022-10-11 12:52:36:980
11.7742;-2.7508;-3.038;9.2789;-1.3322;-2.8807;4.6851;2.173;0.3871;1.2104;0.5934;-2.6987;5893.0;-41.04;-11.31;8.7;201.04;21.9;-115.86;5.0;994.74;51.8;35.957016;-83.92409;786.51;NaN;;4.64;12.226105;196.6;15 / 20;139020;2022-10-11 12:52:37:478
13.3543;-0.8859;-3.4977;9.0188;2.0067;-3.2871;-3.3153;-5.319;-2.6351;-1.4254;-0.1507;2.7806;5910.0;-36.62;-26.06;6.17;201.43;-11.81;-110.03;5.0;994.72;52.787;35.95701;-83.924095;788.6;NaN;;4.68;12.226105;198.1;15 / 20;139520;2022-10-11 12:52:37:978
12.9018;-2.8143;2.5929;8.9414;-2.5445;-3.122;9.4335;1.7078;0.6807;2.7138;1.2982;-2.0834;8232.0;-44.02;-2.77;6.6;208.95;15.04;-109.25;5.0;994.7;52.054;35.95701;-83.924095;788.6;NaN;;4.68;12.226105;198.1;15 / 20;140020;2022-10-11 12:52:38:478
10.0875;-2.5941;-4.5488;8.9451;-0.9539;-3.9045;0.3864;-1.8659;-0.4217;-2.0252;0.1327;2.3776;6251.0;-42.45;-15.97;8.29;227.03;-5.5;-118.35;5.0;994.73;52.357;35.956997;-83.924095;788.13;NaN;;4.72;12.226105;192.3;15 / 20;140521;2022-10-11 12:52:38:979
13.1471;-3.8988;-4.282;8.7035;-2.5239;-3.7483;7.6124;0.3417;2.5782;1.9662;0.9507;-2.1148;8692.0;-46.74;-10.67;9.24;215.78;21.89;-124.42;5.0;994.72;52.313;35.956997;-83.924095;788.13;NaN;;4.72;12.226105;192.3;15 / 20;141020;2022-10-11 12:52:39:478
14.6112;-2.9961;-8.0106;8.7909;-0.4608;-4.3217;-1.7949;-3.8448;-0.2774;-0.2523;-0.0292;1.6342;6378.0;-38.23;-24.51;7.58;215.87;-14.14;-118.27;5.0;994.75;52.139;35.95699;-83.924095;787.94;NaN;;4.93;12.226105;197.3;15 / 20;141521;2022-10-11 12:52:39:979
12.4205;-1.6902;-3.5551;7.314;-2.6014;-5.9924;4.6145;4.3487;1.8749;-0.1265;0.1698;-1.5047;6355.0;-43.76;-12.15;14.74;215.15;15.38;-129.33;5.0;994.73;52.401;35.95699;-83.924095;787.94;NaN;;4.93;12.226105;197.3;15 / 20;142020;2022-10-11 12:52:40:478
5.857;-0.778;-6.1995;8.0931;1.8469;-5.2212;-0.7789;-5.657;-0.1485;0.6357;0.0329;1.6895;7563.0;-37.5;-22.42;16.63;217.57;-18.85;-123.16;5.0;994.72;52.674;35.956978;-83.9241;787.93;NaN;;4.72;12.226105;198.9;15 / 20;142521;2022-10-11 12:52:40:979
13.9205;2.8274;-4.587;7.9931;-2.4421;-5.13;7.4226;4.3827;0.498;-0.3838;0.6615;0.2598;5945.0;-38.98;-17.79;16.22;203.36;22.52;-131.38;5.0;994.77;52.563;35.956978;-83.9241;787.93;NaN;;4.72;12.226105;198.9;15 / 20;143021;2022-10-11 12:52:41:479
8.4727;-0.4908;-7.9244;7.4456;3.4097;-5.395;0.6042;-6.8534;-0.9542;-0.1125;-0.6327;1.5286;7135.0;-35.44;-23.19;15.38;224.12;-20.35;-125.93;5.0;994.72;52.741;35.956966;-83.92411;788.92;NaN;;4.9;12.226105;202.4;15 / 20;143520;2022-10-11 12:52:41:978
11.5887;2.9255;-2.8717;7.9696;-0.7118;-5.6701;7.7802;4.6782;3.9312;-0.9282;0.7058;0.6737;6395.0;-37.09;-18.73;18.45;209.34;11.83;-137.13;5.0;994.73;52.695;35.956966;-83.92411;788.92;NaN;;4.9;12.226105;202.4;15 / 20;144022;2022-10-11 12:52:42:480
8.0608;-0.1328;-4.1536;8.7933;2.9519;-3.1834;-3.4864;-5.3934;-1.0008;-0.6431;0.089;2.2201;8254.0;-36.49;-21.6;12.51;213.83;-22.09;-115.96;5.0;994.72;55.151;35.95696;-83.92411;789.61;NaN;;4.79;12.226105;200.4;15 / 20;144521;2022-10-11 12:52:42:979
17.3178;-0.3018;-4.6098;7.2374;-3.8443;-5.3863;4.6382;3.7026;2.7089;0.0475;-0.3934;0.9585;8029.0;-40.63;-14.34;9.19;213.99;18.84;-126.67;5.0;994.74;50.866;35.95696;-83.92411;789.61;NaN;;4.79;12.226105;200.4;15 / 20;145020;2022-10-11 12:52:43:478
7.0364;-0.8441;-3.7457;8.837;2.0523;-3.7238;-2.7071;-5.7981;0.057;-0.2153;0.3187;0.414;6198.0;-39.64;-15.66;10.86;217.48;-12.08;-112.85;5.0;994.74;50.748;35.956947;-83.92412;789.71;NaN;;4.43;12.226105;202.4;15 / 20;145521;2022-10-11 12:52:43:979
16.0047;-1.8434;1.1169;7.3092;-3.8707;-5.2691;4.0905;2.2975;4.7806;-2.7426;1.7855;1.1999;7028.0;-40.69;-14.7;8.29;211.3;23.25;-125.79;5.0;994.74;50.194;35.956947;-83.92412;789.71;NaN;;4.43;12.226105;202.4;15 / 20;146020;2022-10-11 12:52:44:478
7.4779;-4.8458;-4.6959;8.9574;0.8918;-3.891;-3.2932;-5.2805;-0.0252;0.7888;-0.4201;-0.7789;12293.0;-41.14;-4.73;3.09;285.63;-11.37;-108.98;5.0;994.71;49.118;35.95694;-83.924126;788.27;NaN;;4.75;12.226105;206.8;15 / 20;146520;2022-10-11 12:52:44:978
15.527;0.5602;-0.079;7.4253;-5.2405;-3.6842;2.3223;4.2686;3.0692;-0.5998;1.5533;0.7868;10654.0;-39.77;-13.76;3.58;200.22;18.84;-109.42;5.0;994.74;49.224;35.95694;-83.924126;788.27;NaN;;4.75;12.226105;206.8;15 / 20;147020;2022-10-11 12:52:45:478
6.5611;-4.847;-2.4981;9.589;2.0476;0.1681;-0.7506;-6.4204;-1.5539;0.2843;0.8424;-2.0843;16768.0;-39.02;-5.53;-4.87;297.98;-12.05;-89.0;5.0;994.69;49.933;35.956932;-83.924126;788.16;NaN;;4.64;12.226105;201.3;16 / 20;147521;2022-10-11 12:52:45:979
14.8505;0.201;-0.1723;7.1777;-5.6484;-3.5702;4.7222;5.1388;2.9523;-0.8963;-0.205;1.6797;13786.0;-39.45;-9.69;-2.57;216.08;35.17;-116.45;5.0;994.73;49.931;35.956932;-83.924126;788.16;NaN;;4.64;12.226105;201.3;16 / 20;148021;2022-10-11 12:52:46:479
6.1935;-5.6788;-2.3773;9.0605;1.8321;-3.2744;-2.5871;-6.5683;-0.0456;-0.475;-0.1611;0.3558;6519.0;-40.91;-1.88;3.9;234.32;4.38;-105.49;5.0;994.71;49.362;35.956924;-83.92413;787.97;NaN;;4.75;12.226105;214.6;16 / 20;148521;2022-10-11 12:52:46:979
14.8217;-5.2119;-3.0858;5.6257;-7.0898;-3.7757;6.8032;5.0696;0.4967;-0.0657;0.2578;1.8598;4570.0;-39.02;-15.43;12.3;191.31;33.2;-116.85;5.0;994.73;48.815;35.956924;-83.92413;787.97;NaN;;4.75;12.226105;214.6;16 / 20;149020;2022-10-11 12:52:47:478
4.8697;-7.5846;-5.8702;8.4421;-0.8036;-4.9251;-4.4463;-5.3163;0.6796;0.466;-1.2473;0.275;6533.0;-41.55;-1.95;11.14;230.74;3.13;-111.72;5.0;994.72;47.673;35.956917;-83.92414;789.98;NaN;;4.39;12.226105;214.0;16 / 20;149520;2022-10-11 12:52:47:978
10.9074;-1.215;-2.703;5.2275;-6.611;-5.0139;4.8377;2.3809;3.5457;-0.872;0.8857;1.9022;5623.0;-40.74;0.54;15.26;213.82;42.39;-133.81;5.0;994.7;46.398;35.956917;-83.92414;789.98;NaN;;4.39;12.226105;214.0;16 / 20;150020;2022-10-11 12:52:48:478
3.2596;-6.9835;-3.8342;6.1676;0.7737;-7.585;0.1507;-8.3413;2.7013;1.9466;-2.6525;-2.4736;7512.0;-39.51;9.06;11.14;315.75;1.02;-116.58;5.0;994.71;46.493;35.95691;-83.92414;789.74;NaN;;4.57;12.226105;197.9;15 / 20;150520;2022-10-11 12:52:48:978
13.092;0.2321;-4.1692;6.3487;-5.5505;-5.0056;6.7467;3.94;1.4893;-1.2267;0.6617;1.4637;6311.0;-35.78;-19.2;25.11;183.76;34.47;-128.25;5.0;994.73;46.257;35.95691;-83.92414;789.74;NaN;;4.57;12.226105;197.9;15 / 20;151021;2022-10-11 12:52:49:479
6.1409;-5.1508;-4.1824;8.4722;2.8854;-4.0083;0.9469;-8.9081;-0.8703;1.087;-0.82;-3.0221;8571.0;-41.31;4.14;8.34;326.78;-17.11;-115.32;5.0;994.7;46.728;35.9569;-83.92415;789.86;NaN;;4.9;12.609819;222.8;15 / 20;151521;2022-10-11 12:52:49:979
13.3196;-1.1719;-1.8876;5.7345;-5.443;-5.8017;6.2503;1.8081;2.0721;-1.632;0.6615;2.0726;5584.0;-38.68;-18.02;12.75;201.17;28.19;-127.26;5.0;994.71;52.209;35.9569;-83.92415;789.86;NaN;;4.9;12.609819;222.8;15 / 20;152020;2022-10-11 12:52:50:478
6.227;-5.6955;-4.1596;8.8523;1.6485;-3.8844;-2.063;-8.6944;-0.2427;1.3631;-0.8962;-3.5222;7366.0;-41.89;8.46;8.04;255.5;12.44;-107.69;5.0;994.67;54.18;35.956886;-83.92416;789.11;NaN;;5.18;12.709618;194.5;16 / 20;152521;2022-10-11 12:52:50:979
13.5338;0.6739;0.5794;6.9277;-4.5705;-5.2238;1.8374;1.393;-1.048;-2.6663;0.0883;2.6347;3370.0;-38.74;-22.65;8.87;194.29;20.45;-115.93;5.0;994.71;48.252;35.956886;-83.92416;789.11;NaN;;5.18;12.709618;194.5;16 / 20;153021;2022-10-11 12:52:51:479
5.5089;-3.2273;-3.2285;9.3613;1.03;-2.7343;-2.4225;-6.3676;-1.0606;1.2331;0.4015;-3.0649;4880.0;-42.02;2.93;3.71;312.75;-6.03;-106.28;5.0;994.68;49.218;35.95688;-83.92416;788.57;NaN;;4.79;12.892748;217.7;16 / 20;153520;2022-10-11 12:52:51:978
9.6589;-0.5255;-0.6954;8.1422;-2.7089;-4.7472;-0.3066;0.6644;-0.4457;-2.0154;-0.473;2.2889;2041.0;-39.96;-17.79;6.23;208.4;16.04;-120.24;5.0;994.7;51.808;35.95688;-83.92416;788.57;NaN;;4.79;12.892748;217.7;16 / 20;154020;2022-10-11 12:52:52:478
6.9308;-2.6121;-4.7462;9.3625;1.0674;-2.7155;-0.5335;-5.0913;-1.0396;0.6515;-0.0631;-1.9483;1567.0;-43.43;3.6;2.85;252.96;11.13;-111.62;5.0;994.68;53.375;35.956867;-83.92417;789.11;NaN;;4.54;12.988227;209.7;16 / 20;154520;2022-10-11 12:52:52:978
10.4169;-1.1073;-2.4957;7.5477;-3.448;-5.2262;3.5308;3.0288;3.5447;-0.545;-1.2438;2.4668;9232.0;-40.87;-17.19;-0.79;219.87;6.06;-113.71;5.0;994.7;52.836;35.956867;-83.92417;789.11;NaN;;4.54;12.988227;209.7;16 / 20;155020;2022-10-11 12:52:53:478
6.9811;-5.1305;-3.347;9.3584;1.8378;-2.2831;0.0892;-6.1575;-1.4234;0.6774;0.254;-2.2203;11890.0;-40.24;9.15;3.34;308.3;5.38;-103.82;5.0;994.68;52.563;35.95686;-83.92418;789.32;NaN;;4.43;12.813789;212.8;16 / 20;155520;2022-10-11 12:52:53:978
12.1167;-0.7708;-4.5619;7.8464;-4.2197;-4.0986;2.3592;2.501;1.5508;-0.6901;-0.2527;2.4969;10526.0;-41.46;-14.01;-1.44;215.29;25.49;-117.58;5.0;994.72;47.845;35.95686;-83.92418;789.32;NaN;;4.43;12.813789;212.8;16 / 20;156021;2022-10-11 12:52:54:479
5.2346;-4.4327;-3.4271;9.0107;1.5715;-3.5367;-0.065;-6.3139;-1.1833;0.1196;-0.0844;-2.4576;7344.0;-41.93;7.56;3.79;280.07;8.36;-110.98;5.0;994.7;48.709;35.956852;-83.92419;788.75;NaN;;4.61;12.867676;211.0;16 / 20;156521;2022-10-11 12:52:54:979
9.7116;-3.1232;-1.0128;8.0471;-3.7211;-4.1915;1.6831;1.4899;1.9583;-1.1885;-0.4433;2.2196;8451.0;-38.79;-16.72;3.75;206.08;22.3;-117.51;5.0;994.72;47.914;35.956852;-83.92419;788.75;NaN;;4.61;12.867676;211.0;16 / 20;157021;2022-10-11 12:52:55:479
7.3774;-3.8988;-3.6341;9.565;-0.5338;-2.0969;2.4623;-2.8222;0.6675;1.4962;0.6534;-2.5769;11539.0;-34.84;14.06;3.38;339.3;3.12;-102.37;5.0;994.66;54.916;35.956844;-83.924194;788.76;NaN;;4.57;12.49044;221.6;16 / 20;157520;2022-10-11 12:52:55:978
10.0469;-1.4031;-3.1735;7.5775;-4.143;-4.6463;0.0908;1.7055;-0.0191;-0.6322;-0.9525;1.8982;22245.0;-37.65;0.45;-5.92;246.7;14.1;-110.52;5.0;994.72;49.866;35.956844;-83.924194;788.76;NaN;;4.57;12.49044;221.6;16 / 20;158020;2022-10-11 12:52:56:478
7.2051;-3.7576;-4.4841;9.6672;-0.5983;-1.5357;-1.4086;-5.1355;-2.2505;1.8653;1.0567;-2.8095;13375.0;-33.32;17.31;1.76;295.91;19.98;-112.8;5.0;994.67;48.124;35.956837;-83.9242;787.71;NaN;;4.54;12.387552;219.4;16 / 20;158520;2022-10-11 12:52:56:978
9.9129;-1.4234;-2.0351;8.0277;-3.4128;-4.4809;2.1088;0.1209;0.0634;-0.9347;-0.9298;1.9938;31910.0;-36.98;0.39;-6.43;253.58;8.71;-107.98;5.0;994.7;47.669;35.956837;-83.9242;787.71;NaN;;4.54;12.387552;219.4;16 / 20;159020;2022-10-11 12:52:57:478
6.3443;-3.2189;-4.2843;9.5863;-1.3944;-1.5259;-1.1724;-3.4935;-2.1203;2.7413;0.7331;-2.4694;14562.0;-31.86;19.97;4.07;355.94;8.17;-99.04;5.0;994.65;46.817;35.956833;-83.92422;782.84;NaN;;5.29;12.226105;254.2;15 / 20;159520;2022-10-11 12:52:57:978
9.0185;-0.559;-3.9897;8.2947;-3.4312;-3.9491;1.4589;-0.8241;0.607;0.2141;-1.247;1.6425;29351.002;-39.62;3.41;-6.62;249.54;20.48;-115.46;5.0;994.7;45.95;35.956833;-83.92422;782.84;NaN;;5.29;12.226105;254.2;15 / 20;160021;2022-10-11 12:52:58:479
6.7071;-3.1998;-4.2197;9.3454;-1.7465;-2.4048;1.2019;-4.5336;-0.5343;1.4443;0.3479;-2.2333;12164.0;-35.29;17.29;2.72;282.05;23.06;-120.09;5.0;994.65;48.382;35.956833;-83.92423;781.81;NaN;;4.54;12.226105;259.2;15 / 20;160520;2022-10-11 12:52:58:978
8.651;-1.4016;-3.189;8.575;-3.071;-3.6344;0.7687;2.3704;0.9477;0.0748;-0.9575;1.7359;28243.002;-39.82;-4.74;-7.57;248.38;3.5;-105.19;5.0;994.72;47.675;35.956833;-83.92423;781.81;NaN;;4.54;12.226105;259.2;15 / 20;161020;2022-10-11 12:52:59:478
7.9819;-4.0161;-4.4662;9.6636;0.5007;-1.592;5.4061;-5.6787;0.0204;2.7153;0.1657;-3.0998;14172.0;-36.11;14.83;0.94;296.75;16.59;-105.63;5.0;994.67;47.414;35.95683;-83.92424;782.46;NaN;;5.0;12.226105;230.6;14 / 20;161520;2022-10-11 12:52:59:978
9.7822;-0.9829;-3.8545;8.5824;-2.659;-3.9298;3.7549;1.8449;-0.5347;0.0428;-0.7022;2.5582;21480.0;-39.94;-9.23;-5.92;231.09;15.73;-114.6;5.0;994.68;47.27;35.95683;-83.92424;782.46;NaN;;5.0;12.226105;230.6;14 / 20;162020;2022-10-11 12:53:00:478
7.2422;-3.6401;-3.4738;9.5867;0.1123;-2.062;4.8764;-1.9963;-0.1591;2.3656;0.597;-2.8344;11836.0;-39.04;13.37;2.12;281.43;15.61;-112.13;5.0;994.71;45.857;35.95682;-83.924255;783.53;NaN;;4.75;12.226105;219.7;13 / 20;162520;2022-10-11 12:53:00:978
9.6781;-1.4509;-4.6947;8.6032;-2.2356;-4.1422;3.119;0.6035;-1.507;1.062;-0.8117;2.3221;19856.0;-41.12;-7.63;-5.77;236.04;13.18;-115.71;5.0;994.69;44.688;35.95682;-83.924255;783.53;NaN;;4.75;12.226105;219.7;13 / 20;163021;2022-10-11 12:53:01:479
7.6828;-3.7481;-3.3362;9.4845;-0.3307;-2.4709;5.8557;-0.5463;-2.6312;0.0794;1.6779;-2.8274;8749.0;-40.18;10.16;3.09;320.34;1.93;-104.6;5.0;994.67;44.802;35.956818;-83.92426;782.76;NaN;;4.97;12.226105;231.9;14 / 20;163520;2022-10-11 12:53:01:978
8.8379;-0.4358;-3.4223;8.2573;-3.0734;-4.306;4.0704;-0.8933;-1.0028;-0.8287;-0.1542;1.955;9119.0;-40.44;-14.76;-0.54;222.47;6.11;-113.99;5.0;994.69;44.91;35.956818;-83.92426;782.76;NaN;;4.97;12.226105;231.9;14 / 20;164020;2022-10-11 12:53:02:478
10.2538;-3.7804;-3.2979;9.2069;-1.497;-3.027;3.3685;-4.6213;-0.8307;1.103;1.0256;-2.2603;7435.0;-39.71;11.53;1.5;264.97;21.14;-120.31;5.0;994.69;42.1;35.956806;-83.92428;782.21;NaN;;4.79;12.226105;228.4;14 / 20;164520;2022-10-11 12:53:02:978
15.0278;-2.272;-6.1469;8.8066;-2.3229;-3.6356;-0.4616;-3.5253;-1.1416;-1.1772;-0.0591;2.034;20247.0;-42.22;-5.38;-7.88;259.15;-1.46;-108.81;5.0;994.71;42.788;35.956806;-83.92428;782.21;NaN;;4.79;12.226105;228.4;14 / 20;165020;2022-10-11 12:53:03:478
14.3396;-5.4873;-1.9944;8.9221;-2.6262;-3.1096;4.3205;-2.255;1.1418;-5.0E-4;1.2732;-1.3811;7457.0;-38.79;15.26;-1.91;287.94;15.53;-109.21;5.0;994.69;43.993;35.9568;-83.924286;781.58;NaN;;4.75;12.226105;241.6;14 / 20;165521;2022-10-11 12:53:03:979
14.0282;-2.3557;-5.4933;8.9005;-1.912;-3.6464;-0.8757;-4.6133;-0.3008;-0.4098;-0.5952;2.6415;23003.0;-40.14;-4.54;-8.16;242.94;11.24;-112.28;5.0;994.7;45.312;35.9568;-83.924286;781.58;NaN;;4.75;12.226105;241.6;14 / 20;166022;2022-10-11 12:53:04:480
12.2901;-1.1958;-2.9339;8.1808;-3.5154;-4.1093;6.3124;-0.8471;1.014;1.1847;1.2366;-1.99;6283.0;-37.56;12.49;-0.32;265.42;23.27;-122.51;5.0;994.68;43.943;35.956795;-83.9243;780.83;NaN;;4.5;12.226105;238.1;15 / 20;166521;2022-10-11 12:53:04:979
7.2111;-1.9487;-2.9746;9.3117;-0.158;-3.0721;-1.0145;-1.8824;-0.0593;-0.3481;-0.4416;1.3475;16552.0;-39.04;3.43;-4.52;295.51;-7.18;-106.2;5.0;994.67;42.912;35.956795;-83.9243;780.83;NaN;;4.5;12.226105;238.1;15 / 20;167020;2022-10-11 12:53:05:478
18.0048;-4.9355;-1.7967;8.6485;-3.0302;-3.4917;3.9976;3.702;3.1753;0.2252;1.01;-1.767;5799.0;-38.18;12.17;-0.36;259.55;26.6;-121.93;5.0;994.73;43.055;35.95679;-83.92431;782.56;NaN;;4.61;12.226105;227.8;16 / 20;167522;2022-10-11 12:53:05:980
8.3435;-2.0004;-6.0595;9.5637;1.1641;-1.8307;-3.1508;-2.7568;0.8911;0.5459;-0.142;0.1327;22377.0;-38.62;-4.33;-6.94;271.69;-6.82;-100.84;5.0;994.7;42.417;35.95679;-83.92431;782.56;NaN;;4.61;12.226105;227.8;16 / 20;168021;2022-10-11 12:53:06:479
12.5821;-1.264;-1.9717;7.5891;-4.2383;-4.5402;3.4124;5.718;0.4684;0.4725;-0.3304;-0.786;3123.0;-41.25;-6.75;-0.06;222.93;28.13;-121.05;5.0;994.7;42.753;35.956783;-83.92432;783.64;NaN;;4.68;12.226105;220.9;16 / 20;168520;2022-10-11 12:53:06:978
4.9893;-0.0562;-4.215;9.4426;2.6457;0.0915;-4.9155;-4.7239;-2.4202;-0.8161;-0.4707;0.4967;4619.0;-38.62;-13.48;4.56;110.49;-15.65;-89.44;5.0;994.66;46.575;35.956783;-83.92432;783.64;NaN;;4.68;12.226105;220.9;16 / 20;169022;2022-10-11 12:53:07:480
11.4329;0.2838;1.8936;8.3967;-3.0081;-4.0764;4.1482;-4.183;1.8549;-1.8899;-0.413;1.6426;1227.0;-35.85;-19.29;-5.79;217.81;17.86;-115.9;5.0;994.72;45.024;35.95677;-83.92433;784.64;NaN;;4.97;12.226105;202.9;15 / 20;169520;2022-10-11 12:53:07:978
7.9077;-5.0169;-2.3163;9.411;-0.8621;-2.6191;-3.1379;-1.7888;-2.2966;-0.0094;-0.3471;-0.2234;873.0;-40.76;0.45;0.68;236.35;7.84;-102.97;5.0;994.71;44.996;35.95677;-83.92433;784.64;NaN;;4.97;12.226105;202.9;15 / 20;170020;2022-10-11 12:53:08:478
11.1051;-1.9741;-2.8011;8.3716;-3.5265;-3.6947;0.0412;2.5418;0.6627;-0.4618;-0.3473;1.242;754.0;-41.72;-10.91;0.34;213.14;13.97;-108.39;5.0;994.7;45.337;35.95676;-83.92434;784.01;NaN;;4.39;12.226105;201.5;15 / 20;170520;2022-10-11 12:53:08:978
4.4064;-4.3585;-4.3047;8.9757;0.6481;-3.897;-3.0088;-5.0439;0.2405;0.7002;-0.6452;-0.2434;677.0;-41.21;-3.19;-0.62;261.95;-1.97;-105.11;5.0;994.7;44.579;35.95676;-83.92434;784.01;NaN;;4.39;12.226105;201.5;15 / 20;171020;2022-10-11 12:53:09:478
11.4652;-1.014;-2.2971;7.9336;-3.9099;-4.2357;0.8176;3.4395;2.3913;-0.4549;-0.2408;1.0147;678.0;-40.8;-8.96;4.46;213.97;23.5;-118.1;5.0;994.71;44.587;35.956753;-83.92434;784.54;NaN;;4.57;12.226105;207.8;15 / 20;171520;2022-10-11 12:53:09:978
5.4634;-4.1477;-5.3219;8.3294;1.6194;-4.9162;-3.3664;-5.3492;0.8954;0.1509;-0.482;-0.5;654.0;-39.17;-7.74;3.66;263.01;-9.5;-120.55;5.0;994.69;41.6;35.956753;-83.92434;784.54;NaN;;4.57;12.226105;207.8;15 / 20;172020;2022-10-11 12:53:10:478
15.1881;-4.4806;-2.473;6.9701;-3.9298;-5.6696;2.941;4.4008;2.7452;-0.5159;0.9214;0.3845;710.0;-38.89;-13.41;9.64;209.82;18.78;-124.76;5.0;994.73;51.122;35.95674;-83.92435;784.97;NaN;;4.79;12.226105;209.1;15 / 20;172520;2022-10-11 12:53:10:978
8.4942;-4.9092;-4.9295;9.1307;1.6914;-3.1529;-4.9463;-5.5974;-0.1147;0.6627;-0.2243;-0.5333;717.0;-39.36;-1.86;2.4;285.93;-6.79;-105.95;5.0;994.7;43.602;35.95674;-83.92435;784.97;NaN;;4.79;12.226105;209.1;15 / 20;173020;2022-10-11 12:53:11:478
11.5576;-2.4766;-2.4622;7.4371;-4.4234;-4.6145;0.2998;3.6642;2.501;-0.2467;0.176;0.7509;655.0;-41.02;-8.85;4.93;215.38;23.53;-120.63;5.0;994.73;43.145;35.95673;-83.924355;785.19;NaN;;4.75;12.226105;210.0;13 / 20;173520;2022-10-11 12:53:11:978
6.7394;-5.9626;-3.8055;9.5711;1.4414;-1.5767;-3.1813;-6.3727;-1.6279;0.566;0.087;-1.6349;469.0;-39.06;-6.23;-1.56;267.75;-8.45;-99.35;5.0;994.73;42.676;35.95673;-83.924355;785.19;NaN;;4.75;12.226105;210.0;13 / 20;174020;2022-10-11 12:53:12:478
9.9045;-1.3705;-1.5993;7.4555;-4.2798;-4.719;-1.271;3.4836;1.1682;-1.5438;0.2794;1.787;684.0;-38.85;-14.36;-1.59;217.56;20.37;-116.5;5.0;994.74;41.991;35.956715;-83.92436;785.1;NaN;;4.68;12.226105;216.4;13 / 20;174520;2022-10-11 12:53:12:978
4.981;-2.3581;-4.386;9.4648;0.8993;-2.4038;-4.3384;-3.9308;-1.6262;0.9882;0.3208;-2.2104;1218.0;-38.03;7.84;-1.42;317.64;-5.26;-104.25;5.0;994.66;45.103;35.956715;-83.92436;785.1;NaN;;4.68;12.226105;216.4;13 / 20;175021;2022-10-11 12:53:13:479
8.7517;-1.0415;-2.2828;7.2726;-3.7576;-5.3999;0.392;1.0632;2.5258;-0.8169;-0.895;1.8081;2252.0;-39.54;-3.34;-2.85;240.75;14.22;-116.2;5.0;994.7;50.998;35.956703;-83.92437;786.85;NaN;;4.68;12.226105;207.8;13 / 20;175522;2022-10-11 12:53:13:980
4.5799;-3.9311;-5.7326;9.3012;1.5206;-2.7103;-2.4731;-5.338;-1.896;-0.3638;-0.0108;-1.1589;9462.0;-34.95;15.47;2.81;333.36;1.77;-106.37;5.0;994.65;42.444;35.956703;-83.92437;786.85;NaN;;4.68;12.226105;207.8;13 / 20;176021;2022-10-11 12:53:14:479
9.7391;-0.382;-2.5463;7.5385;-4.3687;-4.5006;2.1123;3.6615;2.7927;-0.2813;-0.619;1.5609;18096.0;-40.65;1.14;-4.26;244.62;17.59;-114.57;5.0;994.71;43.583;35.956696;-83.92438;786.07;NaN;;4.72;12.226105;205.5;14 / 20;176521;2022-10-11 12:53:14:979
7.3403;-4.8099;-3.0799;9.2731;0.1886;-3.1851;-3.0638;-3.2451;-0.8553;0.2393;-0.1968;-1.0837;19561.0;-34.78;15.13;0.17;317.54;6.37;-107.02;5.0;994.66;43.403;35.956696;-83.92438;786.07;NaN;;4.72;12.226105;205.5;14 / 20;177021;2022-10-11 12:53:15:479
11.9249;-1.215;-2.15;7.9237;-4.4206;-3.7206;1.51;4.0423;0.3909;-0.2614;-0.1897;2.1617;18938.0;-39.54;-0.17;-2.61;231.39;26.79;-115.15;5.0;994.69;44.275;35.956688;-83.924385;785.1;NaN;;4.97;12.226105;227.7;14 / 20;177521;2022-10-11 12:53:15:979
6.2198;-4.532;-3.0739;9.4511;0.7631;-2.5028;-2.4139;-4.1946;0.2215;0.8707;-0.4183;-1.4997;24735.0;-36.0;9.38;-5.04;309.5;-4.46;-104.83;5.0;994.67;42.686;35.956688;-83.924385;785.1;NaN;;4.97;12.226105;227.7;14 / 20;178021;2022-10-11 12:53:16:479
14.0857;0.827;-2.4957;7.6495;-5.191;-3.2724;2.4532;3.3476;2.0085;-1.1964;-0.2255;1.1024;20962.0;-39.36;-1.69;-5.29;230.76;19.02;-107.58;5.0;994.7;44.768;35.95668;-83.9244;786.17;NaN;;4.72;12.226105;239.0;14 / 20;178520;2022-10-11 12:53:16:978
5.6201;-4.0101;-3.2836;9.6334;1.4407;-1.1372;-3.532;-5.8901;-2.0661;1.5722;-0.0407;-2.098;36858.0;-31.93;18.43;-3.51;334.26;6.85;-95.05;5.0;994.69;43.533;35.95668;-83.9244;786.17;NaN;;4.72;12.226105;239.0;14 / 20;179020;2022-10-11 12:53:17:478
13.6199;-1.2245;-1.0008;5.9601;-6.1604;-4.7642;2.9274;2.1595;2.3536;-0.542;-1.005;2.0935;28792.0;-38.18;0.04;-7.27;236.34;27.28;-114.11;5.0;994.73;43.113;35.956673;-83.92441;785.93;NaN;;4.97;12.226105;221.7;14 / 20;179520;2022-10-11 12:53:17:978
5.9267;-5.8522;-2.8537;9.6125;0.7564;-1.7883;-2.6995;-7.2548;-1.5701;0.7164;-0.0316;-2.5532;28178.0;-33.39;13.8;-2.44;334.04;-4.42;-100.54;5.0;994.7;44.428;35.956673;-83.92441;785.93;NaN;;4.97;12.226105;221.7;14 / 20;180021;2022-10-11 12:53:18:479
16.2882;-5.9542;-0.5375;7.0992;-5.2086;-4.3176;2.7172;2.9347;1.7705;-0.7634;-0.1396;1.3558;20469.0;-39.88;-3.19;-5.38;230.67;24.68;-114.1;5.0;994.71;48.019;35.956665;-83.924416;785.48;NaN;;4.79;12.226105;230.8;14 / 20;180521;2022-10-11 12:53:18:979
8.5995;-8.0991;-4.1788;9.5924;0.7808;-1.8833;-3.9998;-6.0943;-1.1379;0.3356;3.0E-4;-1.58;31176.0;-36.32;11.06;-2.66;324.27;-4.57;-101.11;5.0;994.69;47.928;35.956665;-83.924416;785.48;NaN;;4.79;12.226105;230.8;14 / 20;181020;2022-10-11 12:53:19:478
14.4951;-3.6511;-2.1153;6.2087;-5.6491;-5.0705;3.4079;2.3125;3.0975;-0.8908;-0.6135;0.9622;15605.0;-38.01;5.23;-2.77;245.93;35.17;-129.24;5.0;994.72;52.427;35.956657;-83.92443;785.04;NaN;;5.04;12.226105;218.7;14 / 20;181520;2022-10-11 12:53:19:978
14.1945;-3.3087;-8.8953;9.1425;2.5502;-2.466;-5.3136;-5.8881;-1.9539;0.5406;-0.8126;-0.2923;32104.998;-35.18;6.08;-2.53;328.37;-12.07;-98.29;5.0;994.68;45.165;35.956657;-83.92443;785.04;NaN;;5.04;12.226105;218.7;14 / 20;182022;2022-10-11 12:53:20:480
11.9501;4.7354;-0.3042;6.7384;-1.2833;-7.0084;3.0656;5.8264;8.6847;-1.0875;-1.352;0.855;12650.0;-38.98;-10.82;1.46;233.8;9.15;-125.54;5.0;994.72;47.063;35.956654;-83.924446;785.92;NaN;;5.87;12.226105;253.4;14 / 20;182520;2022-10-11 12:53:20:978
4.7474;-3.8486;-6.5599;6.773;4.2376;-5.6868;-1.8785;-8.8808;0.3088;1.2184;-0.6628;-0.794;14039.0;-38.08;-1.8;8.93;325.13;-24.77;-117.82;5.0;994.69;43.596;35.956654;-83.924446;785.92;NaN;;5.87;12.226105;253.4;14 / 20;183020;2022-10-11 12:53:21:478
17.7751;-0.7828;-4.0723;7.392;-3.6858;-5.2862;3.7475;7.5799;2.0888;-0.1098;-0.3868;1.9079;10110.0;-36.84;-14.96;8.19;209.11;22.08;-125.57;5.0;994.75;45.568;35.95665;-83.92446;786.7;NaN;;5.15;12.226105;229.4;14 / 20;183520;2022-10-11 12:53:21:978
7.1058;-7.3403;-3.9179;8.2768;3.3885;-4.0229;-0.5395;-7.023;-1.2203;-0.6536;-0.1762;-0.7203;16073.0;-39.04;-6.77;4.52;296.68;-20.21;-115.92;5.0;994.74;44.272;35.95665;-83.92446;786.7;NaN;;5.15;12.226105;229.4;14 / 20;184021;2022-10-11 12:53:22:479
18.1041;2.1368;0.1543;6.1201;-4.7556;-6.0083;9.0359;5.5885;3.2452;1.2959;0.9647;-1.8112;13271.0;-36.82;3.09;5.14;242.01;29.01;-134.47;5.0;994.7;46.698;35.95664;-83.92447;787.53;NaN;;4.82;12.226105;242.0;15 / 20;184521;2022-10-11 12:53:22:979
6.1217;-7.9878;-4.0268;8.9607;2.6579;-2.9684;-3.6461;-7.332;0.1264;0.1678;-0.2534;-0.0447;22352.0;-36.0;1.01;1.71;324.35;-15.76;-105.29;5.0;994.73;45.765;35.95664;-83.92447;787.53;NaN;;4.82;12.226105;242.0;15 / 20;185021;2022-10-11 12:53:23:479
19.439;-3.044;-0.2862;7.0928;-4.8522;-4.7242;9.4254;7.2612;5.6173;0.7414;1.2415;-2.1039;11065.0;-36.04;5.53;4.29;247.55;37.42;-141.81;5.0;994.71;50.396;35.95664;-83.924484;788.52;NaN;;4.79;12.339944;246.4;15 / 20;185522;2022-10-11 12:53:23:980
10.0002;-5.1461;-4.0914;8.6586;2.9654;-3.5221;-5.6126;-7.7655;1.0379;0.035;-0.4791;-0.1783;19268.0;-37.33;-4.86;0.11;291.88;-17.6;-112.14;5.0;994.7;43.261;35.95664;-83.924484;788.52;NaN;;4.79;12.339944;246.4;15 / 20;186022;2022-10-11 12:53:24:480
20.0949;-4.3561;-1.6567;7.6548;-4.5495;-4.108;7.2674;7.2875;2.3658;-0.2409;1.3425;-1.5402;10512.0;-37.93;-0.26;1.71;231.33;37.37;-130.19;5.0;994.71;45.446;35.95663;-83.9245;789.19;NaN;;4.9;12.719887;233.3;16 / 20;186521;2022-10-11 12:53:24:979
8.6785;-5.4909;-3.9012;9.2603;0.9121;-3.0961;-1.0479;-4.3196;0.2758;0.193;-0.1495;0.6443;20116.0;-38.27;-0.53;-1.03;280.15;-5.34;-108.49;5.0;994.75;49.42;35.95663;-83.9245;789.19;NaN;;4.9;12.719887;233.3;16 / 20;187020;2022-10-11 12:53:25:478
15.0864;-0.7062;-4.9953;6.3942;-6.3308;-3.8994;4.5945;5.0682;0.1018;-0.9936;1.0182;0.597;9942.0;-39.71;3.53;2.14;225.6;38.87;-121.68;5.0;994.7;48.134;35.956623;-83.924515;789.4;NaN;;4.72;13.105709;232.1;16 / 20;187520;2022-10-11 12:53:25:978
7.8993;-5.0815;-0.9996;9.0168;1.311;-3.6261;-3.5624;-8.7315;0.5356;-1.371;0.3601;2.1421;15563.0;-37.99;-5.91;0.08;283.87;-16.53;-115.36;5.0;994.72;50.055;35.956623;-83.924515;789.4;NaN;;4.72;13.105709;232.1;16 / 20;188020;2022-10-11 12:53:26:478
13.1327;-4.8936;0.0562;7.9113;-5.0875;-2.7745;8.1432;2.9625;-0.0508;0.9991;-0.3165;0.5073;12298.0;-37.59;-6.19;-0.96;213.51;27.02;-110.35;5.0;994.71;55.315;35.956615;-83.92452;788.57;NaN;;4.68;13.403746;217.1;16 / 20;188521;2022-10-11 12:53:26:979
12.891;-5.1233;-2.7401;9.1195;-2.303;-2.775;-1.7247;-6.271;-1.5397;0.1583;-0.2316;2.1613;18002.0;-32.38;-2.98;-9.58;260.91;-0.2;-105.42;5.0;994.69;53.856;35.956615;-83.92452;788.57;NaN;;4.68;13.403746;217.1;16 / 20;189020;2022-10-11 12:53:27:478
14.1838;-0.7792;0.1496;7.8978;-4.2201;-3.9981;7.4669;2.7343;3.1705;-1.2105;0.8474;0.0443;10026.0;-36.13;6.53;-3.51;251.26;25.49;-116.85;5.0;994.67;52.03;35.956608;-83.92452;782.96;NaN;;4.43;13.032339;220.0;16 / 20;189521;2022-10-11 12:53:27:979
9.6075;-4.471;-3.5348;9.1692;-0.9365;-3.3494;-2.6211;-6.0464;-0.7553;-0.2388;-0.0026;2.8828;22519.0;-40.09;-8.34;-5.48;238.28;5.48;-110.07;5.0;994.74;48.354;35.956608;-83.92452;782.96;NaN;;4.43;13.032339;220.0;16 / 20;190020;2022-10-11 12:53:28:478
18.7469;-6.0715;-0.4621;6.2159;-5.1615;-5.5581;10.8896;1.5633;5.9514;2.7797;1.1663;-3.7728;8947.0;-34.24;17.64;3.94;271.63;31.76;-131.8;5.0;994.71;45.468;35.956604;-83.92454;782.02;NaN;;4.9;12.463804;247.8;16 / 20;190520;2022-10-11 12:53:28:978
9.2761;-4.9223;-1.8087;9.1163;1.0938;-3.445;-1.9764;-3.866;1.0035;-0.9396;0.0477;2.707;18221.0;-37.01;-3.43;-0.62;300.22;-20.16;-112.61;5.0;994.71;46.32;35.956604;-83.92454;782.02;NaN;;4.9;12.463804;247.8;16 / 20;191021;2022-10-11 12:53:29:479
15.3245;-3.0945;0.1831;9.2759;-1.8058;-2.6206;9.2581;4.2378;2.257;1.7345;0.9552;-2.813;8287.0;-38.29;9.34;0.32;249.97;26.53;-119.21;5.0;994.68;43.272;35.9566;-83.924545;783.79;NaN;;4.54;12.226105;251.2;16 / 20;191521;2022-10-11 12:53:29:979
9.6039;-3.6715;-4.0244;9.2474;-0.7821;-3.1692;1.3235;-2.4777;0.6241;-0.2634;0.4935;2.7202;20160.0;-41.02;-9.9;-3.54;232.81;4.57;-108.92;5.0;994.71;47.821;35.9566;-83.924545;783.79;NaN;;4.54;12.226105;251.2;16 / 20;192022;2022-10-11 12:53:30:480
18.2154;-7.8239;-4.1692;9.6051;-0.9452;-1.7375;8.1672;1.2092;-2.0709;-0.6559;1.7995;-4.0738;7092.0;-36.62;12.58;-1.2;238.04;35.53;-111.83;5.0;994.75;48.869;35.956596;-83.92456;784.06;NaN;;4.5;12.226105;245.4;15 / 20;192520;2022-10-11 12:53:30:978
11.123;-1.5706;-2.5666;9.3147;-0.5607;-3.0155;4.1206;-2.7646;0.5803;-1.3591;0.6896;3.4426;17290.0;-39.54;-13.69;-4.05;225.08;3.28;-107.94;5.0;994.72;50.655;35.956596;-83.92456;784.06;NaN;;4.5;12.226105;245.4;15 / 20;193020;2022-10-11 12:53:31:478
8.6991;-4.7378;-5.0827;9.3322;-1.1601;-2.781;8.3557;1.4714;1.3022;2.2863;0.0969;-3.3151;7224.0;-38.76;12.81;-0.21;259.48;26.33;-118.88;5.0;994.67;46.133;35.956593;-83.92457;784.36;NaN;;4.25;12.226105;241.0;15 / 20;193521;2022-10-11 12:53:31:979
8.8104;-1.2006;-2.3665;8.0641;-4.2371;-3.6315;-0.7809;1.1672;-1.4868;-0.8384;-0.0166;2.871;19734.0;-41.19;-8.94;-4.16;231.08;7.62;-109.1;5.0;994.74;45.493;35.956593;-83.92457;784.36;NaN;;4.25;12.226105;241.0;15 / 20;194020;2022-10-11 12:53:32:478
7.4013;-5.4108;-2.8944;9.5015;-0.0198;-2.4274;-0.6809;-7.4525;0.5335;0.6767;0.1609;-3.5609;7618.0;-38.68;10.07;-2.32;247.69;25.02;-109.75;5.0;994.78;47.274;35.95659;-83.92458;783.56;NaN;;4.54;12.226105;237.8;16 / 20;194521;2022-10-11 12:53:32:979
11.889;2.4778;-2.0112;7.8951;-3.9343;-4.2848;1.942;1.0024;-0.0799;-0.3334;-0.3163;2.5614;15885.0;-39.51;-16.8;-1.91;219.25;6.62;-112.58;5.0;994.73;48.558;35.95659;-83.92458;783.56;NaN;;4.54;12.226105;237.8;16 / 20;195022;2022-10-11 12:53:33:480
7.1022;-4.1237;-3.7349;9.3919;-0.7545;-2.719;-2.531;-3.6038;-0.259;1.5212;-0.0655;-2.6227;7733.0;-40.41;7.22;-0.49;289.88;4.41;-106.15;5.0;994.74;43.332;35.956585;-83.9246;782.58;NaN;;4.82;12.226105;244.6;16 / 20;195520;2022-10-11 12:53:33:978
11.5744;1.8015;-2.8418;7.303;-3.7122;-5.3903;-1.0592;1.6384;-0.3367;-0.7269;-0.6547;2.0789;12271.0;-41.68;-9.11;2.38;227.25;22.24;-126.43;5.0;994.75;55.161;35.956585;-83.9246;782.58;NaN;;4.82;12.226105;244.6;16 / 20;196020;2022-10-11 12:53:34:478
5.3653;-4.5559;-4.0639;8.7217;2.4324;-3.7663;-2.9071;-6.8595;-1.0778;-0.2165;-0.2526;-0.5637;12797.0;-40.63;2.61;4.31;270.16;4.27;-110.53;5.0;994.74;42.013;35.956577;-83.92461;779.41;NaN;;4.72;12.226105;239.2;16 / 20;196521;2022-10-11 12:53:34:979
11.7515;-0.0849;0.5698;6.5453;-5.0401;-5.2845;5.0899;4.3341;4.5351;-1.7573;0.0337;2.4455;9970.0;-38.79;-11.19;2.79;213.06;22.38;-117.78;5.0;994.76;43.1;35.956577;-83.92461;779.41;NaN;;4.72;12.226105;239.2;16 / 20;197021;2022-10-11 12:53:35:479
4.0902;-4.9427;-3.0715;8.3356;3.3746;-3.9117;-0.6554;-9.8989;-0.4795;0.5521;-0.6669;-2.1793;11281.0;-34.87;11.27;3.19;332.61;-5.09;-106.82;5.0;994.71;43.546;35.956573;-83.92462;780.24;NaN;;4.75;12.226105;244.7;16 / 20;197520;2022-10-11 12:53:35:978
14.458;-2.2911;-1.6651;5.8771;-6.4259;-4.5097;9.438;3.7661;1.5907;-1.8899;0.6642;4.5149;10520.0;-37.87;-10.99;3.6;213.94;40.94;-127.5;5.0;994.77;45.859;35.956573;-83.92462;780.24;NaN;;4.75;12.226105;244.7;16 / 20;198021;2022-10-11 12:53:36:479
8.2513;-8.2442;-2.9279;9.2001;1.779;-2.892;1.1988;-9.2427;0.1582;2.2846;-1.2574;-3.3528;11268.0;-33.6;20.53;1.41;343.5;11.5;-98.61;5.0;994.69;46.017;35.956566;-83.92464;780.45;NaN;;4.97;12.226105;230.0;16 / 20;198521;2022-10-11 12:53:36:979
12.5007;-0.4418;-6.2617;7.5781;-5.7828;-2.3024;7.7028;2.7574;2.5099;-2.2142;2.0881;3.9551;7463.0;-38.83;-17.46;6.11;188.66;36.13;-106.9;5.0;994.74;45.56;35.956566;-83.92464;780.45;NaN;;4.97;12.226105;230.0;16 / 20;199021;2022-10-11 12:53:37:479
6.6305;-6.9356;-2.2373;9.3937;0.3556;-2.7933;-0.1905;-7.8746;1.9734;1.145;-1.699;-2.6295;9907.0;-38.94;9.08;-6.54;257.96;17.44;-98.31;5.0;994.77;44.383;35.956554;-83.924644;778.75;NaN;;4.93;12.226105;221.8;16 / 20;199520;2022-10-11 12:53:37:978
13.9744;3.8282;1.6998;7.7776;-5.5798;-2.1319;7.8429;3.7338;1.4649;-1.3566;-0.2036;1.3037;10572.0;-40.93;-7.31;-2.34;204.55;34.68;-105.33;5.0;994.77;43.764;35.956554;-83.924644;778.75;NaN;;4.93;12.226105;221.8;16 / 20;200020;2022-10-11 12:53:38:478
1.9944;-5.5196;-2.971;8.415;4.2077;-2.7666;-3.2219;-10.0457;-0.1795;2.3691;-1.5545;-3.1101;2395.0;-37.91;7.73;-7.27;325.71;-3.6;-90.11;5.0;994.75;49.153;35.956547;-83.92466;778.81;NaN;;4.86;12.226105;233.6;16 / 20;200521;2022-10-11 12:53:38:979
14.7894;0.0718;4.9881;7.014;-3.3534;-5.9773;5.9416;2.4128;2.2057;-3.4795;-0.2879;2.3424;1325.0;-36.07;-20.76;-0.43;207.3;20.18;-116.25;5.0;994.77;47.259;35.956547;-83.92466;778.81;NaN;;4.86;12.226105;233.6;16 / 20;201021;2022-10-11 12:53:39:479
2.5161;-5.6883;-2.3916;9.1295;2.3708;-2.6838;-6.6198;-8.7144;-6.1449;2.4308;-0.4077;-2.5269;918.0;-37.61;8.48;2.36;332.24;-13.99;-106.38;5.0;994.69;49.54;35.95654;-83.924675;778.21;NaN;;4.79;12.226105;241.0;16 / 20;201520;2022-10-11 12:53:39:978
13.5063;1.6328;-1.2401;4.2971;-6.5926;-5.8518;7.0197;4.6904;0.6026;-0.988;-0.6143;1.5935;825.0;-38.23;4.29;-1.91;250.81;42.24;-143.71;5.0;994.8;46.198;35.95654;-83.924675;778.21;NaN;;4.79;12.226105;241.0;16 / 20;202021;2022-10-11 12:53:40:479
2.8525;-4.8625;-3.6488;9.6751;1.6006;0.0215;-4.0706;-8.2225;-4.7645;0.355;-1.0289;-0.1359;859.0;-31.63;19.99;-2.08;347.79;13.03;-91.18;5.0;994.73;42.684;35.95653;-83.92468;777.38;NaN;;4.54;12.226105;235.3;16 / 20;202520;2022-10-11 12:53:40:978
13.2491;1.1815;10.4121;6.5725;-3.6436;-6.3006;6.821;4.2234;16.5272;-2.5646;-0.9854;0.4277;960.0;-36.75;0.17;-7.41;238.52;29.44;-118.05;5.0;994.75;45.776;35.95653;-83.92468;777.38;NaN;;4.54;12.226105;235.3;16 / 20;203020;2022-10-11 12:53:41:478
2.2229;-5.8546;-3.8486;7.4491;3.3928;-5.401;-2.9515;-9.3911;0.7601;-0.0563;-0.7465;-0.191;740.0;-33.32;3.41;1.71;313.48;-18.54;-116.94;5.0;994.77;42.49;35.956524;-83.92469;777.58;NaN;;4.57;12.226105;239.1;16 / 20;203521;2022-10-11 12:53:41:979
18.3915;-7.0747;5.3303;4.9429;-6.6249;-5.2772;11.5384;7.1516;4.1131;-2.3492;1.2322;3.7361;556.0;-34.54;-3.32;3.75;228.27;42.5;-136.87;5.0;994.78;47.072;35.956524;-83.92469;777.58;NaN;;4.57;12.226105;239.1;16 / 20;204020;2022-10-11 12:53:42:478
4.6098;-8.9599;-4.7486;8.0162;2.8144;-4.898;-3.3112;-9.9886;0.7917;-0.1958;-0.447;-0.3212;571.0;-32.14;11.03;-0.66;318.22;-11.94;-115.85;5.0;994.79;43.45;35.95652;-83.924706;776.76;NaN;;4.64;12.226105;244.9;16 / 20;204520;2022-10-11 12:53:42:978
17.4266;-3.9861;-3.7983;6.5832;-5.1923;-5.0865;3.5514;8.7034;-2.716;0.1769;0.3497;0.2471;565.0;-35.55;-8.04;4.99;217.55;31.97;-127.69;5.0;994.8;46.946;35.95652;-83.924706;776.76;NaN;;4.64;12.226105;244.9;16 / 20;205021;2022-10-11 12:53:43:479
6.0835;-8.1772;-5.1329;8.3531;0.8323;-5.0698;-4.3924;-5.717;1.0387;0.0434;-0.3861;0.5433;459.0;-37.24;-8.27;5.53;258.97;-8.91;-118.62;5.0;994.79;48.778;35.956512;-83.92472;776.05;NaN;;5.26;12.226105;241.3;16 / 20;205521;2022-10-11 12:53:43:979
15.6885;-1.6472;0.2201;6.8829;-4.5942;-5.262;7.8053;1.7724;7.0403;-0.0365;1.844;-0.0371;405.0;-32.4;10.67;6.86;259.88;29.68;-138.85;5.0;994.78;51.533;35.956512;-83.92472;776.05;NaN;;5.26;12.226105;241.3;16 / 20;206020;2022-10-11 12:53:44:478
4.981;-5.9064;0.76;9.1251;2.6029;-2.4753;-4.7576;-10.2622;-0.8237;0.0621;-1.0103;-1.0251;530.0;-30.21;14.76;1.65;354.7;-7.95;-97.17;5.0;994.79;54.99;35.956505;-83.92473;774.9;NaN;;4.0;12.226105;248.6;16 / 20;206521;2022-10-11 12:53:44:979
15.2743;0.3365;-1.5096;7.5838;-5.0583;-3.6152;9.4609;7.0493;4.0041;0.2885;1.6573;-1.606;502.0;-35.36;9.83;-4.35;254.78;42.32;-134.67;5.0;994.74;53.519;35.956505;-83.92473;774.9;NaN;;4.0;12.226105;248.6;16 / 20;207020;2022-10-11 12:53:45:478
3.4403;-5.6177;-2.7413;8.9144;1.8236;-3.6575;-4.8496;-7.4192;0.7028;-0.47;-0.5669;0.1766;429.0;-37.69;3.84;-4.52;297.97;-10.72;-112.31;5.0;994.76;44.247;35.9565;-83.92474;775.68;NaN;;4.93;12.226105;242.2;16 / 20;207520;2022-10-11 12:53:45:978
16.931;-4.3633;1.2628;7.0689;-5.0598;-4.5386;8.0147;3.6158;5.514;0.3693;1.3159;-0.8669;427.0;-32.21;22.44;2.64;285.58;31.06;-122.7;5.0;994.71;41.28;35.9565;-83.92474;775.68;NaN;;4.93;12.226105;242.2;16 / 20;208020;2022-10-11 12:53:46:478
10.6717;-7.6684;-6.6772;8.8654;1.2334;-4.0067;-4.6216;-7.373;0.024;0.8835;-0.2017;3.0524;505.0;-34.14;11.68;0.96;329.0;-9.26;-109.23;5.0;994.79;43.34;35.956497;-83.92475;775.39;NaN;;4.54;12.226105;245.2;16 / 20;208521;2022-10-11 12:53:46:979
19.1791;-6.463;-2.2816;6.2892;-5.8207;-4.7681;6.8685;4.5194;4.8164;0.454;0.6878;-0.534;409.0;-34.54;16.43;3.13;260.01;38.14;-135.07;5.0;994.7;49.102;35.956497;-83.92475;775.39;NaN;;4.54;12.226105;245.2;16 / 20;209020;2022-10-11 12:53:47:478
9.629;-6.0236;-3.9132;8.9612;-0.49;-3.9531;-4.7608;-8.6807;1.3956;0.0454;1.0074;3.1102;569.0;-37.56;0.24;1.24;300.38;-17.46;-118.62;5.0;994.76;47.512;35.95649;-83.92477;774.37;NaN;;4.86;12.226105;249.3;16 / 20;209521;2022-10-11 12:53:47:979
14.3611;-6.9452;-2.9267;6.3356;-6.0718;-4.3777;6.5278;1.1127;1.9342;0.9722;0.2995;-0.5711;544.0;-37.65;15.79;5.19;243.94;38.25;-124.64;5.0;994.72;42.054;35.95649;-83.92477;774.37;NaN;;4.86;12.226105;249.3;16 / 20;210021;2022-10-11 12:53:48:479
9.6218;-3.5037;-4.034;8.5707;0.3722;-4.7514;-2.0564;-8.8298;-2.1059;-0.7519;-0.6622;2.5111;492.0;-40.84;6.75;-0.39;312.72;-12.02;-112.87;5.0;994.76;41.101;35.956486;-83.92478;774.59;NaN;;4.82;12.226105;253.4;16 / 20;210520;2022-10-11 12:53:48:978
16.3983;-3.6823;-1.5586;5.2598;-6.5237;-5.0937;9.1663;2.2199;4.2541;-3.0728;3.0589;1.6283;450.0;-39.37;7.74;6.96;234.26;41.7;-134.08;5.0;994.74;41.023;35.956486;-83.92478;774.59;NaN;;4.82;12.226105;253.4;16 / 20;211020;2022-10-11 12:53:49:478
12.4528;-7.1943;-3.4786;8.9719;-0.6911;-3.8984;-6.7994;-8.4063;0.3975;-1.0267;0.1684;3.1092;436.0;-39.62;-4.97;2.12;283.04;-12.93;-114.67;5.0;994.78;44.226;35.95648;-83.9248;774.31;NaN;;4.5;12.226105;256.9;16 / 20;211520;2022-10-11 12:53:49:978
15.9302;-13.0023;-4.1919;3.7914;-7.8248;-4.5352;11.354;1.6293;2.7885;0.55;-0.7843;-4.7133;428.0;-31.93;20.81;4.31;254.33;52.93;-140.1;5.0;994.78;42.706;35.95648;-83.9248;774.31;NaN;;4.5;12.226105;256.9;16 / 20;212020;2022-10-11 12:53:50:478
2.9387;2.5355;4.9678;3.3815;5.307;7.5214;0.1678;-3.1429;-4.0774;1.7985;1.1379;-0.3978;510.0;-26.81;2.06;-6.58;55.88;-21.9;-41.7;5.0;994.74;42.255;35.956474;-83.92481;772.7;NaN;;4.61;12.226105;254.8;16 / 20;212521;2022-10-11 12:53:50:979
-1.3178;7.6564;4.7581;0.882;7.8437;5.8197;0.2501;0.1714;2.0749;1.0296;0.3215;-1.4186;3096.0;13.52;-25.57;-23.83;252.69;-42.77;-17.56;5.0;994.73;42.048;35.956474;-83.92481;772.7;NaN;;4.61;12.226105;254.8;16 / 20;213020;2022-10-11 12:53:51:478
0.4083;7.8838;3.4774;0.7543;7.7991;5.8971;0.3816;1.1137;0.8777;-0.7401;0.0529;-0.2049;5705.0;21.73;-31.35;-13.56;247.1;-52.68;-7.29;5.0;994.75;42.434;35.95647;-83.92483;774.29;NaN;;5.11;12.226105;237.9;16 / 20;213520;2022-10-11 12:53:51:978
-0.3389;5.8451;7.9424;0.3538;6.7417;7.113;-0.7937;1.997;1.0076;-0.4636;0.2862;0.1526;5213.0;23.16;-28.91;-17.91;248.32;-43.43;-2.85;5.0;994.71;42.34;35.95647;-83.92483;774.29;NaN;;5.11;12.226105;237.9;16 / 20;214020;2022-10-11 12:53:52:478
5.4311;5.7075;6.6317;2.2043;5.7189;7.6554;0.5041;0.3806;-1.7602;-1.8059;-1.1149;-0.3198;4469.0;22.09;-28.09;-20.78;251.78;-44.08;-9.75;5.0;994.73;44.264;35.956463;-83.92484;775.18;NaN;;4.82;12.226105;247.4;16 / 20;214520;2022-10-11 12:53:52:978
4.721;3.518;8.4643;3.8774;4.5855;7.753;-2.7946;-1.4019;7.4008;3.0974;0.3346;0.1954;12724.0;9.49;-9.75;-35.74;262.07;-13.04;-25.66;5.0;994.69;47.219;35.956463;-83.92484;775.18;NaN;;4.82;12.226105;247.4;16 / 20;215020;2022-10-11 12:53:53:478
6.3838;6.9284;3.1184;6.0977;6.1879;4.5496;2.7087;2.0557;-3.1825;-0.411;-0.9819;0.4096;4532.0;4.86;-26.51;-29.59;253.38;-47.6;-53.83;5.0;994.75;44.958;35.956455;-83.92486;773.05;NaN;;3.96;12.226105;246.7;16 / 20;215520;2022-10-11 12:53:53:978
5.8968;4.2556;3.9969;6.5706;4.8872;5.3956;3.6946;-0.2272;1.9425;1.3801;0.8215;0.0125;25347.0;-9.86;-18.13;-35.06;268.11;-29.89;-50.61;5.0;994.7;44.978;35.956455;-83.92486;773.05;NaN;;3.96;12.226105;246.7;16 / 20;216020;2022-10-11 12:53:54:478
12.1729;1.4976;3.4199;8.8461;1.5546;3.9369;0.233;-1.1454;-3.622;-3.1578;-0.996;1.1033;140111.0;-6.26;-19.67;-34.87;256.95;-28.8;-57.99;5.0;994.75;43.742;35.95645;-83.924866;773.41;NaN;;4.82;12.226105;250.9;16 / 20;216521;2022-10-11 12:53:54:979
7.6241;-1.2317;1.3035;8.3636;-1.945;4.7369;5.9618;-4.8581;5.0775;2.1038;0.8963;1.1935;23291.0;-24.58;14.7;-24.15;313.2;11.44;-60.47;5.0;994.72;44.25;35.95645;-83.924866;773.41;NaN;;4.82;12.226105;250.9;16 / 20;217021;2022-10-11 12:53:55:479
12.0915;-2.9351;-1.5455;9.1637;-2.7576;-2.1431;1.4673;-3.9493;-2.0849;-0.7368;-1.8965;2.5811;123329.0;-25.29;2.34;-27.09;278.91;-3.75;-84.07;5.0;994.76;44.892;35.956448;-83.92488;773.44;NaN;;4.68;12.226105;249.7;16 / 20;217520;2022-10-11 12:53:55:978
16.3768;-10.7076;-0.0538;9.8011;-0.2284;0.2397;7.9321;-2.7952;3.2097;5.1933;0.2979;-3.9997;6161.0;-29.79;22.28;-1.67;304.29;26.39;-106.72;5.0;994.67;43.797;35.956448;-83.92488;773.44;NaN;;4.68;12.226105;249.7;16 / 20;218021;2022-10-11 12:53:56:479
2.5196;5.4658;5.9351;2.8408;5.1136;7.8709;0.1678;0.5532;-2.7195;-1.0474;0.4358;-0.4196;93440.0;-13.44;-8.49;-21.36;25.47;-35.46;-23.27;5.0;994.75;44.601;35.956444;-83.9249;772.72;NaN;;4.46;12.226105;251.4;16 / 20;218520;2022-10-11 12:53:56:978
1.2305;6.3024;5.5184;0.5483;7.1231;6.718;-2.384;1.3786;0.0453;-0.2085;0.0674;0.9948;57123.0;20.14;-23.27;-28.2;288.92;-49.5;1.16;5.0;994.76;44.149;35.956444;-83.9249;772.72;NaN;;4.46;12.226105;251.4;16 / 20;219021;2022-10-11 12:53:57:479
4.4207;5.3868;10.5449;2.0133;5.4732;7.8842;-2.7023;-0.652;-1.1386;-1.9406;-0.6268;1.3662;25965.0;24.68;-29.34;-20.18;240.21;-33.93;-14.32;5.0;994.77;46.661;35.95644;-83.92491;774.34;NaN;;4.82;12.226105;247.4;16 / 20;219521;2022-10-11 12:53:57:979
1.561;2.3426;7.3152;4.4502;3.179;8.14;2.6108;3.857;-0.41;-0.4654;-0.1457;-0.3518;84468.0;11.1;-24.64;-32.66;237.92;-18.92;-28.67;5.0;994.75;44.072;35.95644;-83.92491;774.34;NaN;;4.82;12.226105;247.4;16 / 20;220020;2022-10-11 12:53:58:478
8.802;-0.3293;1.5347;9.6813;0.1354;-1.5573;7.8869;-1.8842;3.0522;-3.6337;-0.7325;1.8154;56331.0;-13.27;-23.44;-26.78;236.74;-18.77;-83.71;5.0;994.75;45.927;35.956436;-83.92493;773.79;NaN;;4.61;12.226105;243.3;16 / 20;220521;2022-10-11 12:53:58:979
11.7359;-4.8266;-2.7221;9.794;-0.4967;0.0289;6.4303;-6.5538;0.1752;3.4572;2.2286;-1.7169;7902.0;-38.61;14.57;-1.05;289.1;14.76;-112.03;5.0;994.72;46.817;35.956436;-83.92493;773.79;NaN;;4.61;12.226105;243.3;16 / 20;221021;2022-10-11 12:53:59:479
14.9931;-4.5368;-5.0803;8.9153;-2.382;-3.3186;0.0379;-4.5014;-1.2475;-1.8064;0.37;3.5654;10724.0;-37.89;-16.09;-1.76;238.65;-7.75;-116.39;5.0;994.77;46.232;35.956432;-83.92494;772.06;NaN;;2.88;12.226105;240.2;16 / 20;221520;2022-10-11 12:53:59:978
12.1202;-6.7837;-1.8649;9.1647;-2.9188;-1.9126;9.8847;-4.9438;-0.1391;0.9677;1.8745;-2.1247;5668.0;-36.37;18.36;-1.5;309.03;17.32;-101.79;5.0;994.72;45.281;35.956432;-83.92494;772.06;NaN;;2.88;12.226105;240.2;16 / 20;222020;2022-10-11 12:54:00:478
18.8836;-5.9363;-5.6249;9.085;-2.3145;-2.8768;-5.4834;-7.7687;0.5048;-0.2724;0.5683;5.2514;29596.998;-33.92;-7.86;-10.05;279.12;-23.45;-112.8;5.0;994.77;45.435;35.956432;-83.92495;772.54;NaN;;3.64;12.226105;248.9;16 / 20;222520;2022-10-11 12:54:00:978
19.8362;-9.253;-1.5335;8.0759;-4.4766;-3.303;9.7816;0.4274;4.0674;1.8431;-0.4461;-1.755;4610.0;-35.03;13.95;-6.09;266.06;27.16;-112.24;5.0;994.78;43.583;35.956432;-83.92495;772.54;NaN;;3.64;12.226105;248.9;16 / 20;223020;2022-10-11 12:54:01:478
16.8844;-0.3305;-1.2389;9.6687;-0.0726;-1.6376;-4.3157;-8.9378;-0.6242;-2.3927;1.192;4.2556;21980.0;-34.05;-17.27;-9.24;262.39;-25.94;-110.29;5.0;994.8;42.759;35.956425;-83.924965;774.81;NaN;;4.64;12.226105;248.2;16 / 20;223520;2022-10-11 12:54:01:978
11.0859;-6.6485;-0.4119;8.0627;-4.3237;-3.5312;9.6226;-0.4252;3.6388;3.5186;1.5516;-2.8811;7027.0;-34.65;16.11;-9.19;274.66;26.16;-113.65;5.0;994.74;43.679;35.956425;-83.924965;774.81;NaN;;4.64;12.226105;248.2;16 / 20;224021;2022-10-11 12:54:02:479
11.3216;-4.1058;-4.4782;9.4818;-1.1895;-2.2024;4.7;-3.4051;0.4003;-1.7919;1.149;4.1267;19828.0;-34.33;-3.99;-9.79;284.6;-19.28;-110.67;5.0;994.78;45.064;35.956425;-83.92499;774.95;NaN;;4.25;12.226105;250.8;16 / 20;224520;2022-10-11 12:54:02:978
9.6745;-8.4356;-2.3426;9.742;-0.9935;-0.5255;10.0959;0.5182;2.5151;3.5854;0.9007;-4.372;5251.0;-30.97;20.34;-6.43;276.61;33.84;-113.13;5.0;994.73;44.851;35.956425;-83.92499;774.95;NaN;;4.25;12.226105;250.8;16 / 20;225020;2022-10-11 12:54:03:478
12.0796;-4.5894;-4.7919;9.4272;-0.7484;-2.5957;3.7169;-3.5015;-0.736;-0.8803;1.1287;3.6397;25014.0;-35.49;-11.83;-10.07;232.86;4.38;-105.39;5.0;994.78;44.728;35.95642;-83.925;773.44;NaN;;4.9;12.226105;250.9;16 / 20;225521;2022-10-11 12:54:03:979
12.0434;-10.9508;-1.7201;9.6876;-1.0192;-1.1321;9.3572;-2.64;3.2202;5.0954;0.4142;-4.4591;8349.0;-27.49;26.25;1.18;354.7;5.97;-96.67;5.0;994.73;43.722;35.95642;-83.925;773.44;NaN;;4.9;12.226105;250.9;16 / 20;226020;2022-10-11 12:54:04:478
12.3727;-3.7361;-5.4179;8.4934;-1.7804;-4.5676;6.2436;-1.1429;-3.8731;-2.9559;1.3824;4.8377;14855.0;-35.14;-8.34;-3.75;283.44;-24.74;-118.42;5.0;994.78;47.255;35.956417;-83.92502;773.27;NaN;;4.79;12.226105;252.5;16 / 20;226520;2022-10-11 12:54:04:978
10.8631;-6.6628;-2.4706;9.7787;0.6802;-0.2919;9.7623;-2.2563;0.6418;2.5755;1.2075;-4.0006;6958.0;-34.43;19.2;-3.41;287.77;24.44;-108.24;5.0;994.72;54.06;35.956417;-83.92502;773.27;NaN;;4.79;12.226105;252.5;16 / 20;227020;2022-10-11 12:54:05:478
-0.6846;3.9108;12.6864;-0.4089;0.2556;9.7948;4.4588;1.6391;-0.1467;-0.6562;1.6097;0.6441;121448.0;-12.06;-16.71;-28.95;185.52;-17.35;-23.69;5.0;994.85;45.337;35.95641;-83.925026;773.71;NaN;;5.08;12.226105;241.2;16 / 20;227521;2022-10-11 12:54:05:979
0.1962;-0.2827;9.3311;-2.638;-1.9342;9.245;3.0586;1.0447;-0.1227;-1.2708;1.2964;0.6763;63060.0;34.2;9.06;-30.09;273.03;11.38;15.93;5.0;994.79;44.586;35.95641;-83.925026;773.71;NaN;;5.08;12.226105;241.2;16 / 20;228020;2022-10-11 12:54:06:478
-3.4343;-0.5255;6.6999;-0.6062;-1.6845;9.6418;0.2405;0.4573;1.7878;-0.9057;0.3765;-0.8199;45781.0;36.86;12.08;-26.17;285.73;3.83;2.09;5.0;994.77;45.523;35.9564;-83.92504;773.97;NaN;;5.04;12.226105;233.5;16 / 20;228520;2022-10-11 12:54:06:978
-1.5191;-2.7102;9.3933;-2.4055;-1.9937;9.2956;1.6712;0.4404;-0.8977;-0.0784;-0.0216;0.3847;24289.0;30.77;21.58;-27.58;302.14;11.73;14.51;5.0;994.82;44.776;35.9564;-83.92504;773.97;NaN;;5.04;12.226105;233.5;16 / 20;229020;2022-10-11 12:54:07:478
-4.2544;0.6978;7.0122;-2.0567;0.7428;9.5597;-1.7097;-0.4897;-3.0121;1.3859;-0.9553;-0.5191;9912.0;41.31;15.81;-20.7;294.81;3.16;21.52;5.0;994.82;46.048;35.95639;-83.92506;775.71;NaN;;4.93;12.226105;237.7;16 / 20;229521;2022-10-11 12:54:07:979
4.7234;0.7074;1.337;4.882;0.6374;8.4812;-2.6694;-0.8749;-1.0634;2.3558;-3.4377;0.3652;108448.0;16.86;6.79;-38.14;284.28;-3.73;-29.93;5.0;994.83;44.477;35.95639;-83.92506;775.71;NaN;;4.93;12.226105;237.7;16 / 20;230020;2022-10-11 12:54:08:478
9.1525;-0.9817;1.5311;8.992;-2.8528;-2.6789;-0.5034;1.8106;5.1118;-1.0408;-1.0892;0.7736;30392.0;-22.8;-1.5;-28.24;259.92;11.93;-94.38;5.0;994.83;46.149;35.956387;-83.92507;775.97;NaN;;4.93;12.226105;245.4;16 / 20;230521;2022-10-11 12:54:08:979
5.8331;-3.8354;-3.6126;9.3969;2.7588;-0.5074;0.0559;-6.4654;-1.626;2.65;-0.3984;-2.0916;16312.0;-34.99;19.11;-9.08;339.47;1.13;-86.51;5.0;994.8;43.865;35.956387;-83.92507;775.97;NaN;;4.93;12.226105;245.4;16 / 20;231020;2022-10-11 12:54:09:478
11.8783;-1.148;5.9447;8.8894;-2.7597;-3.0877;2.5489;0.2746;5.6405;-4.3654;-0.1263;2.2268;42146.0;-36.3;-5.32;-15.02;243.45;16.34;-109.15;5.0;994.84;45.627;35.956383;-83.92509;776.1;NaN;;4.61;12.226105;247.4;16 / 20;231520;2022-10-11 12:54:09:978
6.4618;-4.0807;-3.6281;8.9566;3.6057;-1.7171;1.386;-9.7098;-1.1394;3.6418;-1.389;-2.3927;27584.0;-32.62;12.0;-7.65;328.01;-21.57;-100.85;5.0;994.82;44.999;35.956383;-83.92509;776.1;NaN;;4.61;12.226105;247.4;16 / 20;232020;2022-10-11 12:54:10:478
11.5911;1.27;0.874;7.9194;-3.9993;-4.1784;4.8693;2.8345;5.1249;-1.653;-0.7696;1.4011;10893.0;-35.76;-14.19;-11.53;227.42;9.76;-104.92;5.0;994.85;46.096;35.956375;-83.9251;779.3;NaN;;5.47;12.226105;242.5;15 / 20;232521;2022-10-11 12:54:10:979
5.6704;-4.0591;-3.7875;9.4568;2.5954;0.0592;1.1873;-7.2089;-2.6701;1.934;0.3936;-2.5593;22043.0;-34.39;20.33;-6.58;336.29;4.97;-90.78;5.0;994.83;46.194;35.956375;-83.9251;779.3;NaN;;5.47;12.226105;242.5;15 / 20;233021;2022-10-11 12:54:11:479
12.338;0.6739;-1.264;6.5811;-3.978;-6.0857;2.4204;3.1255;2.3908;-0.9632;-1.4168;2.1212;46202.0;-37.65;-3.92;-14.94;248.04;15.51;-113.25;5.0;994.83;47.429;35.956367;-83.92512;780.12;NaN;;4.93;12.226105;241.3;15 / 20;233520;2022-10-11 12:54:11:978
6.0045;-2.6025;-5.3916;8.875;3.8632;-1.5751;-1.6589;-7.8272;-4.222;1.637;0.6677;-3.3911;8158.0;-37.14;12.88;-2.44;342.13;-23.2;-100.06;5.0;994.83;45.489;35.956367;-83.92512;780.12;NaN;;4.93;12.226105;241.3;15 / 20;234021;2022-10-11 12:54:12:479
12.5964;1.6196;-2.1153;6.4526;-3.8524;-6.3003;3.5754;2.4857;2.2057;-1.1943;-1.0217;2.4803;4474.0;-40.05;-8.74;-9.56;242.15;13.59;-121.47;5.0;994.85;43.928;35.956364;-83.92513;780.34;NaN;;5.22;12.226105;246.2;15 / 20;234521;2022-10-11 12:54:12:979
3.6535;-5.9638;-5.5914;9.3562;2.9066;0.4292;-1.7154;-9.0794;-3.1482;2.9586;0.613;-3.1412;15260.0;-33.21;20.04;-4.86;353.14;-17.24;-87.37;5.0;994.83;44.492;35.956364;-83.92513;780.34;NaN;;5.22;12.226105;246.2;15 / 20;235021;2022-10-11 12:54:13:479
11.2594;-0.9936;2.9076;7.1744;-4.6976;-4.7573;7.7654;5.1937;2.9061;-1.0499;0.6661;1.0136;1628.0;-33.75;3.92;-13.13;255.83;27.89;-120.19;5.0;994.88;44.803;35.95636;-83.925156;779.59;NaN;;5.15;12.226105;247.5;16 / 20;235521;2022-10-11 12:54:13:979
7.0161;-5.8714;-4.4782;9.5517;2.0157;0.9343;-3.0108;-8.7017;-2.922;0.9921;-0.057;-0.6857;33013.0;-29.47;15.28;-13.44;334.14;-11.86;-84.41;5.0;994.84;44.529;35.95636;-83.925156;779.59;NaN;;5.15;12.226105;247.5;16 / 20;236020;2022-10-11 12:54:14:478
12.1932;-0.3317;0.1424;6.4323;-5.8742;-4.5043;6.9277;4.1064;6.0225;-0.5999;-1.5695;1.9266;62129.996;-33.04;-3.28;-19.8;245.46;24.91;-107.99;5.0;994.85;43.847;35.95636;-83.925156;779.59;NaN;;5.15;12.226105;247.5;16 / 20;236520;2022-10-11 12:54:14:978
-1.1815;-7.9268;-4.0448;9.0512;3.5987;-1.1385;1.2491;-12.5844;-1.2367;2.0896;-0.5142;-2.5516;858.0;-28.41;25.88;-7.84;346.29;-2.49;-87.23;5.0;994.82;46.294;35.95636;-83.925156;779.59;NaN;;5.15;12.226105;247.5;16 / 20;237020;2022-10-11 12:54:15:478
15.3018;1.7704;4.5356;6.893;-5.7174;-3.996;5.3446;3.8193;4.4251;-1.3279;-1.0513;2.6257;872.0;-36.32;-2.32;-13.91;242.52;35.66;-120.1;5.0;994.86;45.352;35.95635;-83.92518;779.91;NaN;;5.04;12.226105;241.8;0 / 20;237520;2022-10-11 12:54:15:978
0.1507;-6.7789;-3.8773;8.1521;4.2677;-3.3913;0.6056;-10.1086;-0.0858;2.3952;-1.8222;-2.3237;640.0;-33.75;6.68;-12.41;306.65;-25.8;-112.59;5.0;994.8;46.403;35.95635;-83.92518;779.91;NaN;;5.04;12.226105;241.8;0 / 20;238021;2022-10-11 12:54:16:479
14.155;-1.6938;6.4184;8.9611;-2.2246;-3.3047;2.6283;0.5253;7.2593;-0.938;-1.8406;0.7494;702.0;-37.12;-14.12;-7.16;230.05;2.8;-108.89;5.0;994.87;46.936;35.956345;-83.925186;780.46;NaN;;4.97;12.226105;241.2;16 / 20;238520;2022-10-11 12:54:16:978
1.774;-5.3892;-4.6828;8.6498;4.006;-2.3031;0.1535;-8.2415;-2.414;3.0588;-1.2796;-2.6989;1349.0;-32.48;20.91;-4.05;349.94;-5.81;-90.5;5.0;994.83;46.343;35.956345;-83.925186;780.46;NaN;;4.97;12.226105;241.2;16 / 20;239020;2022-10-11 12:54:17:478
14.8217;-0.2874;3.2847;7.0733;-4.3439;-5.222;4.0516;3.2157;4.9252;-2.059;0.2291;1.8009;1259.0;-37.95;0.02;-9.51;247.89;21.71;-117.58;5.0;994.87;45.627;35.956337;-83.9252;780.92;NaN;;4.72;12.226105;243.2;16 / 20;239521;2022-10-11 12:54:17:979
6.5145;-4.4172;-2.2672;9.1422;2.8449;-2.1205;-2.634;-7.5558;-1.3202;1.7147;-0.3444;-2.4873;941.0;-32.91;15.51;-7.27;329.44;-16.86;-103.06;5.0;994.85;45.27;35.956337;-83.9252;780.92;NaN;;4.72;12.226105;243.2;16 / 20;240020;2022-10-11 12:54:18:478
13.456;0.2142;0.577;5.9813;-6.4715;-4.3029;7.6868;3.5367;1.2132;-2.5372;0.8492;2.034;974.0;-38.94;-3.47;-13.31;232.54;35.21;-112.09;5.0;994.86;45.973;35.95633;-83.92522;780.23;NaN;;4.86;12.226105;243.9;16 / 20;240520;2022-10-11 12:54:18:978
6.1158;-4.8015;-3.2668;9.4605;2.2629;-1.2445;-2.7825;-9.7052;-0.3657;2.6309;-0.8766;-3.1937;659.0;-29.55;24.11;-10.46;335.19;-13.34;-97.49;5.0;994.83;45.689;35.95633;-83.92522;780.23;NaN;;4.86;12.226105;243.9;16 / 20;241020;2022-10-11 12:54:19:478
11.9465;1.0164;2.2588;7.4186;-2.3816;-5.955;4.0439;3.1298;1.8008;-3.0106;-0.936;1.5136;859.0;-38.96;-1.35;-9.19;247.83;16.94;-115.3;5.0;994.86;46.439;35.956326;-83.92523;784.85;NaN;;4.97;12.226105;255.3;15 / 20;241520;2022-10-11 12:54:19:978
6.1409;-4.5284;-3.894;9.0384;3.5191;-1.4467;-1.3051;-8.773;-2.2386;0.154;-0.275;-0.4961;813.0;-35.46;8.4;-6.79;327.42;-21.03;-99.09;5.0;994.86;44.978;35.956326;-83.92523;784.85;NaN;;4.97;12.226105;255.3;15 / 20;242021;2022-10-11 12:54:20:479
18.6535;-1.3418;0.644;6.0517;-5.7045;-5.1967;7.3445;10.0625;5.396;0.7382;-2.665;1.201;911.0;-36.82;-5.94;-13.86;235.22;27.29;-112.03;5.0;994.86;45.5;35.95632;-83.92525;785.07;NaN;;5.36;12.226105;253.2;15 / 20;242521;2022-10-11 12:54:20:979
5.4275;-5.7721;-2.4849;7.9507;4.98;-2.856;-1.0904;-10.1229;-0.0878;0.7395;-0.307;-0.9145;518.0;-35.68;8.66;-10.59;320.37;-24.16;-101.59;5.0;994.84;45.491;35.95632;-83.92525;785.07;NaN;;5.36;12.226105;253.2;15 / 20;243020;2022-10-11 12:54:21:478
15.3509;-3.3613;6.4977;6.1274;-5.4738;-5.3538;8.4917;1.785;8.657;-4.2996;0.9981;3.9959;637.0;-34.39;-4.39;-8.16;242.67;33.93;-131.15;5.0;994.9;44.977;35.956318;-83.92526;783.28;NaN;;5.29;12.226105;235.0;15 / 20;243521;2022-10-11 12:54:21:979
1.5443;-8.0333;-2.8298;8.7406;3.9898;-1.9631;-1.8231;-9.2096;-1.5838;-0.1289;0.0557;-1.9464;663.0;-31.78;6.86;-7.99;321.13;-24.01;-102.66;5.0;994.85;45.582;35.956318;-83.92526;783.28;NaN;;5.29;12.226105;235.0;15 / 20;244021;2022-10-11 12:54:22:479
