ACCELEROMETER X (m/s²);ACCELEROMETER Y (m/s²);ACCELEROMETER Z (m/s²);GRAVITY X (m/s²);GRAVITY Y (m/s²);GRAVITY Z (m/s²);LINEAR ACCELERATION X (m/s²);LINEAR ACCELERATION Y (m/s²);LINEAR ACCELERATION Z (m/s²);GYROSCOPE X (rad/s);GYROSCOPE Y (rad/s);GYROSCOPE Z (rad/s);LIGHT (lux);MAGNETIC FIELD X (μT);MAGNETIC FIELD Y (μT);MAGNETIC FIELD Z (μT);ORIENTATION Z (azimuth °);ORIENTATION X (pitch °);ORIENTATION Y (roll °);PROXIMITY (i);ATMOSPHERIC PRESSURE (hPa);SOUND LEVEL (dB);LOCATION Latitude : ;LOCATION Longitude : ;LOCATION Altitude ( m);LOCATION Altitude-google ( m);LOCATION Altitude-atmospheric pressure ( m);LOCATION Speed ( Kmh);LOCATION Accuracy ( m);LOCATION ORIENTATION (°);Satellites in range;Time since start in ms ;YYYY-MO-DD HH-MI-SS_SSS
-4.2664;3.3829;7.5858;-4.312;3.0389;8.2669;0.1583;0.509;-0.826;-0.1241;-0.3861;-0.1255;0.0;11.21;-25.52;-25.37;173.66;-18.05;27.55;5.0;986.58;59.548;35.958504;-83.924805;872.22;NaN;;0.0;39.0793;;8 / 16;19;2022-10-26 19:12:12:418
-2.1715;2.9172;9.1143;-2.816;1.883;9.203;0.4272;1.4172;-0.1968;0.0149;-0.2114;-0.4842;0.0;7.52;-22.78;-29.83;171.66;-12.85;19.14;5.0;986.59;58.133;35.95849;-83.92485;862.2;NaN;;0.0;30.506912;;9 / 16;519;2022-10-26 19:12:12:918
-3.5133;0.6775;12.0541;-1.9027;1.528;9.4982;-0.2697;-0.3037;-2.3359;-2.2379;0.1392;1.205;0.0;6.75;-19.8;-33.02;181.51;-8.96;11.33;5.0;986.6;55.48;35.95849;-83.92485;862.2;NaN;;0.0;30.506912;;9 / 16;1019;2022-10-26 19:12:13:418
-2.5834;2.9997;5.5448;-4.8465;2.7498;8.0697;1.1686;-0.7125;-3.8004;0.1303;-0.6619;1.208;0.0;9.38;-18.17;-32.44;138.43;-12.02;32.75;5.0;986.57;56.403;35.9585;-83.924866;836.73;NaN;;2.84;25.567738;130.2;9 / 16;1520;2022-10-26 19:12:13:919
-2.1272;-0.9505;4.9283;0.7089;1.4597;9.6715;0.6872;-0.01;-1.7738;-2.0686;0.6234;0.778;0.0;6.92;-20.74;-31.76;210.08;-8.56;-4.19;5.0;986.62;58.892;35.9585;-83.924866;836.73;NaN;;2.84;25.567738;130.2;9 / 16;2019;2022-10-26 19:12:14:418
5.6548;0.6667;0.6284;3.442;1.6797;9.0278;1.0503;-2.9708;-4.6173;1.2702;1.582;1.5529;0.0;-4.29;-13.37;-36.68;228.16;-3.46;-25.18;5.0;986.59;57.113;35.958508;-83.92489;818.06;NaN;;4.39;23.350393;152.9;10 / 16;2519;2022-10-26 19:12:14:918
10.6202;1.124;0.5997;9.2717;-2.3888;-2.121;-0.0251;-1.2261;7.2823;0.5844;-2.358;0.4335;0.0;-38.53;-13.42;-11.79;223.87;14.1;-102.89;5.0;986.64;58.669;35.958508;-83.92489;818.06;NaN;;4.39;23.350393;152.9;10 / 16;3019;2022-10-26 19:12:15:418
7.6995;-4.2341;-2.7832;9.6944;1.3431;-0.621;0.0491;-5.9231;-1.4495;2.1573;-0.3013;-2.0243;0.0;-46.52;-3.51;4.43;203.7;10.74;-101.63;5.0;986.6;60.735;35.958508;-83.92489;818.06;NaN;;4.39;23.350393;152.9;10 / 16;3519;2022-10-26 19:12:15:918
10.3807;0.1998;-2.0291;9.2801;-0.6362;-3.1057;0.6237;-0.2987;-2.3894;-1.2132;0.2251;2.3073;0.0;-36.47;-22.56;11.61;180.1;3.72;-108.5;5.0;986.61;59.874;35.958508;-83.92489;818.06;NaN;;4.39;23.350393;152.9;10 / 16;4019;2022-10-26 19:12:16:418
6.6592;-4.1309;-2.4419;9.691;0.3928;-1.4491;-0.4503;-3.8623;-0.0892;1.4666;0.098;-2.5057;0.0;-43.8;-5.01;11.94;120.69;-2.3;-98.5;5.0;986.62;61.564;35.958527;-83.92487;797.43;NaN;;5.04;24.334164;141.8;10 / 16;4519;2022-10-26 19:12:16:918
10.8739;-0.0526;-3.1962;8.8465;-3.2248;-2.7405;0.3287;1.7068;0.3179;-0.8744;0.26;2.1515;0.0;-38.59;-17.61;11.46;181.95;19.2;-107.21;5.0;986.61;59.018;35.958527;-83.92487;797.43;NaN;;5.04;24.334164;141.8;10 / 16;5018;2022-10-26 19:12:17:417
7.3511;-3.9574;-3.384;9.674;-0.1535;-1.6;0.6548;-3.0456;0.3163;1.5785;0.4926;-2.7326;0.0;-43.93;-1.86;12.38;200.02;21.66;-113.76;5.0;986.6;62.262;35.95852;-83.924866;793.12;NaN;;4.54;22.833128;141.5;10 / 16;5520;2022-10-26 19:12:17:919
9.9894;-1.1563;-2.0028;8.8095;-2.6343;-3.4094;1.0378;1.6811;0.7805;-1.4939;0.0788;2.4603;0.0;-37.69;-18.81;8.64;186.48;1.4;-106.65;5.0;986.61;59.269;35.95852;-83.924866;793.12;NaN;;4.54;22.833128;141.5;10 / 16;6020;2022-10-26 19:12:18:419
8.2585;-3.8557;-2.5618;9.1392;-1.6268;-3.1622;4.8093;-1.2301;0.9091;1.1579;1.3785;-2.9271;0.0;-43.27;-1.78;12.39;196.2;9.55;-109.09;5.0;986.61;62.975;35.958508;-83.924866;796.34;NaN;;4.68;21.58304;148.3;10 / 16;6520;2022-10-26 19:12:18:919
9.7953;-1.8386;-1.427;9.2533;-1.0369;-3.0774;-0.8666;-0.4767;0.2855;-0.2177;-1.0086;2.42;0.0;-37.63;-19.52;10.97;183.69;6.07;-108.4;5.0;986.58;61.067;35.958508;-83.924866;796.34;NaN;;4.68;21.58304;148.3;10 / 16;7018;2022-10-26 19:12:19:417
9.1777;-3.8031;-2.2959;9.4707;-0.6396;-2.4631;-0.3438;-3.0838;0.3087;1.715;0.2905;-2.7993;0.0;-43.01;-0.81;15.56;182.22;20.13;-111.22;5.0;986.58;61.205;35.958496;-83.924866;792.45;NaN;;4.46;20.782207;142.1;10 / 16;7520;2022-10-26 19:12:19:919
7.2015;-1.0259;-2.8729;9.1982;-1.0849;-3.2229;-0.9919;-0.895;-0.6172;0.3357;-0.1385;1.6383;0.0;-37.84;-15.3;18.41;167.25;6.35;-109.31;5.0;986.6;60.24;35.958496;-83.924866;792.45;NaN;;4.46;20.782207;142.1;10 / 16;8019;2022-10-26 19:12:20:418
13.5111;-4.0699;6.4774;9.8056;0.1287;0.0609;4.6758;-4.048;0.6756;-0.7535;2.5328;-3.3495;0.0;-40.76;0.13;18.32;169.48;24.59;-109.29;5.0;986.6;60.679;35.958485;-83.92486;793.68;NaN;;5.22;19.17006;134.6;11 / 16;8519;2022-10-26 19:12:20:918
0.9697;5.3653;5.0348;0.7536;4.4088;8.7273;1.4111;-1.207;-3.9575;-0.295;0.4697;-0.1819;0.0;-10.22;-24.77;-22.5;146.28;-26.72;-4.94;5.0;986.58;63.362;35.958485;-83.92486;793.68;NaN;;5.22;19.17006;134.6;11 / 16;9019;2022-10-26 19:12:21:418
0.0;2.4108;8.3375;1.3823;4.0285;8.8335;0.0156;-0.2537;0.9145;0.6708;0.7825;0.8783;0.0;-2.38;-25.33;-25.13;184.17;-23.48;-6.73;5.0;986.49;60.945;35.958473;-83.92485;797.35;NaN;;4.61;18.008467;132.8;10 / 16;9519;2022-10-26 19:12:21:918
0.128;0.0766;9.1418;-2.0441;0.4583;9.5803;6.2193;0.8254;1.7843;-2.4156;1.2448;0.4264;0.0;-11.19;-24.51;-24.49;147.25;-18.03;-1.27;5.0;986.56;60.621;35.958473;-83.92485;797.35;NaN;;4.61;18.008467;132.8;10 / 16;10018;2022-10-26 19:12:22:417
-18.807;-6.7262;-11.8077;-5.372;-5.2503;-6.3044;-4.8193;-6.876;-1.0297;5.9845;-1.4984;-5.1987;2.0;12.45;-14.53;-18.6;115.23;-23.24;78.59;5.0;986.54;64.034;35.958466;-83.92484;796.55;NaN;;4.18;18.71754;123.1;11 / 16;10518;2022-10-26 19:12:22:917
-13.3484;2.2289;4.8039;-9.5566;-1.3024;1.7734;2.9773;-6.5751;2.088;4.3887;1.9928;1.9058;0.0;36.88;8.78;-0.24;301.2;7.63;79.49;5.0;986.54;63.137;35.958466;-83.92484;796.55;NaN;;4.18;18.71754;123.1;11 / 16;11020;2022-10-26 19:12:23:419
-9.015;-20.9399;-11.6318;-7.8577;-5.6019;-1.745;-4.3505;-0.6698;2.269;2.0007;6.5217;3.1992;0.0;40.86;0.38;1.95;163.3;34.84;102.52;0.0;986.54;58.323;35.958454;-83.92484;795.0;NaN;;2.63;19.532896;128.5;11 / 16;11519;2022-10-26 19:12:23:918
1.561;-9.9021;0.2512;-6.9181;-6.9358;-0.4526;-0.5494;-1.6548;0.148;-1.1481;-2.7632;1.8148;0.0;39.41;7.44;10.69;183.82;49.59;103.27;0.0;986.59;61.748;35.958454;-83.92484;795.0;NaN;;2.63;19.532896;128.5;11 / 16;12018;2022-10-26 19:12:24:417
1.5024;-8.6653;2.7425;-1.0103;-9.4678;-2.3474;-6.4231;-7.121;-8.887;-3.2715;1.2835;-0.2437;0.0;31.54;22.24;-6.94;90.49;74.89;156.71;0.0;986.57;64.134;35.958443;-83.924835;796.61;NaN;;4.39;21.139774;138.6;11 / 16;12519;2022-10-26 19:12:24:918
1.0678;-4.2197;-2.0518;-3.0497;-8.8719;-2.8565;5.3334;-1.3468;2.431;0.3024;-0.305;-0.2547;0.0;26.4;29.63;5.78;121.15;64.78;133.13;0.0;986.52;63.852;35.958443;-83.924835;796.61;NaN;;4.39;21.139774;138.6;11 / 16;13019;2022-10-26 19:12:25:418
3.9036;-7.587;-9.3263;-1.8554;-9.4629;-1.7834;-2.0035;-2.5916;-0.0359;-1.6438;-2.5325;2.5128;1.0;22.61;37.74;-2.12;295.03;81.39;-17.23;0.0;986.58;63.414;35.95843;-83.92483;796.28;NaN;;4.46;21.475477;133.3;12 / 16;13518;2022-10-26 19:12:25:917
2.3521;-8.1449;2.6755;-3.2155;-9.2619;-0.2214;7.0651;-1.9473;3.9724;0.7749;1.5794;-1.7918;1.0;31.18;34.91;-8.83;179.83;66.56;73.89;0.0;986.56;58.791;35.95843;-83.92483;796.28;NaN;;4.46;21.475477;133.3;12 / 16;14019;2022-10-26 19:12:26:418
0.5219;-17.6408;2.3665;-1.3276;-9.7143;-0.1984;-5.0903;-1.4856;0.0205;-1.1814;-0.3459;2.9584;1.0;23.03;39.99;-14.47;275.88;81.17;-24.01;0.0;986.51;58.666;35.958427;-83.92483;796.23;NaN;;3.38;21.315672;150.2;11 / 16;14519;2022-10-26 19:12:26:918
6.5874;-6.0009;-2.581;-3.3575;-9.1672;0.9275;-7.8415;-2.6497;1.5362;-1.3055;-0.1208;-0.0538;1.0;34.39;31.61;-10.84;175.97;69.2;74.56;0.0;986.4;59.897;35.958427;-83.92483;796.23;NaN;;3.38;21.315672;150.2;11 / 16;15018;2022-10-26 19:12:27:417
-5.3279;-8.9348;3.0236;0.0801;-9.8055;0.1306;-7.1597;-3.0778;-1.5812;-1.4064;0.1174;2.3763;0.0;24.28;39.47;-12.15;286.07;82.15;-31.68;0.0;986.42;61.454;35.95842;-83.92481;798.41;NaN;;3.74;21.705664;144.8;12 / 16;15519;2022-10-26 19:12:27:918
-10.1091;-16.0214;2.0016;-3.0706;-9.2928;0.6202;3.5373;1.777;-4.2057;0.4021;-3.8425;1.4285;0.0;33.56;31.65;-7.67;177.22;71.37;78.58;0.0;986.74;60.386;35.95842;-83.92481;798.41;NaN;;3.74;21.705664;144.8;12 / 16;16018;2022-10-26 19:12:28:417
-8.0584;-13.5757;-0.8596;1.2603;-9.6233;1.4052;-5.7845;-1.4206;-1.0643;0.2957;0.5036;-1.0516;1.0;25.86;37.18;-10.37;267.05;81.01;-5.93;0.0;986.68;56.541;35.958416;-83.924805;797.11;NaN;;3.6;21.299683;139.2;12 / 16;16518;2022-10-26 19:12:28:917
-2.63;-16.7037;1.2162;-2.8705;-9.3619;0.5339;-0.5082;0.0817;-1.8623;0.4303;-0.2799;-1.579;0.0;31.18;35.33;-8.64;171.07;72.68;79.46;0.0;986.64;58.26;35.958416;-83.924805;797.11;NaN;;3.6;21.299683;139.2;12 / 16;17018;2022-10-26 19:12:29:417
-3.8222;-10.7231;-0.772;1.2822;-9.6619;1.0833;-6.1113;-1.1215;-0.1166;-0.6244;-0.2111;0.1116;0.0;26.96;36.73;-10.33;243.42;83.71;13.67;0.0;986.62;58.93;35.958416;-83.9248;797.48;NaN;;3.56;19.472078;143.3;13 / 16;17519;2022-10-26 19:12:29:918
-11.779;-8.5301;1.5658;-4.6934;-8.6043;0.3303;7.7717;3.8374;0.2875;0.6311;0.2417;-1.779;0.0;26.48;34.5;-7.61;151.02;62.55;81.92;0.0;986.63;59.219;35.958416;-83.9248;797.48;NaN;;3.56;19.472078;143.3;13 / 16;18018;2022-10-26 19:12:30:417
-7.6469;-12.6972;0.1854;-0.0526;-9.7243;1.2671;-3.0031;-0.0464;-2.2748;0.2234;0.6199;-1.4797;1.0;27.45;32.76;-8.94;257.78;82.57;2.38;0.0;986.61;56.964;35.95841;-83.92479;797.1;NaN;;4.18;18.113916;165.8;13 / 16;18518;2022-10-26 19:12:30:917
5.1712;-5.0001;-6.8853;-4.9843;-8.437;0.3806;8.8826;4.618;0.3008;0.2292;0.4245;-2.1102;0.0;24.9;32.03;-8.57;128.99;59.35;85.63;0.0;986.59;58.371;35.95841;-83.92479;797.1;NaN;;4.18;18.113916;165.8;13 / 16;19018;2022-10-26 19:12:31:417
-5.7876;-10.9448;-6.4113;-1.0136;-9.7183;0.8354;1.7548;0.7853;2.4068;0.9247;-0.036;-1.9194;0.0;23.06;33.09;-9.75;199.54;82.3;50.5;0.0;986.45;63.356;35.9584;-83.92478;798.01;NaN;;4.25;16.882736;157.8;13 / 16;19518;2022-10-26 19:12:31:917
5.6608;-3.3111;-0.5136;-4.6932;-8.5983;0.4622;2.5022;2.9066;-0.2367;0.4816;0.1881;-2.6282;0.0;20.16;35.91;-9.66;139.21;67.21;77.04;0.0;986.54;60.872;35.9584;-83.92478;798.01;NaN;;4.25;16.882736;157.8;13 / 16;20019;2022-10-26 19:12:32:418
-1.4533;-9.4232;4.7824;0.4835;-9.7258;1.16;-3.8296;-0.1732;-1.5317;0.3863;-0.468;-1.9304;1.0;23.03;34.31;-11.77;157.15;77.36;78.38;0.0;986.57;62.948;35.958397;-83.92477;796.87;NaN;;3.89;16.551004;154.5;13 / 16;20519;2022-10-26 19:12:32:918
0.4131;-6.5444;1.579;-4.0522;-8.8759;0.9835;4.9747;0.2674;-2.7486;0.0652;0.4454;0.039;0.0;20.21;35.59;-12.51;122.58;64.84;76.36;0.0;986.56;59.743;35.958397;-83.92477;796.87;NaN;;3.89;16.551004;154.5;13 / 16;21018;2022-10-26 19:12:33:417
-1.6292;-10.2084;4.3298;-0.5753;-9.7756;0.526;0.0641;0.2557;2.4238;0.4032;-0.0295;-1.7002;0.0;21.96;36.41;-13.35;193.38;85.44;47.56;0.0;986.51;61.191;35.958397;-83.92476;794.12;NaN;;3.71;16.248829;145.0;12 / 16;21518;2022-10-26 19:12:33:917
-3.8067;-5.3964;0.2034;-3.3208;-9.2069;0.6131;5.1132;-7.6737;1.5421;0.5324;1.6617;0.8721;0.0;16.28;42.81;-12.99;304.29;84.53;-64.02;0.0;986.42;56.2;35.958397;-83.92476;794.12;NaN;;3.71;16.248829;145.0;12 / 16;22019;2022-10-26 19:12:34:418
-1.4677;-9.2617;4.3418;-3.2003;-9.2288;0.87;7.589;-1.408;-1.6622;0.2696;1.2253;-1.9074;0.0;29.42;33.99;-13.22;164.7;70.23;74.79;0.0;986.52;61.386;35.958393;-83.92475;793.81;NaN;;3.6;17.262764;147.3;12 / 16;22518;2022-10-26 19:12:34:917
1.579;-10.2395;-0.3162;-3.1048;-9.3016;0.1066;5.2335;-6.9951;1.3431;0.7797;1.426;0.6248;0.0;19.24;41.12;-11.87;115.51;71.53;88.03;0.0;986.31;59.826;35.958393;-83.92475;793.81;NaN;;3.6;17.262764;147.3;12 / 16;23018;2022-10-26 19:12:35:417
1.4773;-7.6277;3.2656;-2.2823;-9.535;0.2138;5.3747;-2.3;2.8912;-2.1638;0.7651;-0.1471;1.0;29.12;33.71;-12.86;188.84;72.21;60.31;0.0;986.38;60.053;35.958393;-83.924736;791.7;NaN;;3.56;16.893652;143.6;12 / 16;23519;2022-10-26 19:12:35:918
-1.5084;-14.6602;0.2886;-0.6028;-9.7872;-0.1307;-5.5451;-1.578;0.1979;0.6464;-1.2451;2.281;1.0;18.53;41.31;-11.87;130.42;86.39;102.23;0.0;986.42;56.66;35.958393;-83.924736;791.7;NaN;;3.56;16.893652;143.6;12 / 16;24019;2022-10-26 19:12:36:418
2.3725;-13.7614;4.0005;-3.2608;-9.193;1.0133;7.3727;2.7546;-5.8121;0.8674;-1.3112;1.4322;1.0;30.39;32.93;-10.33;184.18;75.02;68.65;0.0;986.24;55.782;35.958393;-83.92473;792.66;NaN;;2.95;17.799583;140.8;13 / 16;24518;2022-10-26 19:12:36:917
-3.1184;-10.3567;0.8967;1.9388;-9.5569;1.038;-7.7441;-2.9406;0.6982;-0.795;-0.5838;3.4323;0.0;19.56;40.61;-10.26;320.03;77.04;-61.84;0.0;986.66;61.487;35.958393;-83.92473;792.66;NaN;;2.95;17.799583;140.8;13 / 16;25018;2022-10-26 19:12:37:417
3.1053;-6.9093;3.3685;-3.0852;-9.2188;1.2909;-8.4573;-1.248;2.2841;-1.3193;-0.1529;0.0102;0.0;29.06;34.65;-8.51;159.33;66.09;82.2;0.0;986.51;60.346;35.958393;-83.92472;796.41;NaN;;4.1;17.74122;139.7;12 / 16;25518;2022-10-26 19:12:37:917
-10.564;-14.8624;-10.4587;1.6736;-9.5873;1.2051;-8.5868;-3.7201;-2.6691;-0.3912;-0.1709;0.0565;0.0;22.28;39.11;-9.99;313.56;77.86;-54.24;0.0;986.49;59.174;35.958393;-83.92472;796.41;NaN;;4.1;17.74122;139.7;12 / 16;26019;2022-10-26 19:12:38:418
-10.2646;-7.4755;1.2257;-2.4889;-9.4633;0.6489;-0.4707;-0.6207;-1.3692;0.0422;-1.5915;1.0899;0.0;27.34;35.46;-12.13;165.79;74.79;75.39;0.0;986.29;59.422;35.958393;-83.924706;791.78;NaN;;3.17;17.784147;129.4;12 / 16;26518;2022-10-26 19:12:38:917
-4.4471;-11.196;2.2493;2.2585;-9.5134;0.7513;-7.9867;-2.975;1.3633;-0.017;0.7872;-1.6924;0.0;19.22;41.49;-13.31;321.99;75.95;-71.6;0.0;986.47;62.642;35.958393;-83.924706;791.78;NaN;;3.17;17.784147;129.4;12 / 16;27018;2022-10-26 19:12:39:417
-15.6706;-13.285;2.8178;-4.0858;-8.8739;0.8545;6.6134;4.2396;-0.3677;0.5862;1.0556;-2.3552;0.0;24.39;39.06;-10.78;138.83;64.81;78.19;0.0;986.7;57.314;35.95839;-83.92469;791.68;NaN;;5.08;18.933731;147.3;12 / 16;27519;2022-10-26 19:12:39:918
-8.5887;-13.0633;-1.957;0.9208;-9.6885;1.206;-5.529;-0.3822;0.771;-0.2488;0.1975;-0.7649;0.0;25.29;39.73;-10.72;295.29;81.1;-37.36;0.0;986.49;62.464;35.95839;-83.92469;791.68;NaN;;5.08;18.933731;147.3;12 / 16;28018;2022-10-26 19:12:40:417
-15.4816;-19.908;7.6732;-4.3691;-8.7687;0.4365;4.1342;3.7305;-0.3346;0.8467;0.1244;-0.5704;0.0;27.19;36.81;-7.93;147.14;63.4;84.29;0.0;986.76;58.302;35.95838;-83.92468;791.14;NaN;;4.54;18.684448;176.3;12 / 16;28519;2022-10-26 19:12:40:918
-6.5527;-14.0928;2.0303;1.2852;-9.6631;1.0695;-4.4595;-0.8575;-2.6546;0.0828;0.0192;-1.4666;0.0;22.95;39.34;-7.27;314.37;80.18;-50.24;0.0;986.54;64.692;35.95838;-83.92468;791.14;NaN;;4.54;18.684448;176.3;12 / 16;29020;2022-10-26 19:12:41:419
-17.1105;-17.5953;7.3487;-2.9305;-9.2817;1.1967;1.1226;1.8611;-1.0738;0.4406;-0.5958;-1.9165;0.0;24.92;37.39;-4.76;177.25;62.8;79.31;0.0;986.61;56.766;35.958378;-83.924675;794.04;NaN;;3.85;17.103765;163.0;12 / 16;29518;2022-10-26 19:12:41:917
-2.4586;-10.3543;1.1886;0.9139;-9.6804;1.2746;-3.1431;-0.3329;-3.9775;-0.0508;-0.1251;-1.6853;0.0;23.04;39.06;-6.79;301.31;80.8;-35.64;0.0;986.48;60.813;35.958378;-83.924675;794.04;NaN;;3.85;17.103765;163.0;12 / 16;30018;2022-10-26 19:12:42:417
-1.8673;-8.9587;-1.3597;-4.1703;-8.8124;1.0586;7.3401;4.3186;-0.0983;0.4119;0.3483;-1.8979;0.0;21.69;38.83;-6.66;159.13;63.98;75.76;0.0;986.57;59.408;35.958378;-83.924675;794.04;NaN;;3.85;17.103765;163.0;12 / 16;30519;2022-10-26 19:12:42:918
-2.5196;-9.0975;3.2225;0.9004;-9.6642;1.4013;-4.7778;-0.5281;-2.3423;-0.1377;0.4807;-0.8416;0.0;18.49;40.78;-9.28;294.44;80.22;-32.72;0.0;986.45;61.417;35.958378;-83.924675;794.04;NaN;;3.85;17.103765;163.0;12 / 16;31018;2022-10-26 19:12:43:417
4.0819;-3.8079;0.9601;-3.2438;-9.1815;1.1616;7.7757;5.097;-2.8776;0.284;0.2953;-0.503;0.0;15.02;43.24;-10.63;58.04;63.12;72.48;0.0;986.52;58.603;35.958363;-83.92468;803.31;NaN;;3.67;16.055273;168.9;12 / 16;31518;2022-10-26 19:12:43:917
-1.7106;-9.3933;3.6846;0.2603;-9.7105;1.345;-5.3405;-0.3371;-2.2283;0.2874;0.8365;-1.5862;0.0;19.2;44.46;-14.06;259.66;81.97;-10.95;0.0;986.48;62.629;35.958363;-83.92468;803.31;NaN;;3.67;16.055273;168.9;12 / 16;32019;2022-10-26 19:12:44:418
-5.0133;-11.2283;2.3988;-4.4514;-8.6922;0.8953;6.6898;3.4582;-0.45;-0.016;1.1398;0.2855;0.0;15.43;51.3;-14.7;60.81;63.95;73.26;0.0;986.54;61.046;35.95835;-83.92468;805.58;NaN;;3.06;15.269895;177.7;13 / 16;32518;2022-10-26 19:12:44:917
-2.6097;-9.6972;0.3281;-1.1939;-9.6968;0.8464;2.9626;1.8394;2.0914;0.264;-0.0128;-1.8439;0.0;26.25;53.03;-15.56;185.11;81.42;54.67;0.0;986.43;61.523;35.95835;-83.92468;805.58;NaN;;3.06;15.269895;177.7;13 / 16;33018;2022-10-26 19:12:45:417
5.1485;-5.4969;0.8402;-4.7954;-8.5298;0.6451;3.7228;3.1964;0.46;0.0262;1.9016;0.266;0.0;18.69;52.14;-13.48;53.1;60.44;82.34;0.0;986.47;59.263;35.958347;-83.92468;804.16;NaN;;3.82;15.267903;168.5;13 / 16;33519;2022-10-26 19:12:45:918
-8.45;-12.539;-14.9309;-2.5329;-9.4598;0.5166;7.2218;-1.9277;2.9559;0.8114;0.3555;-2.4655;0.0;18.77;44.7;-15.38;129.51;74.72;78.47;0.0;986.36;60.926;35.958347;-83.92468;804.16;NaN;;3.82;15.267903;168.5;13 / 16;34018;2022-10-26 19:12:46:417
-0.7409;-5.5472;0.9123;-3.5334;-9.1464;0.1679;4.8441;-9.7195;4.2677;0.1212;1.5722;0.1696;0.0;7.05;48.99;-13.74;66.57;79.55;108.46;0.0;986.54;58.435;35.958336;-83.92468;803.38;NaN;;3.38;15.464584;163.3;13 / 16;34518;2022-10-26 19:12:46:917
-1.209;-10.9807;4.8075;-1.3506;-9.7102;0.2419;4.2769;2.0119;3.8625;0.8369;0.7408;-2.1523;0.0;22.44;48.47;-9.41;163.01;81.96;79.85;0.0;986.33;60.066;35.958336;-83.92468;803.38;NaN;;3.38;15.464584;163.3;13 / 16;35019;2022-10-26 19:12:47:418
1.7273;-5.3342;0.8103;-4.709;-8.577;0.6566;4.3175;3.2681;-0.4218;-0.0918;0.613;0.0458;0.0;15.0;48.21;-12.34;78.19;69.18;85.91;0.0;986.48;60.714;35.95833;-83.924675;800.91;NaN;;4.36;15.753126;149.6;13 / 16;35519;2022-10-26 19:12:47:918
-3.3051;-9.8638;3.3649;-1.6035;-9.6542;0.6289;1.4428;1.4092;4.6252;0.3655;-0.8156;-2.0052;0.0;25.22;40.89;-15.39;211.79;69.34;44.36;0.0;986.36;64.641;35.95833;-83.924675;800.91;NaN;;4.36;15.753126;149.6;13 / 16;36019;2022-10-26 19:12:48:418
0.2393;-4.5428;1.0379;-4.4331;-8.7004;0.9064;6.7675;3.3581;-2.7215;0.0441;2.5554;0.1318;0.0;14.59;44.7;-15.47;108.33;77.87;90.7;0.0;986.48;58.573;35.958313;-83.924675;800.89;NaN;;4.07;15.516996;155.2;13 / 16;36519;2022-10-26 19:12:48:918
-1.6065;-10.267;-2.0674;-1.0868;-9.6992;0.9561;3.7991;1.6279;2.3625;0.8543;-0.9239;-2.0444;0.0;23.66;38.36;-13.99;170.72;69.25;63.94;0.0;986.36;63.377;35.958313;-83.924675;800.89;NaN;;4.07;15.516996;155.2;13 / 16;37019;2022-10-26 19:12:49:418
-3.6138;-5.7494;0.8342;-3.8045;-9.0053;0.7756;8.3522;-0.3265;-0.2434;0.0601;0.909;0.1713;0.0;12.02;43.29;-15.71;100.53;84.5;104.55;0.0;986.42;60.685;35.95829;-83.924675;802.0;NaN;;4.25;15.256343;141.4;13 / 16;37519;2022-10-26 19:12:49:918
-2.0997;-10.2742;2.333;-1.8788;-9.6219;0.244;6.7847;-0.422;3.6991;0.833;1.3809;-2.3179;0.0;21.68;39.99;-13.07;146.71;78.86;82.6;0.0;986.27;65.328;35.95829;-83.924675;802.0;NaN;;4.25;15.256343;141.4;13 / 16;38019;2022-10-26 19:12:50:418
2.3821;-6.117;-0.6643;-4.3295;-8.7871;0.4623;5.0508;4.1399;-1.3027;0.3659;1.9015;1.032;0.0;13.95;44.44;-12.36;96.21;73.65;88.85;0.0;986.47;60.098;35.95828;-83.92467;800.58;NaN;;4.36;15.472815;160.5;12 / 16;38519;2022-10-26 19:12:50:918
-1.4354;-9.6924;3.4152;-2.3357;-9.5211;0.2526;6.3443;-1.5568;3.4553;1.0417;-0.283;-2.1507;0.0;24.43;41.1;-16.37;138.41;76.14;83.83;0.0;986.27;61.498;35.95828;-83.92467;800.58;NaN;;4.36;15.472815;160.5;12 / 16;39019;2022-10-26 19:12:51:418
1.5108;-5.2537;0.8174;-3.7644;-8.9644;1.2805;7.9394;-2.8619;-0.2519;1.1908;-2.313;2.5893;0.0;14.94;45.36;-22.56;125.4;87.37;84.17;0.0;986.57;60.367;35.958263;-83.92467;798.68;NaN;;4.36;15.734196;138.4;12 / 16;39519;2022-10-26 19:12:51:918
1.7189;-9.6362;4.9953;-2.776;-9.1999;1.9562;6.7329;1.4333;-5.8143;-0.4316;-0.2748;-1.6798;0.0;29.89;33.06;-20.64;180.29;69.74;54.83;0.0;986.74;62.511;35.958263;-83.92467;798.68;NaN;;4.36;15.734196;138.4;12 / 16;40019;2022-10-26 19:12:52:418
2.7233;-15.4131;4.1931;-3.0073;-9.333;-0.1429;2.607;-8.9305;2.7653;1.2874;1.8373;1.2588;0.0;20.38;38.44;-21.02;307.0;81.9;-75.14;0.0;986.34;63.099;35.958244;-83.92466;795.9;NaN;;4.18;16.169188;133.4;12 / 16;40519;2022-10-26 19:12:52:918
0.5088;-7.2099;4.7871;-3.5409;-9.1023;0.8839;8.4385;2.0627;-1.1052;-1.3941;1.3566;-1.0769;0.0;32.93;25.99;-10.42;179.61;75.12;73.44;0.0;986.56;63.08;35.958244;-83.92466;795.9;NaN;;4.18;16.169188;133.4;12 / 16;41019;2022-10-26 19:12:53:418
5.2358;-11.391;1.9056;-3.7565;-8.989;1.1208;8.4849;-4.6269;0.0815;-0.3232;-0.6748;3.7484;0.0;21.94;36.53;-7.59;165.49;89.58;84.36;0.0;986.29;60.405;35.95823;-83.924644;797.17;NaN;;4.14;16.671978;133.9;13 / 16;41519;2022-10-26 19:12:53:918
2.9722;-7.1501;3.9933;-3.3157;-8.9944;2.0682;7.1041;0.2128;-6.1052;-0.6447;-0.1517;-1.7641;0.0;28.01;29.85;-10.01;203.33;66.52;58.05;0.0;986.38;62.855;35.95823;-83.924644;797.17;NaN;;4.14;16.671978;133.9;13 / 16;42019;2022-10-26 19:12:54:418
3.4343;-11.141;3.4917;-0.9459;-9.7558;0.3169;-4.9261;-1.2043;0.5718;-0.2153;-1.0053;3.6023;0.0;18.6;37.14;-13.41;161.0;84.16;71.48;0.0;986.23;60.695;35.958218;-83.92464;793.93;NaN;;4.36;16.500027;131.3;13 / 16;42519;2022-10-26 19:12:54:918
2.551;-9.6984;0.1747;-3.3889;-8.9149;2.2825;7.4546;1.4513;-3.9987;-1.6555;-0.8666;-0.0421;0.0;27.17;24.88;-12.86;194.57;65.38;56.04;0.0;986.31;59.743;35.958218;-83.92464;793.93;NaN;;4.36;16.500027;131.3;13 / 16;43019;2022-10-26 19:12:55:418
-1.2185;-16.4318;0.6811;1.803;-9.6186;0.6338;-9.7564;-2.7956;-0.4233;0.0924;-1.8128;2.9886;0.0;20.14;29.12;-12.66;316.52;78.76;-70.63;0.0;985.85;60.814;35.9582;-83.92463;793.82;NaN;;4.54;16.64076;151.1;13 / 16;43518;2022-10-26 19:12:55:917
-1.7345;-13.2634;-5.1425;-2.453;-9.4295;1.1124;-8.5181;-3.2737;3.3044;0.6509;-1.9846;0.8727;1.0;19.26;16.89;-3.02;201.24;74.06;65.61;0.0;986.14;61.366;35.9582;-83.92463;793.82;NaN;;4.54;16.64076;151.1;13 / 16;44019;2022-10-26 19:12:56:418
-7.5787;-13.535;0.8501;0.7968;-9.7714;0.2353;-8.0133;-2.8927;0.3323;-0.657;-0.4921;3.1767;0.0;0.84;21.0;-3.79;311.52;77.85;-63.75;0.0;986.34;62.951;35.958183;-83.92463;793.57;NaN;;4.28;16.062737;160.0;14 / 16;44518;2022-10-26 19:12:56:917
-0.0072;-14.8385;-9.7355;-3.0643;-9.2958;0.6067;-2.9045;-0.2289;-2.1565;0.5086;-1.19;-0.7491;0.0;2.36;29.31;-13.16;51.23;62.7;83.26;0.0;986.57;58.422;35.958183;-83.92463;793.57;NaN;;4.28;16.062737;160.0;14 / 16;45021;2022-10-26 19:12:57:420
-8.814;-13.3567;-0.0861;1.7737;-9.5656;1.2344;-4.0377;-0.7528;-2.8902;-0.517;-0.0799;0.1384;0.0;8.33;35.96;-24.26;272.28;77.27;-55.16;0.0;986.67;60.003;35.95817;-83.92462;792.71;NaN;;4.5;15.48577;140.0;14 / 16;45519;2022-10-26 19:12:57:918
-6.3814;-10.5329;3.0547;-2.6936;-9.388;0.8836;-0.0052;0.8398;-0.8874;0.7183;0.2147;-1.9336;0.0;16.01;38.48;-22.42;122.48;73.2;71.84;0.0;986.43;59.721;35.95817;-83.92462;792.71;NaN;;4.5;15.48577;140.0;14 / 16;46019;2022-10-26 19:12:58:418
-9.3479;-13.5529;-2.3007;2.5207;-9.4305;0.9396;-9.5064;-2.6429;0.6624;-0.6397;-0.542;0.9909;0.0;10.65;44.87;-24.75;296.94;74.08;-69.56;0.0;986.81;61.497;35.95816;-83.92462;793.22;NaN;;3.92;15.04255;150.9;14 / 16;46519;2022-10-26 19:12:58:918
-17.8373;-19.3035;6.6808;-3.9847;-8.9102;0.9491;9.333;5.1054;-0.4114;0.5033;1.0556;-2.7085;0.0;14.68;47.96;-23.34;83.74;64.07;72.54;0.0;986.39;61.652;35.95816;-83.92462;793.22;NaN;;3.92;15.04255;150.9;14 / 16;47019;2022-10-26 19:12:59:418
-6.5061;-11.9405;0.754;2.288;-9.4506;1.2733;-9.6384;-1.8159;0.1568;-0.6746;-0.5135;0.5717;0.0;25.76;45.62;-20.78;253.61;81.54;-11.05;0.0;986.48;62.965;35.958153;-83.92462;793.05;NaN;;4.0;14.572703;139.9;13 / 16;47518;2022-10-26 19:12:59:917
-16.4868;-17.7129;7.6337;-3.9835;-8.9128;0.9297;7.9004;4.8713;-0.3558;0.512;0.8188;-2.4205;0.0;23.03;41.85;-16.11;120.68;65.35;76.86;0.0;986.4;59.937;35.958153;-83.92462;793.05;NaN;;4.0;14.572703;139.9;13 / 16;48018;2022-10-26 19:13:00:417
-4.3238;-10.2754;3.5743;1.4506;-9.6281;1.1688;-6.7898;-0.8738;-4.982;0.0825;0.3451;-1.6809;0.0;14.33;40.71;-16.91;290.01;79.05;-51.14;0.0;986.55;62.177;35.958138;-83.92462;794.85;NaN;;4.36;14.297759;167.0;13 / 16;48519;2022-10-26 19:13:00:918
-14.5645;-12.9341;4.6768;-2.0247;-9.5066;1.3025;-9.1763;-2.7908;2.6611;0.5695;0.0621;-1.7604;0.0;18.13;39.62;-17.31;103.07;65.66;77.26;0.0;986.43;61.109;35.958138;-83.92462;794.85;NaN;;4.36;14.297759;167.0;13 / 16;49019;2022-10-26 19:13:01:418
-5.1772;-12.3021;1.567;2.2627;-9.4667;1.1968;-6.5728;-1.3641;1.67;-1.0722;-0.3762;1.7437;0.0;12.58;43.48;-21.13;226.22;83.66;-6.29;0.0;986.54;65.306;35.95812;-83.92462;792.05;NaN;;4.07;14.212019;165.8;13 / 16;49519;2022-10-26 19:13:01:918
-19.2126;-20.0016;6.6532;-3.012;-9.3177;0.5277;6.6675;5.2356;-2.4114;0.4839;0.9273;-2.7252;0.0;18.86;41.14;-17.53;95.67;62.35;75.52;0.0;986.37;61.634;35.95812;-83.92462;792.05;NaN;;4.07;14.212019;165.8;13 / 16;50018;2022-10-26 19:13:02:417
-8.1099;-14.0749;-1.9789;2.6293;-9.3974;0.9724;-6.8301;-1.5916;1.4396;-0.5597;-0.0269;-9.0E-4;0.0;15.28;42.6;-16.97;270.26;80.39;-30.12;0.0;986.59;64.309;35.958107;-83.92463;797.25;NaN;;4.07;13.87941;174.4;13 / 16;50519;2022-10-26 19:13:02:918
-8.426;-13.8583;3.2692;-3.9561;-8.9433;0.7335;6.0649;4.4977;0.0131;0.2662;0.779;-1.679;0.0;18.47;38.87;-9.54;105.38;65.78;79.5;0.0;986.38;60.63;35.958107;-83.92463;797.25;NaN;;4.07;13.87941;174.4;13 / 16;51019;2022-10-26 19:13:03:418
-11.7766;-12.9257;-4.1967;1.2745;-9.6936;0.7617;-5.2506;-0.8627;-3.2476;-0.4374;0.0756;-0.9906;0.0;15.53;38.1;-8.85;142.77;80.78;85.89;0.0;986.58;64.015;35.95809;-83.92463;796.54;NaN;;4.25;13.448035;166.9;14 / 16;51518;2022-10-26 19:13:03:917
-10.9397;-9.0066;3.3721;-3.2102;-9.2356;0.7548;9.4679;6.1363;-2.3361;0.6721;0.3276;-0.576;0.0;16.69;34.88;-9.64;100.45;63.88;79.48;0.0;986.37;60.755;35.95809;-83.92463;796.54;NaN;;4.25;13.448035;166.9;14 / 16;52019;2022-10-26 19:13:04:418
-6.9344;-11.1159;1.0355;0.574;-9.6954;1.3564;0.1389;1.1181;4.073;-0.131;-0.1616;-1.7908;0.0;15.04;36.51;-14.61;263.27;81.36;-22.94;0.0;986.44;63.905;35.958076;-83.92462;792.74;NaN;;4.36;13.356924;148.6;14 / 16;52518;2022-10-26 19:13:04:917
-17.75;-17.581;4.8649;-4.1422;-8.8588;0.7305;6.8719;4.8634;-0.1414;0.504;1.2756;-1.522;0.0;18.43;33.94;-15.77;107.33;64.6;80.0;0.0;986.36;61.958;35.958076;-83.92462;792.74;NaN;;4.36;13.356924;148.6;14 / 16;53018;2022-10-26 19:13:05:417
-2.9207;-9.9535;4.1094;2.1244;-9.5263;0.9526;-5.5981;-0.7174;-3.0077;0.1997;-0.8004;-1.6798;0.0;19.99;36.92;-16.33;210.97;86.28;23.19;0.0;986.39;62.072;35.958065;-83.92462;794.64;NaN;;4.18;13.316453;151.7;13 / 16;53518;2022-10-26 19:13:05:917
-5.1281;-7.1249;-0.7169;-4.1531;-8.8428;0.8523;1.3648;4.5852;-1.9212;0.2722;1.6421;-0.7097;0.0;20.06;38.42;-17.25;108.88;64.38;78.4;0.0;986.38;62.348;35.958065;-83.92462;794.64;NaN;;4.18;13.316453;151.7;13 / 16;54019;2022-10-26 19:13:06:418
-7.8778;-9.7223;-8.0142;0.3253;-9.766;0.8309;-6.9074;-0.243;-4.0909;-0.6787;-0.1668;-1.2561;0.0;31.48;28.35;-15.41;269.82;84.78;-21.38;0.0;987.23;60.316;35.958054;-83.92461;795.34;NaN;;4.75;13.138745;127.3;13 / 16;54518;2022-10-26 19:13:06:917
1.847;-5.3653;0.8198;-4.0837;-8.7835;1.5307;1.976;3.5936;-0.5846;0.1796;1.935;0.6404;0.0;13.69;36.0;-22.69;100.1;63.59;69.45;0.0;986.02;60.425;35.958054;-83.92461;795.34;NaN;;4.75;13.138745;127.3;13 / 16;55019;2022-10-26 19:13:07:418
-1.5479;-9.009;4.6349;-1.1962;-9.7181;0.5454;2.7033;2.9451;4.3141;0.0333;-1.4767;-1.7197;0.0;30.0;32.19;-17.89;174.8;66.34;61.89;0.0;986.31;60.417;35.958042;-83.92459;797.64;NaN;;4.43;13.229856;143.3;13 / 16;55519;2022-10-26 19:13:07:918
-0.5327;-6.245;0.3999;-4.4664;-8.6446;1.2213;2.9946;4.201;-2.9565;1.1801;1.4474;0.7936;0.0;24.32;37.18;-19.01;129.1;71.37;83.0;0.0;986.13;60.588;35.958042;-83.92459;797.64;NaN;;4.43;13.229856;143.3;13 / 16;56018;2022-10-26 19:13:08:417
0.0479;-7.4623;3.9646;-2.4599;-9.4759;0.5721;6.4803;-0.6367;3.1535;-2.1358;0.3375;-0.6323;0.0;35.23;28.5;-15.94;165.2;75.08;76.91;0.0;986.24;63.835;35.95804;-83.92458;798.85;NaN;;3.96;13.212553;141.3;13 / 16;56519;2022-10-26 19:13:08:918
-0.7146;-4.8541;-0.1914;-3.957;-8.8765;1.3113;6.6731;0.5739;-1.3913;0.772;1.7123;0.34;1.0;24.24;37.39;-17.44;139.62;79.35;85.84;0.0;986.06;62.774;35.95804;-83.92458;798.85;NaN;;3.96;13.212553;141.3;13 / 16;57018;2022-10-26 19:13:09:417
1.2006;-10.0792;6.4642;-2.7507;-9.232;1.8369;7.6769;2.0508;-1.87;-0.756;-0.298;-2.0624;0.0;30.62;25.74;-15.26;191.48;70.29;56.26;0.0;986.21;62.105;35.958035;-83.92457;802.29;NaN;;3.85;12.587318;124.0;13 / 16;57519;2022-10-26 19:13:09:918
-0.7169;-4.6947;-0.1615;-3.8763;-8.8973;1.4082;8.1899;-1.1838;-0.2588;0.5978;2.1903;0.5685;0.0;21.34;31.76;-16.56;137.81;65.13;70.03;0.0;986.0;60.354;35.958035;-83.92457;802.29;NaN;;3.85;12.587318;124.0;13 / 16;58018;2022-10-26 19:13:10:417
2.7281;-8.985;1.2628;-2.3499;-9.4674;1.0082;4.8735;-2.6738;0.9404;0.617;-0.3239;-2.1994;0.0;26.42;27.24;-15.21;198.16;72.44;47.52;0.0;986.24;63.714;35.958023;-83.92456;808.04;NaN;;5.36;12.704666;168.1;13 / 16;58519;2022-10-26 19:13:10:918
-1.8278;-4.1883;-0.4214;-4.5462;-8.6551;0.7691;4.8732;4.0496;-0.9917;0.5352;2.2721;0.5481;0.0;18.56;35.55;-15.28;108.53;69.93;91.29;0.0;986.22;60.836;35.958023;-83.92456;808.04;NaN;;5.36;12.704666;168.1;13 / 16;59018;2022-10-26 19:13:11:417
2.8226;-7.1776;2.4826;-2.4926;-9.46;0.6818;6.6654;-1.3627;1.8737;0.8114;-0.628;-2.1254;0.0;24.0;34.41;-15.38;154.67;74.72;74.7;0.0;986.26;66.524;35.95802;-83.92455;807.98;NaN;;4.0;12.540133;147.4;13 / 16;59518;2022-10-26 19:13:11:917
-0.5423;-4.7728;0.8632;-4.2136;-8.8292;0.6793;6.7905;1.4537;-2.9621;1.2059;-0.8288;1.8154;0.0;19.14;40.24;-15.69;97.9;64.2;80.84;0.0;986.22;60.107;35.95802;-83.92455;807.98;NaN;;4.0;12.540133;147.4;13 / 16;60018;2022-10-26 19:13:12:417
-0.4501;-9.877;5.9064;-1.5857;-9.649;0.7439;6.5985;2.1812;2.8198;0.4126;-0.2797;-2.2795;0.0;26.87;37.37;-16.63;196.15;68.61;49.5;0.0;986.25;61.345;35.95801;-83.92454;808.91;NaN;;4.0;12.742742;143.9;13 / 16;60519;2022-10-26 19:13:12:918
-0.3114;-5.1449;-2.0279;-4.2485;-8.8129;0.6736;2.7159;4.1703;-1.7157;0.7219;2.0314;0.4358;0.0;17.55;45.47;-17.96;104.3;70.51;82.7;0.0;986.14;58.674;35.95801;-83.92454;808.91;NaN;;4.0;12.742742;143.9;13 / 16;61018;2022-10-26 19:13:13:417
3.4869;-7.8598;3.6488;-2.5811;-9.4127;0.9541;8.5623;-0.8347;2.0542;0.8187;-0.1284;-2.4743;0.0;29.23;40.43;-17.16;164.0;73.7;69.71;0.0;986.22;64.814;35.958008;-83.92453;809.96;NaN;;4.03;13.324493;151.6;13 / 16;61518;2022-10-26 19:13:13:917
-1.6232;-4.0854;-0.3209;-3.9347;-8.944;0.8325;6.502;0.476;-2.1633;1.3209;-0.9292;1.6762;0.0;20.94;44.96;-19.67;127.71;81.83;86.41;0.0;986.19;62.761;35.958008;-83.92453;809.96;NaN;;4.03;13.324493;151.6;13 / 16;62018;2022-10-26 19:13:14:417
2.3653;-8.8511;5.796;-2.7781;-9.2724;1.5734;6.6143;1.612;-0.1796;0.6459;0.1558;-1.8924;0.0;29.27;37.2;-20.4;171.62;71.0;60.48;0.0;986.21;64.283;35.958;-83.924515;812.49;NaN;;3.78;13.203293;152.8;13 / 16;62518;2022-10-26 19:13:14:917
-4.5535;-3.2847;-0.2201;-3.0883;-9.3074;-0.0642;2.963;-9.3865;1.1535;0.7888;-2.9763;3.0259;0.0;21.47;40.14;-17.68;304.37;78.02;-60.99;0.0;986.16;61.102;35.958;-83.924515;812.49;NaN;;3.78;13.203293;152.8;13 / 16;63018;2022-10-26 19:13:15:417
2.1224;-9.6027;4.7079;-2.7341;-9.123;2.3379;3.8293;-0.4395;-3.8302;0.6187;-0.0108;-2.2348;1.0;25.8;32.25;-15.06;192.48;80.06;50.0;0.0;986.21;59.507;35.957993;-83.92451;811.36;NaN;;3.96;12.748981;152.7;13 / 16;63518;2022-10-26 19:13:15:917
0.6667;-9.4436;-4.4542;-3.3116;-9.2063;0.6687;5.8427;-8.4394;1.6565;1.1006;-1.3268;1.6889;0.0;17.68;42.81;-16.24;111.29;69.85;78.58;0.0;986.19;60.781;35.957993;-83.92451;811.36;NaN;;3.96;12.748981;152.7;13 / 16;64018;2022-10-26 19:13:16:417
5.8068;-7.0208;2.9435;-3.0154;-9.2225;1.4223;7.8378;-1.1667;-0.9406;0.3375;-0.3834;-2.1204;1.0;26.12;35.85;-16.78;165.61;70.12;64.75;0.0;986.18;61.128;35.957985;-83.9245;811.97;NaN;;4.03;13.029825;144.9;13 / 16;64518;2022-10-26 19:13:16:917
3.6846;-8.5277;1.6639;-3.9218;-8.9451;0.8808;8.4366;-1.2044;0.2177;1.0324;-1.578;2.4379;0.0;16.65;41.34;-19.05;124.19;84.4;90.02;0.0;986.06;61.031;35.957985;-83.9245;811.97;NaN;;4.03;13.029825;144.9;13 / 16;65018;2022-10-26 19:13:17:417
5.6704;-7.1237;2.8645;-2.9853;-9.289;0.9859;7.4752;0.8383;-2.0621;-0.0295;-0.6183;-2.1991;0.0;26.38;37.26;-20.72;146.43;71.3;71.72;0.0;986.1;60.725;35.957977;-83.924484;812.29;NaN;;4.03;12.764511;149.0;13 / 16;65519;2022-10-26 19:13:17:918
2.01;-6.2964;-1.7082;-3.7108;-9.0284;0.9422;8.469;-5.4704;2.0147;0.0053;-2.2875;3.6599;0.0;18.24;45.51;-21.26;303.14;87.56;-79.16;0.0;986.11;61.612;35.957977;-83.924484;812.29;NaN;;4.03;12.764511;149.0;13 / 16;66019;2022-10-26 19:13:18:418
3.9191;-7.1728;1.6005;-3.1843;-9.0424;2.0654;6.3225;-0.5607;-2.9715;-0.7029;0.9653;-2.1177;1.0;32.31;34.05;-16.65;188.9;67.23;57.03;0.0;986.19;61.989;35.95797;-83.92448;814.37;NaN;;4.03;13.209771;146.9;13 / 16;66518;2022-10-26 19:13:18:917
-0.7014;-4.4399;-2.3103;-1.941;-9.6126;-0.0195;-1.7156;-5.9058;1.6056;0.4377;2.1584;0.5312;1.0;23.49;39.51;-13.16;137.62;78.58;90.58;0.0;986.07;63.449;35.95797;-83.92448;814.37;NaN;;4.03;13.209771;146.9;13 / 16;67019;2022-10-26 19:13:19:418
5.9495;-8.6043;4.7617;-2.7235;-9.4088;0.4764;7.6144;-1.7176;0.9902;-0.6567;0.8256;-1.5894;1.0;25.67;28.07;-4.63;178.54;73.62;80.08;0.0;986.13;61.322;35.95796;-83.92446;817.76;NaN;;4.03;13.81695;151.6;14 / 16;67519;2022-10-26 19:13:19:918
-4.2051;-5.085;0.358;-3.3438;-9.2109;0.3864;6.083;-9.4233;2.3627;0.6976;2.0046;0.757;1.0;15.09;37.22;-9.09;107.43;69.93;83.41;0.0;986.12;60.446;35.95796;-83.92446;817.76;NaN;;4.03;13.81695;151.6;14 / 16;68019;2022-10-26 19:13:20:418
0.2716;-10.0887;4.6816;-2.0397;-9.5526;0.871;7.9283;0.0067;2.21;-0.123;-0.4113;-2.2396;0.0;23.72;34.13;-11.59;201.68;72.9;50.59;0.0;986.15;63.325;35.95795;-83.92446;819.97;NaN;;4.1;14.133413;162.1;13 / 16;68518;2022-10-26 19:13:20:917
2.4359;-8.572;-2.5834;-2.3858;-9.5118;-0.0703;1.0311;-5.0951;0.797;-0.3865;-1.7605;3.5434;1.0;15.38;42.68;-15.43;103.3;75.91;91.69;0.0;986.12;62.008;35.95795;-83.92446;819.97;NaN;;4.1;14.133413;162.1;13 / 16;69018;2022-10-26 19:13:21:417
3.0763;-7.7976;3.1831;-2.5844;-9.2085;2.1667;1.9571;-2.8178;-4.5589;-1.0843;1.5405;-1.081;0.0;28.39;36.77;-17.61;192.92;69.89;50.02;0.0;986.12;63.146;35.95794;-83.92445;822.3;NaN;;4.07;13.773028;162.6;13 / 16;69519;2022-10-26 19:13:21:918
1.4222;-5.2226;-1.2987;-2.7424;-9.4152;-0.0633;2.1922;-7.9594;1.2541;0.3068;-1.9165;2.9644;0.0;19.82;43.18;-17.47;111.26;73.76;91.32;0.0;986.13;63.074;35.95794;-83.92445;822.3;NaN;;4.07;13.773028;162.6;13 / 16;70018;2022-10-26 19:13:22:417
5.8642;-3.1962;0.4609;-1.8893;-9.4909;1.5888;-2.7091;1.717;-1.3785;-0.5328;1.1334;-2.1417;0.0;27.84;33.19;-16.14;194.46;75.42;49.94;0.0;986.14;65.269;35.957928;-83.924446;828.36;NaN;;4.03;13.608103;172.2;13 / 16;70519;2022-10-26 19:13:22:918
4.3298;-9.7128;3.9323;-1.04;-9.7261;-0.7016;-3.7904;-0.9926;3.2215;-0.3397;1.0725;3.5025;0.0;15.88;39.51;-17.06;86.54;82.65;124.01;0.0;985.98;60.485;35.957928;-83.924446;828.36;NaN;;4.03;13.608103;172.2;13 / 16;71018;2022-10-26 19:13:23:417
2.2062;-10.2144;4.4231;-2.9748;-9.2673;1.1994;6.9139;2.9827;-4.8618;0.6189;-3.4505;1.4826;0.0;26.33;29.96;-12.38;172.48;74.01;70.29;0.0;985.96;63.051;35.95792;-83.924446;833.4;NaN;;4.25;13.169932;156.1;13 / 16;71519;2022-10-26 19:13:23:918
4.8099;-8.7709;-2.065;0.3452;-9.8005;-0.0476;0.7147;-7.9695;2.1713;0.512;-2.4865;3.7773;0.0;13.59;40.16;-12.92;327.26;87.96;-97.85;0.0;986.12;64.694;35.95792;-83.924446;833.4;NaN;;4.25;13.169932;156.1;13 / 16;72018;2022-10-26 19:13:24:417
4.5787;-5.662;0.3126;-3.2282;-9.1728;1.2686;7.6207;4.0081;-6.8843;-2.1106;0.7325;0.0547;0.0;23.94;35.87;-12.22;188.34;74.68;58.33;0.0;985.97;63.763;35.957905;-83.92444;837.66;NaN;;4.0;13.125746;156.9;13 / 16;72519;2022-10-26 19:13:24:918
4.526;-12.7032;4.0555;-2.6049;-9.4449;0.4236;4.3943;-5.743;-1.4053;-0.0634;-0.2608;3.5307;0.0;10.52;45.43;-15.13;301.23;78.54;-60.84;0.0;986.05;63.609;35.957905;-83.92444;837.66;NaN;;4.0;13.125746;156.9;13 / 16;73018;2022-10-26 19:13:25:417
2.199;-13.2742;1.0355;-3.302;-8.9461;2.288;-0.1189;-7.0793;-3.0288;-1.9924;0.5307;-0.4657;1.0;25.37;37.82;-15.79;185.4;65.82;55.28;0.0;986.08;61.496;35.95789;-83.92443;842.05;NaN;;4.07;13.018284;166.3;13 / 16;73518;2022-10-26 19:13:25:917
-5.333;-10.3567;2.4933;1.408;-9.6805;0.6901;-9.2417;-4.3167;-0.9379;-0.9895;-0.4934;2.1936;0.0;12.24;45.9;-15.73;299.33;80.8;-63.89;0.0;986.43;62.09;35.95789;-83.92443;842.05;NaN;;4.07;13.018284;166.3;13 / 16;74019;2022-10-26 19:13:26:418
-11.4473;-8.4619;2.6755;-3.5204;-9.0661;1.2582;-1.4787;-1.8777;1.9922;1.4779;-1.3286;0.4752;1.0;22.07;39.58;-16.41;109.38;62.95;78.13;0.0;986.09;62.459;35.95787;-83.92442;841.05;NaN;;4.18;13.126053;154.6;13 / 16;74518;2022-10-26 19:13:26:917
-7.7797;-12.8061;0.0371;2.3778;-9.492;0.6475;-10.8522;-2.457;1.3773;-0.3879;-1.051;3.4473;1.0;13.56;45.24;-19.61;273.59;81.64;-42.96;0.0;986.69;63.421;35.95787;-83.92442;841.05;NaN;;4.18;13.126053;154.6;13 / 16;75018;2022-10-26 19:13:27:417
-15.8453;-14.1383;2.7855;-4.7908;-8.482;1.129;8.065;4.2869;-0.8453;-0.0842;0.4161;-0.6183;0.0;22.82;40.93;-20.46;100.98;59.87;76.74;0.0;986.05;63.508;35.957855;-83.924416;837.55;NaN;;4.18;13.625334;155.4;12 / 16;75519;2022-10-26 19:13:27:918
-9.7702;-11.9154;2.3462;2.039;-9.5136;1.2262;-1.178;-0.9845;-0.6993;-0.0993;-0.4949;-1.6908;0.0;20.85;42.71;-14.87;310.74;75.96;-58.98;0.0;986.31;64.412;35.957855;-83.924416;837.55;NaN;;4.18;13.625334;155.4;12 / 16;76018;2022-10-26 19:13:28:417
-18.4322;-14.7942;5.4335;-4.9334;-8.4233;0.9381;9.3524;5.029;-1.0837;0.1433;-0.1548;-1.069;1.0;19.8;38.91;-13.99;77.32;57.77;83.17;0.0;986.3;61.474;35.957836;-83.92441;832.18;NaN;;4.21;14.367324;170.5;13 / 16;76518;2022-10-26 19:13:28:917
-8.3913;-11.8388;0.5064;0.6568;-9.7425;0.9069;-5.0962;0.2997;-3.0719;0.5776;-0.9734;-1.8066;1.0;18.75;39.09;-13.69;135.34;79.44;85.39;0.0;986.38;61.668;35.957836;-83.92441;832.18;NaN;;4.21;14.367324;170.5;13 / 16;77018;2022-10-26 19:13:29:417
-15.0171;-12.708;2.0554;-3.5315;-9.1471;0.1745;8.7818;4.4068;-3.5858;0.5041;1.8809;-3.1864;1.0;21.17;41.94;-13.33;85.53;61.03;83.7;0.0;986.4;61.476;35.957825;-83.9244;828.97;NaN;;4.43;14.556843;146.9;14 / 16;77519;2022-10-26 19:13:29:918
-5.0515;-10.5305;0.6284;0.4132;-9.7004;1.3789;-3.3368;-0.6438;-3.3523;0.1526;0.5568;-1.4383;0.0;21.11;42.99;-17.36;154.89;73.62;73.29;0.0;986.2;64.104;35.957825;-83.9244;828.97;NaN;;4.43;14.556843;146.9;14 / 16;78018;2022-10-26 19:13:30:417
4.4554;-6.5767;-12.0242;-4.4396;-8.6957;0.9196;8.2667;4.1333;0.2356;0.1238;0.9352;-2.1464;0.0;19.76;38.06;-14.87;107.69;61.97;73.7;0.0;986.25;60.993;35.957813;-83.92439;829.1;NaN;;4.03;14.658511;137.4;14 / 16;78519;2022-10-26 19:13:30:918
-5.9973;-10.0181;1.7142;0.4853;-9.66;1.6182;4.0697;1.3684;2.5238;0.2001;0.6496;-1.3261;1.0;18.36;37.16;-12.83;267.82;80.08;-16.7;0.0;986.11;63.481;35.957813;-83.92439;829.1;NaN;;4.03;14.658511;137.4;14 / 16;79019;2022-10-26 19:13:31:418
-10.4276;-18.437;5.8247;-4.6341;-8.6112;0.7363;5.397;4.3588;-0.1722;0.4502;-0.4196;-1.2318;1.0;18.9;41.31;-13.46;82.21;61.41;80.97;0.0;986.29;61.211;35.957806;-83.924385;832.18;NaN;;4.0;14.998825;140.1;14 / 16;79518;2022-10-26 19:13:31:917
-3.8821;-10.4767;2.5017;-0.764;-9.6968;1.2486;4.0516;1.1655;3.8563;-0.2275;0.145;-0.843;1.0;23.29;41.27;-13.01;217.52;81.42;31.46;0.0;986.22;64.219;35.957806;-83.924385;832.18;NaN;;4.0;14.998825;140.1;14 / 16;80019;2022-10-26 19:13:32:418
-11.7945;-18.4274;3.0344;-4.6101;-8.6101;0.885;4.8772;3.0001;-0.6301;0.401;0.338;-0.9644;0.0;20.94;39.39;-11.06;142.85;65.12;71.26;0.0;986.26;60.029;35.957794;-83.92438;837.14;NaN;;4.1;14.781429;147.4;14 / 16;80518;2022-10-26 19:13:32:917
-9.568;-11.6402;-3.0464;1.9817;-9.3872;2.0309;-6.6382;-0.375;1.2124;-0.0052;0.1536;-1.1506;1.0;16.33;35.59;-11.49;212.29;80.38;33.13;0.0;986.22;67.795;35.957794;-83.92438;837.14;NaN;;4.1;14.781429;147.4;14 / 16;81018;2022-10-26 19:13:33:417
-9.9715;-17.9007;8.2179;-3.0141;-9.3094;0.6487;7.23;4.1023;-4.5325;0.6253;3.2964;-3.3673;1.0;17.46;41.55;-8.27;134.5;71.68;77.85;0.0;986.59;58.035;35.957783;-83.92437;841.47;NaN;;4.28;15.349608;165.6;14 / 16;81519;2022-10-26 19:13:33:918
-10.5126;-14.2986;-2.3378;1.812;-9.4272;2.004;-9.8358;-2.5695;-2.0083;-1.3193;-0.8801;2.1218;1.0;13.67;51.54;-11.01;311.13;74.01;-42.12;0.0;986.5;61.208;35.957783;-83.92437;841.47;NaN;;4.28;15.349608;165.6;14 / 16;82019;2022-10-26 19:13:34:418
-9.0233;-9.9081;3.5898;-1.8162;-9.5609;1.2089;6.8889;4.2033;-3.3034;0.5188;1.7475;-2.9386;0.0;24.69;49.76;-8.16;73.36;61.55;78.8;0.0;985.96;60.449;35.95777;-83.92437;845.08;NaN;;4.21;16.211922;176.4;14 / 16;82519;2022-10-26 19:13:34:918
-9.0197;-15.2037;-2.7473;1.5702;-9.5499;1.5822;-5.9415;-0.048;-0.6463;-0.4636;0.1913;0.2285;0.0;26.53;50.66;-8.91;218.71;81.27;43.02;0.0;986.66;62.994;35.95777;-83.92437;845.08;NaN;;4.21;16.211922;176.4;14 / 16;83019;2022-10-26 19:13:35:418
-13.7913;-12.0963;3.9514;-2.2911;-9.4977;0.8451;-2.7864;-1.8667;-2.6562;0.4152;0.857;-2.5119;0.0;27.81;41.44;-7.95;147.65;61.8;81.63;0.0;986.32;60.84;35.95776;-83.92437;849.4;NaN;;4.21;16.50795;172.9;13 / 16;83519;2022-10-26 19:13:35:918
-11.3599;-11.8149;-2.6085;1.0186;-9.6871;1.1373;-5.4231;-0.2645;-3.6996;-0.5246;0.1182;-0.7928;0.0;24.02;39.53;-12.47;297.04;81.04;-41.85;0.0;986.41;63.253;35.95776;-83.92437;849.4;NaN;;4.21;16.50795;172.9;13 / 16;84019;2022-10-26 19:13:36:418
-10.1294;-14.5047;-0.2692;-2.3121;-9.5088;0.6388;3.0562;1.0777;-1.4547;1.3261;-1.4968;0.3425;1.0;22.13;32.21;-12.26;120.46;70.59;94.76;0.0;986.14;60.174;35.957752;-83.924355;851.57;NaN;;4.28;15.187879;165.6;13 / 16;84519;2022-10-26 19:13:36:918
-2.898;-13.8452;0.9876;1.9921;-9.4997;1.399;-9.3163;-0.0397;-0.997;-0.1664;-0.5695;-2.1157;1.0;12.6;25.41;-9.94;230.39;80.4;13.83;0.0;986.25;66.432;35.957752;-83.924355;851.57;NaN;;4.28;15.187879;165.6;13 / 16;85019;2022-10-26 19:13:37:418
1.1073;-4.6253;-0.5124;-1.8571;-9.4445;1.877;-7.411;-6.861;-3.3438;-0.1262;-4.3641;2.0227;1.0;17.33;34.13;-10.48;133.36;69.97;69.17;0.0;985.93;58.456;35.95774;-83.924355;852.48;NaN;;4.39;14.760368;175.7;13 / 16;85518;2022-10-26 19:13:37:917
-7.7689;-12.2172;0.8716;1.6214;-9.5202;1.7048;-5.4227;0.1889;0.6212;-0.8158;-0.2006;0.8644;0.0;12.38;39.92;-12.58;266.16;79.56;-18.82;0.0;986.3;59.634;35.95774;-83.924355;852.48;NaN;;4.39;14.760368;175.7;13 / 16;86018;2022-10-26 19:13:38:417
3.0188;-7.8012;2.618;-1.5347;-9.6426;0.9142;-6.136;-5.2666;3.4623;0.3464;-4.8436;2.3367;1.0;23.33;46.89;-8.04;198.21;79.5;59.22;0.0;985.96;60.893;35.957726;-83.92435;855.55;NaN;;4.75;14.566954;153.6;13 / 16;86518;2022-10-26 19:13:38:917
-5.857;-11.2618;2.2457;1.3859;-9.6711;0.8484;-9.6094;-3.1448;-0.7499;-0.5687;-0.1475;-0.1805;0.0;19.24;54.15;-9.45;312.45;78.44;-45.8;0.0;986.14;66.294;35.957726;-83.92435;855.55;NaN;;4.75;14.566954;153.6;13 / 16;87018;2022-10-26 19:13:39:417
-15.8764;-18.3257;8.6294;-2.2073;-9.4938;1.0794;4.3031;3.0084;-1.7178;0.6661;-0.5553;0.3726;1.0;29.91;40.95;-7.73;197.32;75.49;63.94;0.0;985.93;57.986;35.957706;-83.92434;858.81;NaN;;4.79;14.521623;172.9;13 / 16;87518;2022-10-26 19:13:39:917
1.0271;-20.6049;0.5435;1.6935;-9.6031;1.0404;-8.2542;-1.7926;-0.1512;-0.5722;-0.9612;4.045;1.0;20.19;41.23;-11.51;312.32;78.31;-58.43;0.0;986.04;59.69;35.957706;-83.92434;858.81;NaN;;4.79;14.521623;172.9;13 / 16;88018;2022-10-26 19:13:40:417
-9.0879;-12.7738;-1.27;-1.1245;-9.631;1.4662;-11.8615;-7.3128;4.4107;1.0815;0.1561;-0.9171;1.0;19.5;34.39;-11.06;213.02;79.14;37.49;0.0;985.92;58.995;35.957695;-83.92433;859.86;NaN;;4.64;14.940277;154.0;13 / 16;88518;2022-10-26 19:13:40:917
-7.8814;-12.897;2.5005;1.7742;-9.5164;1.5689;-6.2352;0.1922;-0.3643;-1.1125;0.0492;2.9055;1.0;10.07;43.69;-13.93;297.47;76.02;-48.51;0.0;986.3;59.468;35.957695;-83.92433;859.86;NaN;;4.64;14.940277;154.0;13 / 16;89018;2022-10-26 19:13:41:417
-1.9092;-11.6725;2.3474;-2.898;-9.3654;0.2465;-2.5891;2.2527;-3.2011;0.8779;-2.2872;-1.0794;0.0;23.59;44.08;-10.84;140.11;72.75;85.14;0.0;985.97;58.283;35.957684;-83.92432;860.54;NaN;;4.32;14.322872;158.0;13 / 16;89518;2022-10-26 19:13:41:917
-6.4893;-11.8699;2.0578;2.4346;-9.4738;0.6998;-7.8775;-0.9588;1.4041;-0.7808;-0.3609;0.6444;0.0;20.33;40.61;-16.16;294.95;82.06;-52.16;0.0;986.32;60.668;35.957684;-83.92432;860.54;NaN;;4.32;14.322872;158.0;13 / 16;90018;2022-10-26 19:13:42:417
-10.4683;-17.0375;6.1959;-1.7409;-9.6168;0.8101;0.3004;0.1348;-1.7382;0.0652;0.3765;-2.2788;1.0;14.74;33.13;-19.33;99.4;63.61;76.13;0.0;985.85;62.09;35.957672;-83.92431;864.93;NaN;;4.32;13.871701;153.8;13 / 16;90519;2022-10-26 19:13:42:918
-7.0795;-10.5209;0.4848;1.9235;-9.5753;0.8852;-8.977;-1.4274;-0.1161;-0.2106;0.1553;-0.7636;1.0;4.35;42.21;-23.87;254.07;80.49;-48.26;0.0;985.99;57.896;35.957672;-83.92431;864.93;NaN;;4.32;13.871701;153.8;13 / 16;91018;2022-10-26 19:13:43:417
-6.5707;-14.8843;8.365;-2.411;-9.4897;0.5501;6.2116;4.7891;-4.0691;1.222;-0.8088;-0.2895;1.0;17.06;43.63;-26.81;91.74;63.9;77.79;0.0;985.82;58.8;35.957664;-83.9243;866.91;NaN;;4.43;13.38639;151.8;13 / 16;91520;2022-10-26 19:13:43:919
-6.0858;-10.8978;2.5977;2.1301;-9.4782;1.3406;-7.2048;0.5198;2.0822;-0.0764;0.309;-0.8635;0.0;26.1;36.6;-29.53;291.33;75.13;-57.82;0.0;985.98;58.247;35.957664;-83.9243;866.91;NaN;;4.43;13.38639;151.8;13 / 16;92019;2022-10-26 19:13:44:418
-14.0366;-17.7787;4.0675;-1.55;-9.6577;0.7049;-10.8083;-5.3653;4.8182;0.6611;1.0731;-3.1572;0.0;24.04;19.67;-20.7;121.31;60.91;87.34;0.0;985.86;56.493;35.957657;-83.92429;871.54;NaN;;4.18;12.8055;145.3;13 / 16;92518;2022-10-26 19:13:44:917
-7.552;-11.6258;0.7146;1.8033;-9.5732;1.1278;-4.6865;0.1038;1.7547;-0.7257;-0.2896;0.2482;1.0;11.59;30.94;-15.94;292.79;77.47;-57.98;0.0;986.24;62.134;35.957657;-83.92429;871.54;NaN;;4.18;12.8055;145.3;13 / 16;93019;2022-10-26 19:13:45:418
-11.1099;-9.4508;5.8044;-3.0393;-9.2795;0.9073;0.8908;2.1423;-2.167;0.6815;0.2072;0.3949;1.0;19.28;35.33;-13.8;103.41;61.97;78.84;0.0;985.83;56.545;35.95765;-83.924286;871.99;NaN;;4.43;12.226105;155.5;13 / 16;93519;2022-10-26 19:13:45:918
-6.5276;-11.2917;1.3825;1.8836;-9.5776;0.9446;-2.3678;-0.4138;1.2848;0.0013;0.0111;-1.9399;0.0;21.19;41.23;-15.04;193.37;86.81;42.28;0.0;986.4;59.484;35.95765;-83.924286;871.99;NaN;;4.43;12.226105;155.5;13 / 16;94019;2022-10-26 19:13:46:418
5.292;-4.7907;1.2305;-3.795;-9.0368;0.3216;8.1498;5.1897;-1.7902;0.333;0.528;-2.3309;0.0;22.89;41.25;-10.76;112.77;64.36;85.07;0.0;986.25;59.176;35.957638;-83.92428;871.08;NaN;;4.43;12.226105;148.5;13 / 16;94519;2022-10-26 19:13:46:918
-3.9658;-11.5923;-1.0379;0.3877;-9.707;1.3392;-3.0872;-0.8151;-1.6499;0.0161;-1.1514;-1.7215;0.0;30.41;37.97;-6.6;165.33;71.6;85.14;0.0;986.09;61.502;35.957638;-83.92428;871.08;NaN;;4.43;12.226105;148.5;13 / 16;95019;2022-10-26 19:13:47:418
-3.3769;-12.629;8.4727;-4.2227;-8.7418;1.3854;6.127;2.8464;-1.5108;0.0467;-0.3684;-2.0149;1.0;21.43;44.64;-8.59;128.97;63.65;68.34;0.0;986.2;60.339;35.957623;-83.92426;866.67;NaN;;4.32;12.226105;146.4;13 / 16;95518;2022-10-26 19:13:47:917
-9.2809;-11.7778;1.3932;-0.5158;-9.6049;1.9106;5.0545;1.0117;1.8858;0.2472;2.0061;-2.6124;1.0;27.0;42.58;-10.93;249.63;78.36;15.11;0.0;986.11;61.84;35.957623;-83.92426;866.67;NaN;;4.32;12.226105;146.4;13 / 16;96019;2022-10-26 19:13:48:418
6.67;-3.4881;-2.6575;-4.4221;-8.6782;1.1425;7.6278;4.6747;-0.5986;0.2985;0.4705;-2.1164;1.0;23.18;44.42;-14.91;116.54;62.55;71.0;0.0;986.23;57.905;35.957607;-83.924255;858.14;NaN;;4.32;12.226105;158.7;13 / 16;96519;2022-10-26 19:13:48:918
-5.9913;-12.1968;0.079;1.8282;-9.4881;1.6746;-7.1022;-0.177;0.6129;-0.1419;0.0631;-0.5536;0.0;23.34;43.35;-19.59;295.14;75.36;-47.51;0.0;986.08;63.566;35.957607;-83.924255;858.14;NaN;;4.32;12.226105;158.7;13 / 16;97019;2022-10-26 19:13:49:418
-18.638;-19.3537;3.8198;-4.8044;-8.5404;0.3862;5.3548;4.2585;0.4211;0.2184;0.1473;-1.1851;1.0;22.95;42.49;-18.56;115.8;63.39;73.7;0.0;986.21;57.262;35.95759;-83.92425;851.23;NaN;;4.21;12.226105;146.0;14 / 16;97518;2022-10-26 19:13:49:917
-4.0065;-10.4563;-0.2548;1.7909;-9.5881;1.0154;-4.4187;-0.1489;1.9074;0.0108;0.5254;-1.5587;0.0;28.2;38.66;-16.37;192.01;84.74;49.62;0.0;986.13;59.877;35.95759;-83.92425;851.23;NaN;;4.21;12.226105;146.0;14 / 16;98018;2022-10-26 19:13:50:417
5.0659;-3.8761;1.6687;-4.618;-8.6454;0.3185;1.5191;3.9788;-0.5685;0.1245;0.421;0.0061;1.0;21.47;41.46;-15.51;90.34;61.83;86.05;0.0;986.19;58.938;35.957577;-83.92423;846.37;NaN;;4.5;12.226105;151.5;14 / 16;98518;2022-10-26 19:13:50:917
-3.2728;-8.8355;4.2413;0.105;-9.75;1.0472;-0.2422;-0.0511;3.8762;0.1775;0.5238;-1.8273;1.0;23.79;37.46;-15.47;251.51;83.84;-5.73;0.0;986.03;65.196;35.957577;-83.92423;846.37;NaN;;4.5;12.226105;151.5;14 / 16;99018;2022-10-26 19:13:51:417
5.479;-3.821;1.27;-4.3168;-8.7601;0.8919;2.732;3.8076;-1.081;0.421;1.4908;0.6422;1.0;21.17;38.59;-14.7;108.79;63.29;78.33;0.0;986.19;56.369;35.95756;-83.924225;842.2;NaN;;4.5;12.226105;151.8;14 / 16;99519;2022-10-26 19:13:51:918
-4.8601;-9.8925;4.4794;1.263;-9.6436;1.2552;-4.9145;-1.6739;-2.3609;0.1031;-0.034;-2.2884;0.0;19.22;42.99;-16.09;291.95;79.54;-45.18;0.0;986.02;62.851;35.95756;-83.924225;842.2;NaN;;4.5;12.226105;151.8;14 / 16;100018;2022-10-26 19:13:52:417
-19.3011;-16.7169;5.6022;-3.0361;-9.3218;0.2363;7.1;4.593;-3.2278;0.3964;0.7772;-3.0192;0.0;18.66;42.21;-16.61;83.26;61.73;84.43;0.0;986.22;58.221;35.957542;-83.92421;840.28;NaN;;4.57;12.226105;148.9;14 / 16;100518;2022-10-26 19:13:52:917
-4.9116;-11.129;-8.0501;-1.1042;-9.6902;1.025;3.526;0.8272;1.9005;-0.6283;-0.6275;-2.1376;1.0;21.36;38.38;-18.22;182.92;81.16;47.13;0.0;986.11;57.755;35.957542;-83.92421;840.28;NaN;;4.57;12.226105;148.9;14 / 16;101019;2022-10-26 19:13:53:418
-10.1462;-16.9238;3.3972;-4.6817;-8.6018;0.5115;2.8424;4.3793;-0.5384;0.2908;1.4768;-2.6397;0.0;13.33;42.38;-18.9;85.21;67.15;79.62;0.0;986.16;59.891;35.95753;-83.9242;839.45;NaN;;4.43;12.226105;151.8;14 / 16;101519;2022-10-26 19:13:53:918
-5.3016;-10.7447;-0.3556;0.0839;-9.7628;0.9227;0.5115;0.4753;4.4839;-0.3971;-0.0902;-0.7296;1.0;19.88;42.36;-18.04;240.74;84.58;-5.2;0.0;986.04;63.099;35.95753;-83.9242;839.45;NaN;;4.43;12.226105;151.8;14 / 16;102019;2022-10-26 19:13:54:418
3.5336;-4.9666;0.6224;-4.2603;-8.7974;0.7914;4.3254;3.9419;-0.6492;0.6399;0.3475;-3.1998;1.0;16.71;41.87;-19.61;89.01;63.78;79.48;0.0;986.14;56.04;35.95752;-83.924194;840.09;NaN;;4.64;12.226105;141.2;14 / 16;102519;2022-10-26 19:13:54:918
-3.2022;-10.7913;2.5487;0.5545;-9.7551;0.8373;-5.7915;-0.9815;-3.7227;-0.5404;-0.3777;-1.6979;0.0;20.81;37.76;-21.13;125.16;72.95;80.21;0.0;986.03;63.361;35.95752;-83.924194;840.09;NaN;;4.64;12.226105;141.2;14 / 16;103019;2022-10-26 19:13:55:418
5.7123;-4.2987;-0.0622;-4.3212;-8.7755;0.6986;6.1201;3.4184;-0.1652;0.5672;1.3991;-1.2377;1.0;11.85;43.48;-20.1;81.45;65.9;75.86;0.0;986.04;57.08;35.957504;-83.92418;837.81;NaN;;4.93;12.226105;147.1;13 / 16;103519;2022-10-26 19:13:55:918
-5.9925;-12.4002;-16.1758;-2.436;-9.4909;0.3987;6.8214;-1.7049;3.3296;0.7774;0.6018;-2.5466;1.0;22.52;39.66;-17.44;138.1;75.42;80.7;0.0;985.94;62.646;35.957504;-83.92418;837.81;NaN;;4.93;12.226105;147.1;13 / 16;104019;2022-10-26 19:13:56:418
2.0698;-4.6421;0.3233;-3.9579;-8.9062;1.089;7.17;1.0962;-0.807;-0.0805;0.3674;0.0179;1.0;15.39;42.96;-18.15;87.74;65.25;74.62;0.0;986.02;57.781;35.95749;-83.92417;836.16;NaN;;5.0;12.226105;145.6;13 / 16;104519;2022-10-26 19:13:56:918
-7.6576;-9.8447;0.5231;-1.5579;-9.655;0.7246;7.0509;1.6381;2.4359;0.3027;1.143;-2.3885;1.0;20.48;40.13;-17.74;156.71;79.91;65.06;0.0;986.03;60.065;35.95749;-83.92417;836.16;NaN;;5.0;12.226105;145.6;13 / 16;105019;2022-10-26 19:13:57:418
3.457;-4.7788;-5.1006;-4.4777;-8.7136;0.4396;3.0911;3.6604;0.0353;0.2792;-0.05;-0.6632;1.0;17.89;42.66;-14.83;97.17;66.58;80.44;0.0;986.14;58.638;35.957474;-83.92416;835.06;NaN;;5.0;12.226105;144.4;12 / 16;105519;2022-10-26 19:13:57:918
-6.3299;-11.2259;2.0327;1.7479;-9.6235;0.7094;-7.607;-1.0134;-2.7405;0.2245;-0.4355;-2.2576;1.0;16.58;44.25;-17.12;132.91;83.59;83.27;0.0;985.98;58.643;35.957474;-83.92416;835.06;NaN;;5.0;12.226105;144.4;12 / 16;106019;2022-10-26 19:13:58:418
0.285;-11.8328;-2.7999;-4.4909;-8.6996;0.5645;3.3373;4.2905;-1.042;0.8637;2.9218;0.0159;1.0;13.71;44.42;-15.69;82.46;67.62;81.83;0.0;986.03;62.116;35.95746;-83.92415;832.01;NaN;;4.64;12.226105;141.0;12 / 16;106518;2022-10-26 19:13:58:917
-4.2281;-10.4013;-2.0243;0.3415;-9.7082;1.3436;1.4966;0.3628;4.0786;0.2189;0.2122;-1.6356;1.0;17.34;42.34;-15.81;255.53;81.87;-14.26;0.0;986.01;62.751;35.95746;-83.92415;832.01;NaN;;4.64;12.226105;141.0;12 / 16;107018;2022-10-26 19:13:59:417
3.2955;-4.0424;-0.6452;-3.9189;-8.8992;1.2718;3.9786;4.7678;-1.0019;0.2259;0.557;0.2571;1.0;14.27;43.16;-17.12;92.86;66.37;67.79;0.0;986.05;57.674;35.957447;-83.92414;831.63;NaN;;4.97;12.226105;150.5;13 / 16;107519;2022-10-26 19:13:59:918
-7.0062;-11.7467;1.1157;-0.2429;-9.7589;0.9352;3.0575;1.0822;3.9112;-0.3986;-0.3579;-1.8661;1.0;18.73;41.81;-18.77;215.74;84.35;14.56;0.0;985.95;66.556;35.957447;-83.92414;831.63;NaN;;4.97;12.226105;150.5;13 / 16;108019;2022-10-26 19:14:00:418
-9.3538;-17.8158;1.9044;-4.4296;-8.7049;0.88;2.793;4.6249;-1.9584;0.2035;1.0946;-0.2275;0.0;14.4;43.09;-18.34;73.22;62.58;78.76;0.0;986.12;54.99;35.957436;-83.92413;829.26;NaN;;4.79;12.226105;146.2;13 / 16;108519;2022-10-26 19:14:00:918
-6.8291;-10.5066;-1.5742;1.7333;-9.5673;1.2779;-6.9501;0.3962;1.0267;-0.2827;0.0914;-2.249;1.0;17.89;42.71;-16.43;170.9;81.47;54.97;0.0;986.0;65.68;35.957436;-83.92413;829.26;NaN;;4.79;12.226105;146.2;13 / 16;109019;2022-10-26 19:14:01:418
0.9697;-4.7569;0.0431;-4.3969;-8.7197;0.8971;2.7211;4.5708;-1.9549;-0.0589;1.3261;-2.4774;1.0;14.53;44.16;-16.05;88.49;66.6;74.59;0.0;986.1;55.266;35.957424;-83.92412;828.92;NaN;;4.79;12.226105;135.1;13 / 16;109518;2022-10-26 19:14:01:917
-6.2988;-10.2526;-2.0841;0.0101;-9.6897;1.5097;0.813;0.1062;0.8905;0.3062;0.7849;-2.3171;1.0;19.78;42.39;-15.43;247.75;81.14;-0.38;0.0;986.13;63.888;35.957424;-83.92412;828.92;NaN;;4.79;12.226105;135.1;13 / 16;110019;2022-10-26 19:14:02:418
-14.0438;-18.4514;0.9494;-4.9335;-8.4377;0.7978;9.1319;4.583;0.612;0.7424;1.4324;0.4345;1.0;21.15;41.98;-11.94;95.29;61.92;77.16;0.0;986.19;54.796;35.957417;-83.92411;830.31;NaN;;4.54;12.226105;138.9;13 / 16;110518;2022-10-26 19:14:02:917
0.2357;-9.7439;5.6812;0.6417;-9.64;1.6818;-1.5426;-0.0845;2.4592;0.3336;0.7119;-2.4499;1.0;21.41;43.07;-15.38;273.38;79.42;-20.88;0.0;986.03;60.726;35.957417;-83.92411;830.31;NaN;;4.54;12.226105;138.9;13 / 16;111019;2022-10-26 19:14:03:418
6.676;-3.76;1.0654;-4.0369;-8.8847;0.968;6.5787;1.0473;-1.4179;0.409;0.134;-2.284;0.0;15.75;43.78;-18.24;86.98;64.96;76.52;0.0;986.08;59.734;35.95741;-83.9241;827.87;NaN;;4.43;12.226105;149.7;13 / 16;111519;2022-10-26 19:14:03:918
-4.0172;-8.7769;1.5227;-2.0465;-9.571;0.6155;7.8133;0.3408;2.6896;1.1684;1.464;-2.7606;1.0;19.18;42.66;-18.86;151.19;77.41;73.26;0.0;985.98;65.24;35.95741;-83.9241;827.87;NaN;;4.43;12.226105;149.7;13 / 16;112019;2022-10-26 19:14:04:418
-4.823;-5.4682;0.5088;-4.1156;-8.8559;0.8971;3.8677;4.2647;-1.8015;0.337;0.1683;-0.4164;0.0;15.23;44.93;-17.91;97.38;73.46;87.7;0.0;986.06;55.872;35.957397;-83.924095;828.0;NaN;;4.5;12.226105;149.8;13 / 16;112519;2022-10-26 19:14:04:918
-2.8741;-9.0509;4.7895;-1.164;-9.7067;0.7719;4.8132;2.5299;2.4458;0.8388;-0.1274;-2.4724;0.0;22.63;41.79;-17.61;135.45;72.85;77.5;0.0;985.99;55.683;35.957397;-83.924095;828.0;NaN;;4.5;12.226105;149.8;13 / 16;113019;2022-10-26 19:14:05:418
-0.3257;-5.7781;0.8608;-4.773;-8.5617;0.2928;2.6476;3.8252;-0.1192;0.1833;1.3205;0.408;0.0;16.82;45.53;-14.31;62.03;60.82;86.49;0.0;986.03;55.47;35.957382;-83.92408;827.76;NaN;;4.57;12.226105;144.2;12 / 16;113518;2022-10-26 19:14:05:917
0.067;-10.2993;3.9;-2.3598;-9.5074;0.4596;7.673;0.0267;1.8477;-0.4946;-0.5776;-1.4339;1.0;24.92;45.11;-11.19;157.87;75.81;78.98;0.0;985.93;57.798;35.957382;-83.92408;827.76;NaN;;4.57;12.226105;144.2;12 / 16;114018;2022-10-26 19:14:06:417
2.4957;-8.0812;0.6787;-4.13;-8.846;0.9282;7.1005;0.2255;0.5053;1.259;-1.7014;1.9621;1.0;17.27;48.36;-12.43;112.59;80.84;101.89;0.0;985.97;57.291;35.957375;-83.92407;827.06;NaN;;4.79;12.226105;140.1;12 / 16;114519;2022-10-26 19:14:06:918
0.207;-9.6876;4.2329;-0.8497;-9.7226;0.9584;3.6086;1.7087;2.757;0.0046;-0.072;-2.1366;0.0;29.74;39.98;-9.94;200.63;68.7;61.63;0.0;985.82;65.262;35.957375;-83.92407;827.06;NaN;;4.79;12.226105;140.1;12 / 16;115018;2022-10-26 19:14:07:417
2.6468;-6.6281;0.2524;-3.9762;-8.8907;1.1469;8.0256;-5.0113;3.0624;0.3356;2.1917;0.0607;1.0;19.41;44.96;-12.97;96.53;65.04;73.91;0.0;986.23;54.597;35.957363;-83.924065;826.34;NaN;;4.86;12.226105;147.6;13 / 16;115519;2022-10-26 19:14:07:918
3.414;-9.2713;6.1887;-2.186;-9.4999;1.0695;7.4581;0.2092;-0.3489;-0.5157;-0.3222;-1.9552;1.0;24.86;39.88;-14.4;174.9;75.63;63.93;0.0;985.94;60.069;35.957363;-83.924065;826.34;NaN;;4.86;12.226105;147.6;13 / 16;116018;2022-10-26 19:14:08:417
5.9471;-4.9415;-3.9419;-4.2898;-8.74;1.1752;7.7605;0.3766;-0.5142;0.2762;1.1168;-2.1589;0.0;19.82;42.43;-14.02;152.32;83.57;77.4;0.0;986.02;59.85;35.95735;-83.92405;824.6;NaN;;4.64;12.226105;148.0;13 / 16;116519;2022-10-26 19:14:08:918
-0.5028;-9.7403;3.6631;-0.2203;-9.7818;0.6615;2.064;1.1906;4.2005;1.3746;0.7337;-2.4217;1.0;26.66;38.31;-12.52;164.01;72.13;73.37;0.0;985.93;62.183;35.95735;-83.92405;824.6;NaN;;4.64;12.226105;148.0;13 / 16;117018;2022-10-26 19:14:09:417
-3.7086;-3.3577;0.7146;-4.0772;-8.854;1.0742;9.1976;-2.0831;-0.624;0.5354;-0.0829;-1.0959;1.0;19.88;42.47;-12.49;108.39;64.54;75.24;0.0;985.96;61.024;35.957344;-83.92404;824.46;NaN;;4.97;12.226105;146.6;13 / 16;117519;2022-10-26 19:14:09:918
-4.8661;-9.8483;4.3777;-0.5205;-9.7368;1.0461;3.9871;0.9686;2.341;0.6;0.8353;-2.7467;0.0;28.14;39.36;-11.62;203.4;67.56;56.33;0.0;985.92;64.436;35.957344;-83.92404;824.46;NaN;;4.97;12.226105;146.6;13 / 16;118018;2022-10-26 19:14:10:417
-3.4439;-4.2051;-2.0865;-4.3619;-8.7319;0.9477;4.8111;3.3405;-3.0184;0.4328;0.4292;-0.4959;1.0;19.63;43.76;-13.99;90.13;62.92;77.74;0.0;986.04;58.045;35.95733;-83.924034;824.16;NaN;;4.79;12.226105;154.8;13 / 16;118518;2022-10-26 19:14:10:917
-9.1753;-11.651;-16.6211;-1.1154;-9.7131;0.7625;4.2458;1.8655;2.9587;0.8317;0.0915;-2.3485;1.0;24.88;41.46;-11.79;191.06;82.08;55.64;0.0;985.91;61.316;35.95733;-83.924034;824.16;NaN;;4.79;12.226105;154.8;13 / 16;119019;2022-10-26 19:14:11:418
2.5714;-4.5667;1.0738;-4.3481;-8.7591;0.7364;2.8903;4.7129;-0.6544;0.6934;2.4676;0.1935;1.0;16.67;44.93;-12.86;109.69;70.23;76.84;0.0;985.97;59.032;35.957317;-83.92403;823.64;NaN;;4.82;12.226105;152.5;13 / 16;119518;2022-10-26 19:14:11:917
1.5526;-7.5652;3.3302;-2.0184;-9.5856;0.4606;7.0592;-1.3886;3.883;1.1814;0.1901;-2.5555;1.0;27.94;38.72;-9.39;172.89;77.81;77.15;0.0;985.9;62.619;35.957317;-83.92403;823.64;NaN;;4.82;12.226105;152.5;13 / 16;120018;2022-10-26 19:14:12:417
1.7847;-4.532;-0.0981;-3.794;-8.8909;1.6517;8.8155;-5.7303;2.0258;1.213;1.6314;0.895;1.0;18.58;42.9;-11.7;120.24;65.04;66.47;0.0;986.04;60.528;35.957302;-83.92402;822.06;NaN;;4.86;12.226105;152.9;13 / 16;120518;2022-10-26 19:14:12:917
-3.5743;-9.8387;4.0292;-2.2121;-9.5481;0.3331;5.9187;-1.957;2.9128;0.8637;-0.0633;-2.2489;0.0;28.11;37.59;-10.46;201.43;70.25;59.22;0.0;985.88;65.178;35.957302;-83.92402;822.06;NaN;;4.86;12.226105;152.9;13 / 16;121019;2022-10-26 19:14:13:418
-2.3581;-4.8314;-0.6739;-4.2837;-8.7277;1.2834;6.2842;3.8982;-4.2294;0.4058;2.4313;-0.004;0.0;16.69;44.93;-10.33;53.54;62.87;73.32;0.0;986.04;56.055;35.95729;-83.92401;822.37;NaN;;4.97;12.226105;154.6;13 / 16;121519;2022-10-26 19:14:13:918
-5.959;-12.5462;-9.5979;0.6524;-9.6389;1.684;-1.1738;-0.0582;-0.524;-0.2009;0.69;-2.985;1.0;25.61;41.53;-9.19;180.29;73.8;70.75;0.0;985.94;64.14;35.95729;-83.92401;822.37;NaN;;4.97;12.226105;154.6;13 / 16;122020;2022-10-26 19:14:14:419
7.7342;-3.6763;0.1735;-4.7566;-8.5391;0.7928;2.9691;4.9608;-0.9391;0.2375;2.1103;0.6041;1.0;22.05;43.33;-9.23;79.66;60.55;80.54;0.0;986.05;57.179;35.95728;-83.92401;822.68;NaN;;5.26;12.226105;156.5;12 / 16;122518;2022-10-26 19:14:14:917
-7.9256;-11.3061;0.4561;-0.7358;-9.6962;1.27;3.858;1.0815;1.9567;-0.2944;-0.5598;-2.177;1.0;24.79;44.03;-8.03;218.55;67.36;59.25;0.0;985.94;62.333;35.95728;-83.92401;822.68;NaN;;5.26;12.226105;156.5;12 / 16;123019;2022-10-26 19:14:15:418
-12.8946;-19.3202;1.89;-4.485;-8.7014;0.5844;3.9676;3.5274;0.1067;0.3314;0.8608;-3.3706;0.0;23.1;44.04;-7.37;180.79;67.41;72.9;0.0;986.1;55.067;35.957264;-83.924;822.66;NaN;;5.11;12.226105;163.8;12 / 16;123519;2022-10-26 19:14:15:918
-7.43;-10.8081;-0.0897;1.6885;-9.5341;1.5555;-6.9706;0.1706;1.9135;-0.3788;-0.2958;-1.8285;1.0;27.77;40.78;-8.12;223.14;81.49;39.47;0.0;985.96;63.418;35.957264;-83.924;822.66;NaN;;5.11;12.226105;163.8;12 / 16;124019;2022-10-26 19:14:16:418
-17.289;-18.2333;7.9711;-4.9391;-8.4499;0.6121;5.2067;4.5603;-0.588;0.5158;1.1275;-3.1245;1.0;27.41;39.54;-5.79;142.43;59.5;82.94;0.0;986.14;58.638;35.95725;-83.92399;823.73;NaN;;5.18;12.226105;163.9;12 / 16;124519;2022-10-26 19:14:16:918
-5.1401;-9.5991;1.5407;1.9761;-9.4854;1.5141;-6.7392;-0.1864;1.6618;-0.3118;-0.2204;-2.0744;1.0;23.38;42.58;-9.37;222.84;81.3;36.49;0.0;985.97;62.341;35.95725;-83.92399;823.73;NaN;;5.18;12.226105;163.9;12 / 16;125019;2022-10-26 19:14:17:418
-7.0256;-14.9381;3.6126;-4.9079;-8.4738;0.5262;2.6083;3.3633;0.0095;0.5335;1.996;-3.2812;0.0;25.35;39.11;-7.37;120.14;59.78;83.88;0.0;986.13;57.905;35.95724;-83.92399;820.53;NaN;;5.11;12.226105;165.0;13 / 16;125519;2022-10-26 19:14:17:918
-4.1967;-9.8746;4.7955;1.6557;-9.5764;1.3118;-5.5346;-1.6181;-4.5017;-0.6609;-0.1051;0.0453;1.0;22.18;42.34;-7.67;316.54;77.56;-51.61;0.0;985.97;61.51;35.95724;-83.92399;820.53;NaN;;5.11;12.226105;165.0;13 / 16;126019;2022-10-26 19:14:18:418
7.1489;-3.9957;-4.2604;-2.3026;-9.4882;0.9176;8.3064;5.042;-0.4726;0.1923;1.0447;-2.262;1.0;22.8;40.89;-6.02;142.17;61.36;77.62;0.0;986.1;58.942;35.957226;-83.92398;818.87;NaN;;5.26;12.226105;158.5;13 / 16;126518;2022-10-26 19:14:18:917
-6.2892;-11.4867;2.5965;1.8144;-9.5398;1.3676;-8.3433;-1.2076;-1.7138;-0.7055;0.0579;0.2465;1.0;20.83;43.26;-6.62;204.01;82.91;57.37;0.0;986.06;68.188;35.957226;-83.92398;818.87;NaN;;5.26;12.226105;158.5;13 / 16;127019;2022-10-26 19:14:19:418
2.3629;-8.0297;-6.7848;-1.7586;-9.5774;1.1625;-5.133;-4.383;1.6484;-0.0893;1.332;-2.5958;0.0;22.88;41.1;-5.34;201.51;64.0;74.71;0.0;985.69;52.8;35.957207;-83.92398;817.67;NaN;;5.08;12.226105;170.7;14 / 16;127519;2022-10-26 19:14:19:918
-5.8463;-11.8196;0.5136;1.8686;-9.5331;1.3412;-5.0662;-1.3664;-5.8045;-0.617;-0.1456;0.0155;0.0;21.64;43.41;-7.33;205.75;81.38;53.84;0.0;986.42;53.21;35.957207;-83.92398;817.67;NaN;;5.08;12.226105;170.7;14 / 16;128018;2022-10-26 19:14:20:417
-9.6398;-8.1879;5.0444;-2.3448;-9.49;0.7824;-6.0802;-1.8174;-0.2353;0.6575;-0.2805;-1.4941;1.0;26.38;39.08;-5.98;169.84;61.92;79.0;0.0;985.62;53.874;35.957195;-83.92397;817.33;NaN;;5.11;12.226105;172.6;14 / 16;128519;2022-10-26 19:14:20:918
-9.1047;-12.2351;-2.0471;1.6773;-9.591;1.1703;-6.6627;-0.7357;-4.4923;-1.1737;-0.9735;2.325;1.0;19.67;43.5;-7.2;321.1;77.96;-55.1;0.0;986.22;58.629;35.957195;-83.92397;817.33;NaN;;5.11;12.226105;172.6;14 / 16;129019;2022-10-26 19:14:21:418
-11.7407;-15.364;2.5415;-2.6174;-9.4509;0.0339;7.4462;4.5062;-3.9363;0.9034;0.9399;-3.0334;0.0;23.06;40.76;-4.56;154.75;63.0;80.41;0.0;985.54;59.556;35.957184;-83.923965;817.12;NaN;;5.08;12.226105;160.9;14 / 16;129518;2022-10-26 19:14:21:917
-6.8698;-10.5616;1.4079;2.6924;-9.391;0.8547;-7.2713;0.11;1.4207;-1.1462;-1.3789;2.5333;1.0;24.56;41.63;-4.35;263.89;86.14;3.42;0.0;985.88;55.288;35.957184;-83.923965;817.12;NaN;;5.08;12.226105;160.9;14 / 16;130019;2022-10-26 19:14:22:418
-9.8327;-20.0399;-1.3789;-0.7191;-9.6299;1.7086;-11.978;-7.0647;2.3893;1.2456;3.2234;-3.2155;1.0;23.72;41.55;-3.6;211.55;66.47;72.8;0.0;985.74;56.913;35.957172;-83.923965;813.16;NaN;;5.0;12.226105;164.1;14 / 16;130518;2022-10-26 19:14:22:917
-0.0072;-21.146;1.5179;0.7954;-9.7664;0.3947;-9.8759;-3.1637;-0.4896;-1.0726;-0.3662;3.8279;1.0;18.98;45.94;-4.52;329.08;74.73;-56.08;0.0;985.89;54.695;35.957172;-83.923965;813.16;NaN;;5.0;12.226105;164.1;14 / 16;131019;2022-10-26 19:14:23:418
-9.1657;-20.4072;-0.7002;-1.3887;-9.6472;1.0834;-7.2471;-5.9723;2.4799;1.3765;0.3305;-1.6978;1.0;29.57;38.1;0.56;230.54;79.65;52.04;0.0;985.83;56.288;35.957157;-83.92396;815.19;NaN;;5.72;12.226105;181.6;13 / 16;131518;2022-10-26 19:14:23:917
2.6886;-21.5384;0.7301;2.4649;-9.3771;1.471;-8.4469;-1.6202;-1.1212;-0.7345;-0.2801;0.6764;1.0;19.78;45.32;-2.64;335.49;72.98;-59.17;0.0;986.11;52.412;35.957157;-83.92396;815.19;NaN;;5.72;12.226105;181.6;13 / 16;132019;2022-10-26 19:14:24:418
3.2381;-5.9686;-0.984;-2.0053;-9.5269;1.1776;-4.4543;-3.3695;-1.6202;0.7667;-3.2428;1.8092;0.0;28.73;38.91;0.6;219.19;62.03;80.87;0.0;985.88;53.478;35.957146;-83.923965;812.75;NaN;;4.9;12.226105;172.8;13 / 16;132518;2022-10-26 19:14:24:917
0.2886;-21.7014;2.4514;1.5394;-9.6613;0.6784;-8.4162;-4.453;-2.3396;-1.4725;-0.2472;2.7836;0.0;20.61;44.98;-6.79;328.07;80.12;-66.22;0.0;986.17;55.989;35.957146;-83.923965;812.75;NaN;;4.9;12.226105;172.8;13 / 16;133018;2022-10-26 19:14:25:417
4.9367;-7.9938;3.8031;-2.704;-9.1425;2.2964;-0.2722;-7.0285;-4.7896;-0.1161;-1.0875;1.7358;1.0;30.58;38.16;-3.97;237.85;68.79;49.66;0.0;985.91;54.921;35.95713;-83.92396;811.84;NaN;;5.18;12.226105;176.7;13 / 16;133518;2022-10-26 19:14:25:917
-3.2548;-12.1956;2.1344;-0.5252;-9.7908;-0.1852;-5.6312;-2.4623;1.8612;-1.4945;-0.8634;2.7386;1.0;19.59;45.09;-4.31;337.31;71.13;-63.63;0.0;986.01;55.686;35.95713;-83.92396;811.84;NaN;;5.18;12.226105;176.7;13 / 16;134018;2022-10-26 19:14:26:417
4.7859;-4.52;1.142;-2.9129;-9.315;0.9576;-16.212;-6.0271;2.1807;0.2526;-0.7286;1.0219;1.0;29.21;36.92;-0.09;211.81;71.78;71.8;0.0;986.27;61.554;35.95712;-83.923965;809.75;NaN;;4.82;12.226105;179.6;13 / 16;134518;2022-10-26 19:14:26:917
-9.3431;-11.7933;1.6986;1.8091;-9.6265;0.4781;-11.3689;-3.1892;0.6164;-0.4453;0.1763;-0.1707;0.0;18.94;43.33;1.07;347.19;76.57;-67.83;0.0;986.03;52.325;35.95712;-83.923965;809.75;NaN;;4.82;12.226105;179.6;13 / 16;135019;2022-10-26 19:14:27:418
5.2944;-5.6082;4.3322;-1.7075;-9.5951;1.09;-3.2017;-4.2368;-1.989;0.4026;-3.7104;2.3432;1.0;26.72;39.15;0.24;225.63;78.08;57.45;0.0;985.82;56.599;35.957108;-83.923965;806.19;NaN;;4.9;12.226105;184.7;13 / 16;135519;2022-10-26 19:14:27:918
5.5196;-17.4338;4.5978;0.8372;-9.7567;0.525;-8.6163;-2.9167;-1.1283;-1.1247;-0.7144;3.5166;0.0;18.69;45.34;-2.53;331.02;75.86;-51.46;0.0;985.96;62.422;35.957108;-83.923965;806.19;NaN;;4.9;12.226105;184.7;13 / 16;136019;2022-10-26 19:14:28:418
1.5191;-5.7482;-2.2193;-1.1088;-9.5531;1.9184;-12.2463;-7.7575;-0.9032;1.6186;0.8663;-2.325;1.0;29.21;38.12;-3.56;248.88;76.94;30.03;0.0;985.88;59.143;35.957096;-83.923965;805.04;NaN;;4.82;12.226105;186.8;13 / 16;136519;2022-10-26 19:14:28:918
0.1304;-19.5407;1.3944;-0.8319;-9.7712;-0.0473;-2.9472;-2.4817;1.4984;-0.2837;-0.4345;3.9084;1.0;20.06;43.84;-7.44;334.56;73.67;-70.12;0.0;985.93;67.54;35.957096;-83.923965;805.04;NaN;;4.82;12.226105;186.8;13 / 16;137021;2022-10-26 19:14:29:420
5.953;-11.7323;-1.8458;-0.8049;-9.622;1.7147;-12.2464;-4.8819;3.7001;1.1556;-0.7911;-0.0668;1.0;24.84;35.91;-3.09;199.95;65.77;76.5;0.0;985.85;53.853;35.957085;-83.923965;803.92;NaN;;4.46;12.226105;179.6;13 / 16;137519;2022-10-26 19:14:29:918
-1.0774;-11.9261;1.1085;0.4563;-9.7872;0.4156;-7.6963;-3.6077;-1.5448;-0.8882;-0.5604;3.6077;1.0;15.98;41.12;-2.85;334.91;74.7;-59.84;0.0;985.9;63.989;35.957085;-83.923965;803.92;NaN;;4.46;12.226105;179.6;13 / 16;138018;2022-10-26 19:14:30:417
6.0667;-8.9695;-0.37;-1.4262;-9.6348;1.1433;-9.4965;-6.6109;3.4398;0.7381;-0.3925;-1.1062;1.0;24.08;39.21;4.93;246.93;79.26;51.28;0.0;985.95;54.836;35.957073;-83.92397;804.31;NaN;;4.79;12.226105;185.1;13 / 16;138519;2022-10-26 19:14:30:918
-5.1508;-14.2998;-0.3114;2.0648;-9.5245;1.091;-8.2106;-1.7057;0.8649;-0.9541;-1.1887;2.3947;1.0;11.79;51.69;4.09;355.17;76.22;-62.15;0.0;986.01;63.403;35.957073;-83.92397;804.31;NaN;;4.79;12.226105;185.1;13 / 16;139019;2022-10-26 19:14:31:418
7.0747;-11.1099;1.0343;-1.338;-9.5928;1.5357;-2.3606;3.9914;-3.0546;0.2107;-2.0353;2.2746;1.0;24.47;47.59;0.02;229.1;78.47;59.27;0.0;985.76;56.334;35.95706;-83.92397;805.48;NaN;;4.9;12.226105;189.0;13 / 15;139519;2022-10-26 19:14:31:918
-8.584;-14.2926;-1.5024;1.7334;-9.6139;0.8595;-9.65;-2.7068;-0.1228;-0.2237;0.157;-0.441;1.0;21.81;48.75;-2.72;337.66;74.06;-62.81;0.0;985.95;61.204;35.95706;-83.92397;805.48;NaN;;4.9;12.226105;189.0;13 / 15;140019;2022-10-26 19:14:32:418
-10.9579;-20.144;-0.1519;-2.1185;-9.5596;0.5441;3.3647;1.5276;-2.5287;0.8469;-1.2325;0.2619;1.0;28.56;42.26;1.22;204.72;77.11;75.6;0.0;985.74;57.47;35.957047;-83.92397;803.84;NaN;;4.9;12.226105;184.6;13 / 16;140519;2022-10-26 19:14:32:918
-11.0273;-12.9975;-3.0981;2.2198;-9.5014;0.9833;-8.0785;-0.7287;0.1443;-1.0197;0.2143;3.5591;1.0;20.23;46.67;2.08;348.24;75.67;-66.11;0.0;985.89;51.475;35.957047;-83.92397;803.84;NaN;;4.9;12.226105;184.6;13 / 16;141018;2022-10-26 19:14:33:417
-13.6546;-12.964;3.3206;-1.4046;-9.6626;0.9115;-3.9361;-4.1559;-1.5837;1.0473;0.9761;-1.9971;1.0;24.62;40.91;6.88;249.3;65.47;79.92;0.0;985.64;54.818;35.957035;-83.92398;801.74;NaN;;4.75;12.226105;198.5;13 / 16;141518;2022-10-26 19:14:33:917
-11.2917;-14.0115;-1.9693;1.8593;-9.5666;1.0922;-9.8663;-1.7821;0.0248;-1.1175;-0.0279;2.181;1.0;15.3;44.4;9.13;347.54;78.58;-47.42;0.0;985.89;53.749;35.957035;-83.92398;801.74;NaN;;4.75;12.226105;198.5;13 / 16;142019;2022-10-26 19:14:34:418
-5.7577;-17.4529;-2.0399;-1.4755;-9.6419;1.0138;-13.4857;-6.916;1.9367;0.7468;1.2547;-2.2233;1.0;18.51;41.51;13.29;270.29;66.81;85.45;0.0;985.66;56.666;35.957024;-83.92399;801.91;NaN;;4.9;12.226105;209.7;13 / 16;142519;2022-10-26 19:14:34:918
-4.1082;-11.7455;3.2453;2.2629;-9.4068;1.6004;-5.7505;0.0655;0.0305;-0.3175;-0.0788;-0.1508;1.0;15.02;45.86;10.16;336.7;79.85;-23.07;0.0;985.95;54.919;35.957024;-83.92399;801.91;NaN;;4.9;12.226105;209.7;13 / 16;143019;2022-10-26 19:14:35:418
-10.637;-10.7674;1.1767;-3.7639;-9.0291;0.6925;5.5889;3.7882;-0.116;0.3936;0.051;-1.6732;1.0;19.18;45.15;11.01;278.73;67.03;79.58;0.0;986.02;56.25;35.957016;-83.924;802.09;NaN;;4.72;12.226105;206.1;13 / 16;143518;2022-10-26 19:14:35:917
-2.5582;-8.8044;2.4837;1.8414;-9.5126;1.5133;-5.2922;-0.2313;-0.3361;0.0321;0.211;-1.4573;1.0;16.37;51.28;4.26;345.25;75.93;-50.59;0.0;985.88;55.368;35.957016;-83.924;802.09;NaN;;4.72;12.226105;206.1;13 / 16;144018;2022-10-26 19:14:36:417
-12.7522;-19.1049;5.3617;-4.3128;-8.7793;0.7021;3.0065;3.4017;0.0092;0.7006;-0.4019;-1.4624;1.0;22.16;48.32;4.2;256.8;70.95;70.24;0.0;986.03;54.708;35.957005;-83.92401;802.03;NaN;;4.72;12.226105;208.9;13 / 16;144519;2022-10-26 19:14:36:918
-8.5481;-12.4146;-0.5387;1.449;-9.597;1.4031;-5.3178;-0.6411;-3.1295;-0.526;-0.5012;-0.4056;1.0;24.83;45.62;0.34;327.25;78.13;-45.92;0.0;985.92;60.427;35.957005;-83.92401;802.03;NaN;;4.72;12.226105;208.9;13 / 16;145019;2022-10-26 19:14:37:418
-12.9497;-10.2945;1.6938;-2.739;-9.4137;0.2246;6.1936;4.1362;-4.3072;0.2497;0.2795;-1.4817;1.0;25.13;41.87;1.69;257.4;61.85;79.1;0.0;986.0;53.273;35.956993;-83.92402;801.63;NaN;;4.86;12.226105;194.4;13 / 16;145519;2022-10-26 19:14:37:918
-2.6073;-9.769;0.6846;0.8202;-9.7318;0.8886;-3.8564;0.0514;-3.2597;0.1218;0.9542;-1.5638;0.0;21.56;45.19;1.41;323.7;82.92;-42.71;0.0;985.93;63.643;35.956993;-83.92402;801.63;NaN;;4.86;12.226105;194.4;13 / 16;146018;2022-10-26 19:14:38:417
3.1687;-5.4455;-10.2431;-3.2909;-9.2263;0.4642;9.0346;6.005;-2.3452;-0.0254;0.4406;-0.6475;1.0;23.14;42.0;3.68;265.72;63.74;76.83;0.0;985.98;53.449;35.956985;-83.92403;802.36;NaN;;4.68;12.226105;197.9;13 / 16;146518;2022-10-26 19:14:38:917
-4.7545;-9.9966;-0.2106;1.2447;-9.6704;1.051;-5.2053;-0.4019;-0.8249;0.2556;0.3184;-1.6662;1.0;20.33;45.56;1.91;229.35;81.04;59.29;0.0;985.92;65.386;35.956985;-83.92403;802.36;NaN;;4.68;12.226105;197.9;13 / 16;147019;2022-10-26 19:14:39:418
-4.3645;-10.267;-5.8128;-4.1362;-8.8358;0.9952;6.093;3.8038;-0.4444;0.2309;0.2972;-1.2615;1.0;19.33;44.98;3.17;272.28;68.52;73.4;0.0;986.01;53.029;35.95697;-83.92403;802.94;NaN;;4.68;12.226105;191.4;12 / 16;147519;2022-10-26 19:14:39:918
-3.0945;-9.6087;0.827;1.4745;-9.6268;1.1491;-4.5424;-0.4066;-0.8055;0.3555;0.9651;-1.8248;1.0;22.93;44.21;3.88;234.38;82.73;56.95;0.0;985.87;61.827;35.95697;-83.92403;802.94;NaN;;4.68;12.226105;191.4;12 / 16;148019;2022-10-26 19:14:40:418
6.4786;-3.1412;-1.6926;-4.389;-8.705;1.0633;2.8655;2.5234;-0.456;-0.0927;1.4311;0.3294;1.0;19.93;45.19;6.13;294.13;62.58;76.38;0.0;986.02;53.879;35.95696;-83.924034;802.38;NaN;;4.5;12.226105;192.5;12 / 16;148518;2022-10-26 19:14:40:917
-0.9709;-9.6589;3.1029;0.5865;-9.7043;1.2854;-2.187;0.2082;-0.4384;0.1127;0.4294;-1.6527;1.0;22.88;45.6;6.36;248.44;84.49;46.27;0.0;985.83;59.394;35.95696;-83.924034;802.38;NaN;;4.5;12.226105;192.5;12 / 16;149018;2022-10-26 19:14:41:417
4.6469;-4.6505;1.3932;-3.6731;-9.0404;0.9742;3.922;0.8694;-1.6122;0.7204;1.1253;1.1594;1.0;17.7;46.61;6.96;205.81;83.25;92.76;0.0;985.96;56.243;35.95695;-83.92404;802.52;NaN;;4.68;12.226105;201.4;12 / 16;149518;2022-10-26 19:14:41:917
-2.9913;-9.1908;-1.3322;-1.4644;-9.6774;0.6112;0.8939;1.137;2.5709;1.012;0.6049;-2.0193;1.0;24.66;42.49;7.74;232.76;80.69;67.34;0.0;985.76;60.26;35.95695;-83.92404;802.52;NaN;;4.68;12.226105;201.4;12 / 16;150019;2022-10-26 19:14:42:418
0.9206;-5.6022;0.3425;-3.821;-8.9928;0.837;4.2972;2.6197;-1.7145;0.0761;-0.0215;-0.4776;1.0;15.36;45.81;10.61;244.58;79.19;87.23;0.0;985.97;55.74;35.95694;-83.92405;802.31;NaN;;4.68;12.226105;207.3;12 / 16;150518;2022-10-26 19:14:42:917
-2.2493;-10.2849;-6.6676;-0.3714;-9.7535;0.9495;-2.5612;-0.2892;-3.2843;-0.3803;-0.2348;-1.635;1.0;20.68;43.78;9.66;285.03;84.03;21.36;0.0;985.76;63.075;35.95694;-83.92405;802.31;NaN;;4.68;12.226105;207.3;12 / 16;151019;2022-10-26 19:14:43:418
-1.1994;-5.595;0.6392;-3.8282;-8.9504;1.1857;5.1681;1.3308;-3.9448;1.662;-1.1844;1.6914;1.0;13.65;46.54;9.53;223.98;82.92;95.36;0.0;985.99;58.492;35.95693;-83.92406;803.23;NaN;;4.86;12.226105;198.6;12 / 16;151518;2022-10-26 19:14:43:917
3.0033;-9.8542;5.8618;0.5162;-9.6815;1.4739;1.4697;-0.8285;0.6731;0.2628;0.7791;-1.9714;1.0;20.57;44.03;10.44;235.76;79.5;76.91;0.0;985.81;65.279;35.95693;-83.92406;803.23;NaN;;4.86;12.226105;198.6;12 / 16;152018;2022-10-26 19:14:44:417
-2.4586;-5.7637;-1.1312;-4.3496;-8.7281;1.0351;2.3047;3.3438;-1.3003;0.3897;1.3369;1.1259;1.0;12.19;46.74;12.62;311.65;62.88;76.61;0.0;985.98;54.262;35.95692;-83.92407;802.53;NaN;;4.75;12.226105;210.0;12 / 16;152518;2022-10-26 19:14:44:917
-3.6162;-10.2802;3.9778;-1.9177;-9.5949;0.6563;6.7174;1.1068;2.3315;0.9648;0.9366;-2.2095;1.0;18.04;46.33;12.23;258.96;78.07;71.11;0.0;985.74;56.014;35.95692;-83.92407;802.53;NaN;;4.75;12.226105;210.0;12 / 16;153018;2022-10-26 19:14:45:417
4.9427;-4.4327;0.2704;-3.6414;-9.0703;0.8005;5.0104;0.9104;-1.4083;0.1504;0.76;0.0297;1.0;10.5;48.96;13.09;238.46;84.25;95.7;0.0;985.93;55.525;35.956913;-83.92408;803.2;NaN;;4.68;12.226105;218.7;12 / 16;153518;2022-10-26 19:14:45:917
0.6176;-10.436;3.7816;-1.6247;-9.6408;0.7657;6.6755;1.2193;2.5249;0.1791;0.7982;-2.1753;0.0;21.83;45.43;13.13;286.04;70.58;50.05;0.0;985.7;60.551;35.956913;-83.92408;803.2;NaN;;4.68;12.226105;218.7;12 / 16;154018;2022-10-26 19:14:46:417
-3.3123;-4.7294;0.2489;-3.7835;-8.9833;1.0747;3.8542;3.0929;-3.3979;0.4229;0.8729;0.6248;1.0;10.73;49.48;14.03;264.85;78.04;92.61;0.0;985.9;54.133;35.956905;-83.924095;806.46;NaN;;4.61;12.226105;230.9;12 / 16;154519;2022-10-26 19:14:46:918
1.6603;-9.3562;4.3214;-2.4192;-9.4393;1.1031;6.8252;-0.693;0.7059;-0.6173;-0.199;-1.2202;1.0;22.95;45.45;11.49;292.69;75.37;27.21;0.0;985.68;66.447;35.956905;-83.924095;806.46;NaN;;4.61;12.226105;230.9;12 / 16;155019;2022-10-26 19:14:47:418
-0.0909;-5.4179;0.9278;-3.6856;-9.0517;0.8085;5.1133;2.8585;-3.4137;0.1443;1.7302;0.307;1.0;14.59;47.89;11.27;234.27;78.75;96.96;0.0;985.87;53.812;35.956898;-83.92411;807.34;NaN;;4.68;12.226105;224.8;13 / 16;155519;2022-10-26 19:14:47:918
0.9565;-9.288;4.1429;-2.3701;-9.4847;0.7703;6.3303;0.5783;0.0804;0.6218;0.4721;-2.0367;1.0;24.08;42.58;10.07;244.27;75.28;72.0;0.0;985.69;56.631;35.956898;-83.92411;807.34;NaN;;4.68;12.226105;224.8;13 / 16;156019;2022-10-26 19:14:48:418
-0.1902;-6.3957;1.0128;-3.1403;-9.2495;0.8691;5.3393;-1.5346;0.4011;0.1843;1.2212;0.5815;1.0;11.14;47.53;11.36;302.67;89.48;13.69;0.0;985.97;51.98;35.956886;-83.92412;808.03;NaN;;4.64;12.226105;225.7;13 / 16;156519;2022-10-26 19:14:48:918
-0.6428;-11.0967;0.3879;0.2335;-9.7294;1.2062;2.2634;1.5562;3.0648;0.3544;0.0673;-2.1369;0.0;19.09;43.97;12.21;263.03;75.49;69.66;0.0;985.68;65.555;35.956886;-83.92412;808.03;NaN;;4.64;12.226105;225.7;13 / 16;157019;2022-10-26 19:14:49:418
-1.7991;-4.9379;0.2022;-3.3629;-9.1269;1.2492;9.5556;-2.5331;-0.47;0.0657;0.7329;0.5149;1.0;9.99;47.03;12.66;4.55;85.36;-43.16;0.0;985.88;52.61;35.95688;-83.92413;807.6;NaN;;4.72;12.226105;219.6;13 / 16;157519;2022-10-26 19:14:49:918
1.2054;-10.2227;4.0807;0.0123;-9.7304;1.2205;4.1317;2.178;3.1862;-0.0773;0.171;-1.8749;0.0;20.79;43.91;11.25;276.37;73.33;54.51;0.0;985.67;66.305;35.95688;-83.92413;807.6;NaN;;4.72;12.226105;219.6;13 / 16;158019;2022-10-26 19:14:50:418
-2.2923;-4.4351;0.1053;-3.766;-8.9926;1.0583;5.0688;2.8707;-3.1781;0.3672;1.1309;0.472;1.0;13.09;46.31;13.35;302.21;66.49;74.3;0.0;985.92;57.877;35.956867;-83.92414;809.9;NaN;;4.68;12.883634;223.5;13 / 16;158519;2022-10-26 19:14:50:918
0.827;-8.857;4.1142;-2.5704;-9.4098;1.0092;7.0468;-0.7675;1.5624;-0.3383;0.1297;-1.9536;1.0;22.76;42.66;12.0;257.82;73.64;68.56;0.0;985.73;64.044;35.956867;-83.92414;809.9;NaN;;4.68;12.883634;223.5;13 / 16;159019;2022-10-26 19:14:51:418
-1.9128;-6.4929;-0.1807;-3.0307;-9.3247;-0.1875;6.2938;-7.3017;1.3307;1.0356;0.7662;1.1065;1.0;17.23;43.07;12.98;253.28;71.96;93.54;0.0;985.86;58.273;35.95686;-83.92416;812.51;NaN;;4.68;13.094719;225.8;13 / 16;159519;2022-10-26 19:14:51:918
1.7704;-8.918;3.0117;-2.5544;-9.293;1.8128;8.8943;-0.5305;-0.6062;-0.1709;0.5408;-2.2245;1.0;20.85;31.76;12.83;272.82;71.37;54.64;0.0;985.93;60.15;35.95686;-83.92416;812.51;NaN;;4.68;13.094719;225.8;13 / 16;160019;2022-10-26 19:14:52:418
5.2298;-7.5257;-6.987;-3.1405;-9.2719;0.5825;7.1713;-3.8817;2.8163;-0.6851;-0.9617;3.0292;1.0;7.74;38.57;10.58;10.22;85.57;-48.47;0.0;985.86;56.467;35.95685;-83.92417;811.29;NaN;;4.93;13.053328;205.1;13 / 16;160518;2022-10-26 19:14:52:917
4.1453;-8.0094;4.5846;-2.5179;-9.3767;1.381;5.4113;-1.4181;3.3537;0.1284;0.2286;-1.849;1.0;17.57;37.56;11.64;281.69;67.02;86.45;0.0;986.04;59.066;35.95685;-83.92417;811.29;NaN;;4.93;13.053328;205.1;13 / 16;161018;2022-10-26 19:14:53:417
4.3753;-11.9596;4.2999;-3.0497;-9.2325;1.2772;6.8699;-7.7901;2.3699;0.6012;1.4482;0.7016;1.0;7.73;43.37;10.48;23.3;84.56;-69.1;0.0;985.85;59.123;35.95684;-83.92419;811.3;NaN;;4.93;13.149534;223.8;12 / 16;161519;2022-10-26 19:14:53:918
3.0993;-7.1931;6.0057;-2.8394;-9.2641;1.5117;10.9772;-1.6721;-0.501;-0.8432;0.3896;-1.7682;1.0;17.4;41.33;12.02;283.91;70.85;61.97;0.0;985.78;65.053;35.95684;-83.92419;811.3;NaN;;4.93;13.149534;223.8;12 / 16;162019;2022-10-26 19:14:54:418
-0.4621;-3.5827;-0.638;-2.9551;-9.3487;0.1985;3.7323;-11.0697;1.7694;0.5231;2.4636;0.8389;1.0;8.74;45.04;14.14;292.13;72.42;86.16;0.0;985.87;59.158;35.956833;-83.924194;808.43;NaN;;4.97;12.942233;202.9;14 / 16;162518;2022-10-26 19:14:54:917
6.8447;-6.9811;2.618;-3.0533;-9.2331;1.2639;8.2814;1.0386;3.2253;0.0496;0.7436;-2.5182;1.0;18.96;42.19;14.81;278.15;70.31;67.51;0.0;985.91;59.607;35.956833;-83.924194;808.43;NaN;;4.97;12.942233;202.9;14 / 16;163019;2022-10-26 19:14:55:418
1.8697;-5.2382;0.8007;-3.315;-9.1207;1.412;6.925;-7.084;2.0645;-0.296;-2.5136;3.4347;1.0;8.19;46.41;15.17;19.37;84.93;-51.93;0.0;985.79;54.242;35.95682;-83.9242;809.71;NaN;;5.26;13.023201;231.0;14 / 16;163519;2022-10-26 19:14:55:918
8.4942;-11.5134;4.209;-2.7794;-9.2587;1.6495;10.8201;-2.046;0.1656;-0.3522;0.2863;-1.9601;1.0;20.36;41.94;15.24;285.76;75.72;44.88;0.0;985.75;56.784;35.95682;-83.9242;809.71;NaN;;5.26;13.023201;231.0;14 / 16;164019;2022-10-26 19:14:56:418
0.6021;-6.4149;-1.0893;-2.7365;-9.3944;0.6542;3.9152;-11.542;2.0159;0.716;-1.1792;2.6889;1.0;8.87;46.54;13.59;23.65;76.73;-70.95;0.0;985.82;57.34;35.956806;-83.92422;809.89;NaN;;4.79;13.181689;229.6;14 / 16;164519;2022-10-26 19:14:56:918
4.3083;-9.1466;3.1543;-2.2611;-9.3414;1.9483;-5.1768;-6.8137;-4.5597;-1.9774;-0.1482;-0.4235;1.0;20.29;41.83;16.43;288.24;72.28;49.25;0.0;985.75;62.606;35.956806;-83.92422;809.89;NaN;;4.79;13.181689;229.6;14 / 16;165019;2022-10-26 19:14:57:418
1.7297;-7.7103;1.5419;-1.9338;-9.6095;-0.2959;0.2942;-6.154;3.1385;0.973;1.2948;0.9997;1.0;8.1;46.16;17.01;25.0;74.08;-65.96;0.0;985.72;53.69;35.9568;-83.924225;810.79;NaN;;4.97;13.387783;213.1;14 / 16;165519;2022-10-26 19:14:57:918
3.5384;-8.1712;-0.2886;-2.4415;-9.4567;0.8835;6.5597;0.5533;0.1942;-1.2915;1.1192;1.0421;0.0;17.83;42.83;17.03;303.74;76.2;29.43;0.0;985.94;55.816;35.9568;-83.924225;810.79;NaN;;4.97;13.387783;213.1;14 / 16;166019;2022-10-26 19:14:58:418
5.286;-17.8062;3.9766;-1.2794;-9.7228;-0.0039;-2.0832;-5.4792;3.0028;-1.0017;1.2074;3.455;1.0;7.58;46.41;18.23;25.04;71.4;-66.39;0.0;985.88;54.521;35.95679;-83.92424;807.97;NaN;;5.08;12.980644;235.6;14 / 16;166518;2022-10-26 19:14:58:917
4.3908;-7.7844;4.4004;-2.6618;-9.3788;1.0602;7.9467;2.4487;-1.5091;-0.82;-0.2141;-1.1108;1.0;17.83;43.65;20.27;289.96;79.72;43.91;0.0;985.87;64.344;35.95679;-83.92424;807.97;NaN;;5.08;12.980644;235.6;14 / 16;167018;2022-10-26 19:14:59:417
1.561;-9.3263;0.8895;-2.1172;-9.5575;0.584;6.5389;-10.7864;-2.7726;0.0163;-1.2608;3.4149;0.0;5.94;45.96;19.41;38.6;76.75;-74.87;0.0;985.51;54.046;35.956783;-83.924255;805.52;NaN;;5.22;13.108604;230.2;14 / 16;167519;2022-10-26 19:14:59:918
5.5651;-7.8132;3.2955;-1.9138;-9.3693;2.1737;-5.5842;-8.4196;-3.968;-1.495;0.5707;0.0367;1.0;17.38;43.39;15.39;299.3;72.82;41.36;0.0;985.87;67.819;35.956783;-83.924255;805.52;NaN;;5.22;13.108604;230.2;14 / 16;168019;2022-10-26 19:15:00:418
3.3793;-16.2248;5.4215;-3.339;-9.1804;0.8613;4.617;-12.2817;1.8216;0.4994;1.7494;0.5849;1.0;7.43;46.01;16.56;35.12;81.81;-69.09;0.0;986.04;53.96;35.956776;-83.92426;803.21;NaN;;4.93;13.510573;229.1;14 / 16;168519;2022-10-26 19:15:00:918
8.7936;-6.7478;5.6177;-2.6386;-9.4166;0.732;8.5053;-1.8661;0.1931;-1.0824;0.4297;-1.32;1.0;16.71;42.64;17.31;271.75;73.79;74.49;0.0;985.99;63.319;35.956776;-83.92426;803.21;NaN;;4.93;13.510573;229.1;14 / 16;169019;2022-10-26 19:15:01:418
4.5452;-12.69;8.0285;-3.684;-8.9783;1.4102;5.6445;-0.2734;0.1771;0.9326;1.6203;0.962;1.0;3.39;45.21;19.26;319.14;66.28;69.05;0.0;985.88;52.181;35.956768;-83.92428;802.94;NaN;;4.61;13.871548;237.4;15 / 16;169519;2022-10-26 19:15:01:918
1.7177;-8.5457;3.1077;-2.9682;-9.1538;1.8891;6.6541;-1.6779;-6.0702;-2.4291;0.1753;0.4855;0.0;12.81;43.99;17.74;302.55;63.44;75.73;0.0;986.5;59.992;35.956768;-83.92428;802.94;NaN;;4.61;13.871548;237.4;15 / 16;170019;2022-10-26 19:15:02:418
1.7728;-15.382;2.4012;-1.7864;-9.6378;0.303;0.7579;-3.4623;0.7946;-0.5138;-1.9032;2.9361;1.0;3.02;45.88;16.86;24.38;73.67;-51.66;0.0;985.82;59.676;35.95676;-83.924286;804.34;NaN;;5.4;14.253524;207.8;15 / 16;170519;2022-10-26 19:15:02:918
7.2338;-5.2513;-2.2445;-1.3962;-9.5616;1.672;-11.1022;-1.3169;-0.8152;-0.5518;1.3909;1.3255;1.0;12.73;43.2;17.53;304.7;77.17;39.86;0.0;985.83;64.828;35.95676;-83.924286;804.34;NaN;;5.4;14.253524;207.8;15 / 16;171019;2022-10-26 19:15:03:418
5.091;-25.3116;0.3197;1.499;-9.6772;0.5254;-10.3608;-3.0692;-1.3713;0.1335;-3.2502;4.2505;1.0;3.58;45.19;17.79;42.84;80.68;-70.68;0.0;985.75;63.092;35.956753;-83.92431;804.63;NaN;;7.06;14.285644;257.9;15 / 16;171518;2022-10-26 19:15:03:917
3.3733;-10.9639;0.8258;-2.971;-9.1267;2.0117;2.3046;-5.4844;-4.2528;0.9599;0.1931;0.975;1.0;19.01;41.25;15.83;266.06;76.29;67.84;0.0;985.74;61.277;35.956753;-83.92431;804.63;NaN;;7.06;14.285644;257.9;15 / 16;172018;2022-10-26 19:15:04:417
-1.7429;-14.5226;1.902;2.8568;-9.2975;1.251;-7.9243;-0.8412;0.149;-1.2596;0.0276;3.3703;0.0;8.7;45.98;15.51;11.84;81.14;-45.6;0.0;985.86;59.827;35.95675;-83.92433;804.84;NaN;;5.15;14.399482;235.8;14 / 16;172518;2022-10-26 19:15:04:917
-9.2542;-17.2914;-0.1172;-1.5158;-9.5599;1.5753;-11.5042;-3.5087;2.8923;1.1766;0.3835;-1.6576;1.0;12.51;42.96;16.69;295.26;67.53;73.29;0.0;985.98;57.222;35.95675;-83.92433;804.84;NaN;;5.15;14.399482;235.8;14 / 16;173019;2022-10-26 19:15:05:418
-7.2326;-14.8986;-3.2991;2.6784;-9.3008;1.5785;-7.0362;1.2914;0.9589;-0.854;-0.8807;1.8526;1.0;5.48;44.33;11.85;18.13;71.52;-59.49;0.0;986.08;55.312;35.956745;-83.92435;806.79;NaN;;5.15;14.812549;263.3;13 / 16;173518;2022-10-26 19:15:05:917
1.258;-10.3977;-4.6373;-1.13;-9.6145;1.5667;-11.3628;-5.7587;2.3997;1.074;-0.494;-0.4031;1.0;13.41;42.17;12.81;301.58;78.64;35.8;0.0;985.95;61.731;35.956745;-83.92435;806.79;NaN;;5.15;14.812549;263.3;13 / 16;174019;2022-10-26 19:15:06:418
-0.6547;-16.6654;0.6655;1.6027;-9.5287;1.6749;-6.0314;0.8576;-1.3967;-0.9459;-1.1151;3.8173;1.0;10.39;45.56;9.39;316.68;77.75;24.86;0.0;985.93;55.051;35.956738;-83.92436;807.01;NaN;;5.26;14.607086;234.7;13 / 16;174519;2022-10-26 19:15:06:918
-10.5066;-17.1191;5.5531;-1.8919;-9.5688;1.0147;-7.8186;-3.4807;3.9445;0.9679;0.3041;-0.905;1.0;19.28;40.22;7.93;282.33;64.19;74.93;0.0;986.01;53.726;35.956738;-83.92436;807.01;NaN;;5.26;14.607086;234.7;13 / 16;175019;2022-10-26 19:15:07:418
-8.9444;-12.2985;-1.4701;0.9673;-9.7465;-0.4905;-9.6255;-2.3699;-0.4994;-1.1301;-0.0193;3.3465;1.0;12.02;44.53;7.13;7.19;78.73;-71.35;0.0;985.99;48.038;35.95673;-83.92437;805.53;NaN;;4.61;15.093494;228.7;13 / 16;175519;2022-10-26 19:15:07:918
5.863;-6.7585;2.5822;-1.818;-9.6327;0.2769;-5.559;-3.2303;-0.4626;1.3134;0.1794;-1.0255;0.0;20.7;39.96;11.79;233.5;79.19;81.34;0.0;986.19;52.639;35.95673;-83.92437;805.53;NaN;;4.61;15.093494;228.7;13 / 16;176018;2022-10-26 19:15:08:417
-8.5768;-13.34;-0.8354;1.4501;-9.6856;0.5066;-9.1824;-1.3891;-1.9628;-1.5596;-0.5414;2.5201;1.0;9.26;44.68;13.93;27.13;80.99;-70.74;0.0;985.85;58.351;35.95672;-83.924385;805.16;NaN;;5.15;15.278152;221.2;13 / 16;176519;2022-10-26 19:15:08:918
-4.7474;-18.1998;-5.8008;-1.178;-9.6651;1.17;-13.8852;-4.4196;3.3901;0.881;-1.4347;0.3614;1.0;13.09;42.08;17.03;292.12;66.86;78.84;0.0;986.04;56.406;35.95672;-83.924385;805.16;NaN;;5.15;15.278152;221.2;13 / 16;177018;2022-10-26 19:15:09:417
-9.5943;-12.6996;-3.6811;1.9186;-9.5919;0.696;-8.7006;-0.6545;0.1649;-1.1874;-0.8454;1.7285;1.0;5.98;44.96;17.33;34.14;77.99;-70.06;0.0;985.92;59.292;35.95671;-83.92439;803.98;NaN;;4.9;15.042017;234.5;13 / 16;177518;2022-10-26 19:15:09:917
-8.1784;-24.9862;-1.1037;-1.6257;-9.6272;0.9189;-3.2674;-2.5628;-4.5027;0.7466;-2.2774;1.5048;1.0;14.59;41.51;20.23;281.05;79.02;60.52;0.0;985.95;59.808;35.95671;-83.92439;803.98;NaN;;4.9;15.042017;234.5;13 / 16;178019;2022-10-26 19:15:10:418
-5.115;-9.8889;0.5387;1.9262;-9.5353;1.2404;-7.367;-1.1607;-0.0132;-0.0219;0.3601;-0.8191;1.0;8.51;45.66;15.43;7.47;79.25;-41.96;0.0;985.87;59.718;35.9567;-83.9244;804.04;NaN;;4.82;15.127031;237.9;13 / 16;178518;2022-10-26 19:15:10:917
-11.1206;-13.0573;3.6691;-2.8049;-9.3792;0.5784;5.6118;5.1051;-1.7985;0.5724;-0.5156;-0.461;0.0;13.67;42.08;17.34;277.13;73.02;78.35;2.0;985.98;53.663;35.9567;-83.9244;804.04;NaN;;4.82;15.127031;237.9;13 / 16;179018;2022-10-26 19:15:11:417
-11.5516;-13.4309;-0.7062;2.2296;-9.5187;0.7712;-6.1747;0.4131;-1.0849;-0.4675;0.2931;-0.9744;0.0;10.22;44.25;15.45;23.98;76.08;-70.92;2.0;986.13;58.697;35.956696;-83.924416;803.49;NaN;;4.72;15.205306;237.0;14 / 16;179519;2022-10-26 19:15:11:918
-7.6947;-12.0242;5.796;-4.0224;-8.8715;1.1346;4.4944;2.8227;-1.4731;0.377;0.9739;-2.1222;0.0;12.34;42.02;18.36;299.98;64.78;74.25;2.0;985.93;62.736;35.956696;-83.924416;803.49;NaN;;4.72;15.205306;237.0;14 / 16;180018;2022-10-26 19:15:12:417
-4.8565;-8.7194;3.9838;0.8092;-9.5768;1.9496;-1.9713;-0.566;1.1518;-0.846;-0.9837;0.8763;0.0;9.28;44.61;14.98;354.5;77.57;-22.54;2.0;985.87;66.701;35.956688;-83.92443;806.4;NaN;;5.0;15.283731;254.7;14 / 16;180519;2022-10-26 19:15:12:918
-10.5185;-21.2501;0.4992;-3.6019;-9.0773;0.8943;7.3494;4.67;-1.84;-0.0864;1.7835;-2.2688;4.0;10.54;42.24;15.69;297.79;67.76;76.06;2.0;985.92;56.67;35.956688;-83.92443;806.4;NaN;;5.0;15.283731;254.7;14 / 16;181019;2022-10-26 19:15:13:418
-6.5133;-11.1039;0.1232;0.5907;-9.5467;2.164;-3.1031;0.1414;-3.2297;-0.7673;-1.1175;0.4303;3.0;6.36;44.04;13.24;354.33;76.78;-15.27;2.0;985.91;63.158;35.956676;-83.92444;807.13;NaN;;4.79;15.020227;236.4;14 / 16;181518;2022-10-26 19:15:13:917
-9.0138;-6.9153;0.0586;-3.0169;-9.328;-0.2379;6.2749;4.8527;1.3045;0.6859;0.326;-1.9556;1.0;16.61;38.78;14.4;247.87;72.03;94.51;2.0;985.97;53.857;35.956676;-83.92444;807.13;NaN;;4.79;15.020227;236.4;14 / 16;182019;2022-10-26 19:15:14:418
-15.8704;-12.5079;-0.2536;2.6282;-9.3716;1.198;-6.2728;0.7227;1.7227;-1.2186;-1.8748;2.3502;2.0;13.28;41.21;11.83;304.13;80.1;27.64;2.0;985.84;58.56;35.956665;-83.924446;808.7;NaN;;4.9;15.125796;219.9;14 / 16;182518;2022-10-26 19:15:14:917
-0.0921;-15.8142;-11.5397;-1.4299;-9.5955;1.4322;-12.1686;-5.1734;1.4512;1.2103;-4.582;2.4915;1.0;19.5;39.11;10.52;274.8;78.09;44.95;2.0;986.21;62.791;35.956665;-83.924446;808.7;NaN;;4.9;15.125796;219.9;14 / 16;183018;2022-10-26 19:15:15:417
6.434;-11.1027;-3.7899;2.5247;-9.4283;0.95;-11.7133;-1.0425;-0.7897;-0.4741;-0.4188;4.4189;0.0;14.4;43.88;5.74;1.47;74.03;-69.38;2.0;985.86;64.929;35.956657;-83.92445;807.97;NaN;;4.79;14.791826;219.8;14 / 16;183519;2022-10-26 19:15:15:918
4.1692;-6.2175;2.8645;-2.9456;-9.1778;1.8061;1.7751;-2.9506;-6.3834;-1.3559;0.9176;1.0119;1.0;25.8;38.74;5.98;257.73;69.37;58.48;2.0;985.72;61.929;35.956657;-83.92445;807.97;NaN;;4.79;14.791826;219.8;14 / 16;184018;2022-10-26 19:15:16:417
6.032;-11.6318;8.1724;-2.9992;-9.3366;-0.0522;6.7192;-9.9379;2.6109;1.3064;-1.8332;1.7931;1.0;14.61;46.03;4.91;6.14;79.33;-80.91;2.0;985.94;61.649;35.956642;-83.92446;807.68;NaN;;4.82;14.563391;210.7;14 / 16;184518;2022-10-26 19:15:16:917
3.699;-12.1298;1.8685;-2.0669;-9.415;1.8046;-3.4062;-8.0385;-4.1009;0.1339;-2.0087;2.2885;1.0;24.96;39.94;5.96;261.59;73.75;48.88;2.0;985.92;59.583;35.956642;-83.92446;807.68;NaN;;4.82;14.563391;210.7;14 / 16;185019;2022-10-26 19:15:17:418
1.561;-7.7067;-0.6188;-2.8157;-9.3937;-0.0075;6.2132;-10.0532;1.5889;1.0385;-1.8476;2.0298;0.0;14.96;45.84;7.16;260.39;73.31;90.15;2.0;985.97;65.363;35.95663;-83.92447;807.72;NaN;;5.44;14.392685;198.6;14 / 16;185518;2022-10-26 19:15:17:917
5.9578;-9.6613;-12.4768;-2.2557;-9.4738;1.1531;-2.9984;-1.6133;0.3334;-1.8138;0.2128;-0.17;1.0;25.84;39.83;8.81;247.86;75.03;62.92;2.0;985.99;51.534;35.95663;-83.92447;807.72;NaN;;5.44;14.392685;198.6;14 / 16;186019;2022-10-26 19:15:18:418
2.5379;-27.9715;2.3186;-1.0252;-9.7427;-0.4467;-5.1807;-4.2768;2.4991;2.1915;-0.8837;2.4914;1.0;14.44;46.28;8.4;189.26;83.45;113.54;2.0;985.85;63.035;35.956615;-83.92448;807.39;NaN;;4.93;14.418697;200.5;14 / 16;186518;2022-10-26 19:15:18:917
3.1507;-16.1937;4.8781;-4.6759;-8.6106;0.4037;8.6869;2.3811;-1.2589;0.576;0.2337;-1.1042;1.0;28.18;32.64;14.38;252.55;50.84;101.34;2.0;986.1;56.179;35.956615;-83.92448;807.39;NaN;;4.93;14.418697;200.5;14 / 16;187019;2022-10-26 19:15:19:418
-3.7983;-15.7735;-2.6145;2.5068;-9.4722;0.4051;-1.5118;0.3074;0.9376;-0.4076;0.4597;0.6906;1.0;16.56;43.03;15.73;23.7;74.99;-80.82;2.0;986.22;56.786;35.956604;-83.92448;807.79;NaN;;5.11;14.286544;191.7;14 / 16;187519;2022-10-26 19:15:19:918
-8.8152;-18.4191;-4.3047;-1.0848;-9.73;0.5658;-1.2649;-1.7733;-1.6912;-0.2229;0.6847;-2.4792;0.0;14.03;44.18;16.26;291.87;66.77;79.72;2.0;985.98;52.806;35.956604;-83.92448;807.79;NaN;;5.11;14.286544;191.7;14 / 16;188018;2022-10-26 19:15:20:417
-7.9555;-10.078;1.0738;2.3509;-9.4582;1.0895;-10.0152;0.0218;-1.6605;-1.237;-1.2599;1.7162;1.0;8.38;46.86;15.88;23.29;74.68;-65.13;2.0;985.86;53.2;35.956593;-83.924484;808.2;NaN;;5.04;14.206686;211.1;14 / 16;188519;2022-10-26 19:15:20:918
-13.1231;-20.5738;8.1748;-1.8516;-9.6154;0.5355;3.5426;3.2992;-2.9044;1.266;-2.5037;0.4433;1.0;17.21;42.58;16.11;260.95;78.66;73.87;2.0;986.03;58.332;35.956593;-83.924484;808.2;NaN;;5.04;14.206686;211.1;14 / 16;189018;2022-10-26 19:15:21:417
-8.1999;-12.3452;0.9565;2.449;-9.4367;1.0588;-10.6165;-1.7935;-1.1719;-0.7149;-0.4142;4.06;1.0;8.03;45.17;15.73;21.33;79.43;-57.25;2.0;985.87;51.075;35.956585;-83.9245;812.16;NaN;;4.79;13.903522;232.3;14 / 16;189518;2022-10-26 19:15:21:917
5.9495;-8.6186;0.6476;-1.2746;-9.6546;1.1553;-12.2332;-6.6166;2.8939;0.9194;-3.373;2.7205;1.0;15.11;41.76;18.21;289.57;65.02;79.81;2.0;986.07;51.168;35.956585;-83.9245;812.16;NaN;;4.79;13.903522;232.3;14 / 16;190019;2022-10-26 19:15:22:418
-8.7182;-11.846;0.1831;0.9651;-9.7506;0.4053;-9.732;-2.7968;-1.5785;-1.0731;0.0483;3.8378;0.0;5.57;47.18;15.69;20.41;74.65;-55.07;2.0;985.98;54.416;35.956585;-83.924515;812.56;NaN;;4.46;14.012237;243.1;14 / 16;190518;2022-10-26 19:15:22:917
-8.3495;-23.0827;4.2736;-1.3434;-9.6184;1.3612;-7.4624;-6.5003;0.9306;1.2519;-0.108;-1.4189;1.0;16.28;44.38;16.76;292.0;78.75;44.62;2.0;986.01;58.412;35.956585;-83.924515;812.56;NaN;;4.46;14.012237;243.1;14 / 16;191018;2022-10-26 19:15:23:417
-8.8068;-12.5713;-0.2213;2.1464;-9.5289;0.8737;-11.2441;-2.2268;-1.6492;-1.1821;-1.0379;3.278;1.0;6.21;47.79;14.83;19.11;75.73;-54.28;2.0;985.9;53.745;35.95658;-83.92453;810.4;NaN;;4.39;13.957125;243.5;14 / 16;191519;2022-10-26 19:15:23:918
-5.7494;-20.9961;-5.3593;-0.6609;-9.64;1.6746;-14.342;-6.2993;1.8532;0.7465;-2.5423;0.9733;1.0;14.78;44.29;17.38;285.41;68.46;79.32;2.0;986.18;60.036;35.95658;-83.92453;810.4;NaN;;4.39;13.957125;243.5;14 / 16;192019;2022-10-26 19:15:24:418
-5.7996;-12.2363;5.595;2.5929;-9.4135;0.9131;-8.2896;-0.8868;2.0598;-0.606;-0.9855;1.6295;1.0;8.57;47.59;14.79;19.72;77.77;-61.61;2.0;986.01;62.625;35.956577;-83.924545;810.07;NaN;;4.14;14.017791;239.1;14 / 16;192518;2022-10-26 19:15:24:917
3.4965;-5.6632;5.3148;-0.505;-9.6492;1.6758;-9.6198;-6.1648;4.8267;1.6024;-1.1547;-0.3305;1.0;15.9;44.81;15.51;312.96;79.72;16.77;2.0;986.13;65.429;35.956577;-83.924545;810.07;NaN;;4.14;14.017791;239.1;14 / 16;193018;2022-10-26 19:15:25:417
3.8498;-23.1006;3.8892;-0.1215;-9.8027;-0.2506;-5.8103;-1.9725;-0.2983;-1.1966;0.9267;4.3262;1.0;9.09;47.21;14.34;17.59;71.78;-65.03;2.0;985.92;57.596;35.956566;-83.92455;809.18;NaN;;4.14;13.349364;228.2;15 / 16;193518;2022-10-26 19:15:25:917
-6.3395;-20.4841;-3.5276;-0.6525;-9.7116;1.1957;-13.0916;-6.0658;5.4352;0.8895;-0.089;-0.9795;1.0;19.31;42.09;17.61;296.23;82.02;28.62;2.0;985.63;61.813;35.956566;-83.92455;809.18;NaN;;4.14;13.349364;228.2;15 / 16;194019;2022-10-26 19:15:26:418
-8.5253;-14.5238;-5.0324;1.4771;-9.6812;0.513;-8.367;-3.9064;-0.935;-1.2212;-0.6678;3.3128;1.0;7.43;46.33;16.61;25.45;74.71;-63.62;2.0;985.91;61.576;35.95656;-83.92456;808.11;NaN;;4.25;13.242274;238.9;15 / 16;194518;2022-10-26 19:15:26:917
-9.9775;-6.9619;0.5207;-1.2081;-9.6757;1.0451;-3.5955;-3.9857;-1.8919;0.357;-2.493;1.4257;0.0;14.83;42.9;18.49;287.6;80.63;49.14;2.0;986.0;63.095;35.95656;-83.92456;808.11;NaN;;4.25;13.242274;238.9;15 / 16;195018;2022-10-26 19:15:27:417
4.4016;-25.5054;1.0929;2.0995;-9.5432;0.8301;-10.1622;-2.0009;-1.7012;-0.5751;-1.8903;4.6133;1.0;5.38;45.83;17.19;33.39;76.69;-68.43;2.0;985.86;62.262;35.95655;-83.924576;807.34;NaN;;4.68;12.958976;242.9;15 / 16;195518;2022-10-26 19:15:27:917
5.7242;-10.1414;-2.6468;-0.4595;-9.6219;1.838;-13.3283;-3.3097;0.6711;-0.3315;-0.1616;1.8033;1.0;16.88;39.84;19.01;315.89;78.86;14.04;2.0;985.67;60.803;35.95655;-83.924576;807.34;NaN;;4.68;12.958976;242.9;15 / 16;196019;2022-10-26 19:15:28:418
5.4742;-18.8596;1.4402;2.4418;-9.4424;1.0241;-9.3806;-1.8189;0.7444;-0.63;-1.2607;4.3017;1.0;6.43;43.33;18.62;32.33;74.34;-67.25;2.0;985.85;66.226;35.956543;-83.92459;805.65;NaN;;4.9;13.003366;243.1;15 / 16;196518;2022-10-26 19:15:28:917
7.6229;-6.7932;1.3549;-1.3544;-9.5349;1.8499;-8.0436;-5.557;-2.5024;1.0328;0.0395;-0.8272;1.0;16.16;41.27;17.78;279.65;78.44;66.82;2.0;985.93;55.307;35.956543;-83.92459;805.65;NaN;;4.9;13.003366;243.1;15 / 16;197019;2022-10-26 19:15:29:418
-0.5183;-18.0299;-0.0849;2.9798;-9.2572;1.2631;-8.0077;0.2609;1.4521;-0.9346;-0.4601;3.6458;1.0;6.15;45.04;17.1;26.82;70.73;-67.03;2.0;985.96;61.158;35.956535;-83.9246;804.53;NaN;;4.5;12.690629;235.9;15 / 16;197519;2022-10-26 19:15:29:918
-4.2461;-16.724;-3.0607;-0.5118;-9.5867;2.0008;-10.9184;-3.0957;-1.5433;0.3001;-3.3293;2.584;0.0;15.6;40.18;19.09;318.12;77.84;14.35;2.0;985.82;63.055;35.956535;-83.9246;804.53;NaN;;4.5;12.690629;235.9;15 / 16;198018;2022-10-26 19:15:30:417
3.9156;-20.3952;0.8967;-0.8983;-9.7631;0.2145;-1.9834;-4.9256;0.5021;-0.7321;-0.6912;4.2295;1.0;7.2;43.41;18.06;27.49;70.47;-67.72;2.0;985.92;65.735;35.956528;-83.92461;804.54;NaN;;4.46;12.567533;243.2;15 / 16;198518;2022-10-26 19:15:30:917
5.2932;-12.7654;-2.8155;-0.524;-9.6431;1.705;-13.1474;-5.7584;1.7715;0.1527;-0.1726;1.8688;1.0;15.23;41.01;18.66;285.3;71.07;69.49;2.0;985.87;57.898;35.956528;-83.92461;804.54;NaN;;4.46;12.567533;243.2;15 / 16;199019;2022-10-26 19:15:31:418
0.7433;-17.7332;-0.1962;1.3672;-9.7012;0.4336;-8.1472;-3.7729;-2.1899;0.0861;-0.2434;0.6547;1.0;6.11;46.48;17.04;26.96;73.29;-65.01;2.0;985.93;63.088;35.95652;-83.924614;804.92;NaN;;4.86;12.372539;229.5;15 / 16;199518;2022-10-26 19:15:31:917
-9.4651;-14.2328;0.1986;-0.9565;-9.7061;1.0233;-7.0166;-4.1117;1.3828;0.2842;-2.5716;2.1899;1.0;17.1;44.16;16.86;286.43;81.79;43.07;2.0;985.95;56.677;35.95652;-83.924614;804.92;NaN;;4.86;12.372539;229.5;15 / 16;200018;2022-10-26 19:15:32:417
-1.124;-17.7667;2.3079;2.7305;-9.4052;0.507;-8.2575;-0.0376;2.3647;-0.7455;0.2321;-1.0;1.0;9.09;47.42;16.2;16.38;76.36;-55.12;2.0;985.89;62.991;35.956512;-83.92462;804.47;NaN;;4.61;12.226105;232.0;15 / 16;200518;2022-10-26 19:15:32:917
0.7181;-8.164;-3.8234;-1.7426;-9.4554;1.9312;-6.816;-6.0549;-3.886;1.021;-0.8831;0.2773;1.0;12.02;45.64;15.51;273.68;81.31;69.94;2.0;985.98;59.385;35.956512;-83.92462;804.47;NaN;;4.61;12.226105;232.0;15 / 16;201018;2022-10-26 19:15:33:417
-3.5719;-9.9464;2.2612;2.112;-9.5067;1.1543;-6.9128;-0.0874;-5.8077;-1.1938;-0.8717;2.5466;1.0;4.31;47.23;2.31;359.41;75.79;-61.34;2.0;985.89;59.061;35.956505;-83.92464;806.34;NaN;;4.5;12.226105;236.3;15 / 16;201519;2022-10-26 19:15:33:918
-10.1964;-21.1208;-0.9745;-1.1661;-9.7122;0.6955;1.61;2.3082;-2.6003;-0.0047;0.0846;-2.0457;1.0;19.61;44.63;12.45;257.14;82.04;59.19;2.0;985.99;59.976;35.956505;-83.92464;806.34;NaN;;4.5;12.226105;236.3;15 / 16;202018;2022-10-26 19:15:34:417
-8.3291;-12.3416;-9.4077;2.187;-9.505;1.0213;-7.4732;0.1003;1.2875;-0.5548;-2.5908;1.3243;1.0;11.46;48.24;15.21;17.93;75.75;-64.97;2.0;985.9;58.791;35.9565;-83.92466;806.62;NaN;;4.72;12.226105;240.9;15 / 16;202518;2022-10-26 19:15:34:917
-10.6753;-9.7199;-0.9362;-0.6326;-9.7013;1.2864;6.1466;3.6876;-3.0357;-0.319;0.2597;-2.882;1.0;15.23;44.83;18.32;289.35;68.26;75.25;2.0;985.98;59.735;35.9565;-83.92466;806.62;NaN;;4.72;12.226105;240.9;15 / 16;203019;2022-10-26 19:15:35:418
-7.4169;-11.6366;1.4354;1.7536;-9.4906;1.7387;-4.2805;-1.0486;-1.2364;-0.9354;0.9167;-1.2249;1.0;8.31;48.53;14.03;8.95;75.42;-45.25;2.0;985.97;59.758;35.956497;-83.924675;804.74;NaN;;4.46;12.226105;243.2;15 / 16;203518;2022-10-26 19:15:35:917
-0.201;-9.4938;-8.2813;-1.1843;-9.6958;0.8713;2.5695;2.4636;-3.8065;-0.0816;1.927;-3.0878;1.0;13.07;45.02;14.96;295.33;67.85;77.28;2.0;985.97;60.833;35.956497;-83.924675;804.74;NaN;;4.46;12.226105;243.2;15 / 16;204019;2022-10-26 19:15:36:418
-5.0934;-8.6581;2.5319;2.4803;-9.4093;1.2181;-8.8153;-0.6765;1.191;-0.5598;-1.2137;2.0789;1.0;13.01;46.59;13.16;359.92;76.66;-44.88;2.0;985.93;63.477;35.95649;-83.92468;800.44;NaN;;4.57;12.226105;242.7;15 / 16;204519;2022-10-26 19:15:36:918
-2.9734;-16.0884;-5.1963;-1.7635;-9.6309;0.5532;2.2986;3.2524;-2.2403;0.3196;0.8955;-2.4435;1.0;15.24;42.54;15.66;266.38;79.14;72.58;2.0;986.02;59.617;35.95649;-83.92468;800.44;NaN;;4.57;12.226105;242.7;15 / 16;205019;2022-10-26 19:15:37:418
-2.7532;-14.4126;1.337;2.5176;-9.4486;0.7456;-8.606;-0.4289;1.5606;-0.8727;-1.3542;2.3163;1.0;10.37;44.12;13.13;10.13;78.37;-52.96;2.0;985.93;66.189;35.956486;-83.9247;798.59;NaN;;4.64;12.612961;242.3;15 / 16;205518;2022-10-26 19:15:37:917
-9.7271;-11.007;1.8182;-1.885;-9.6199;0.2723;3.0985;3.3202;-3.1001;0.4687;1.8312;-2.374;1.0;17.25;39.98;15.41;249.0;78.8;81.78;2.0;986.02;55.296;35.956486;-83.9247;798.59;NaN;;4.64;12.612961;242.3;15 / 16;206018;2022-10-26 19:15:38:417
-5.2777;-11.19;2.2768;2.2119;-9.4944;1.0654;-6.3738;-0.5986;-4.5442;-0.6672;-0.4113;0.4891;1.0;8.81;43.89;14.96;20.9;75.5;-64.28;2.0;985.97;63.059;35.956474;-83.924706;795.64;NaN;;4.82;12.609523;229.8;15 / 16;206518;2022-10-26 19:15:38:917
-15.6945;-16.2667;3.845;-1.2527;-9.7008;0.7041;-6.5817;-4.4689;0.6431;1.2547;0.4112;-1.6222;1.0;12.32;42.13;17.89;294.56;65.59;81.61;2.0;986.01;58.377;35.956474;-83.924706;795.64;NaN;;4.82;12.609523;229.8;15 / 16;207018;2022-10-26 19:15:39:417
-7.1883;-13.6008;0.9494;1.7724;-9.6393;0.3369;-9.9938;-3.2527;-1.3576;-0.3704;0.4291;-0.2096;1.0;9.62;45.15;16.74;25.68;76.9;-68.57;2.0;985.93;62.009;35.95647;-83.92472;792.66;NaN;;4.86;12.632828;231.6;15 / 16;207519;2022-10-26 19:15:39:918
-9.5728;-12.3547;1.4665;-3.2087;-9.2451;0.6345;6.5836;4.646;-0.444;0.5385;-1.45;0.8664;1.0;11.87;44.16;18.69;288.59;70.52;78.81;2.0;986.01;58.71;35.95647;-83.92472;792.66;NaN;;4.86;12.632828;231.6;15 / 16;208019;2022-10-26 19:15:40:418
-8.8427;-14.2173;-1.2951;2.7422;-9.3313;1.2562;-6.2489;-0.1575;1.4694;-0.1257;0.413;-0.9314;1.0;5.04;47.59;17.21;27.38;72.09;-65.39;2.0;985.95;62.388;35.956463;-83.92473;790.56;NaN;;4.82;12.547045;236.9;15 / 16;208519;2022-10-26 19:15:40:918
-9.489;-8.1568;4.4806;-1.5437;-9.6434;0.8901;-12.3525;-5.6359;4.6646;0.4701;0.059;-0.3386;1.0;13.46;44.12;20.78;286.34;79.53;60.03;2.0;986.04;55.808;35.956463;-83.92473;790.56;NaN;;4.82;12.547045;236.9;15 / 16;209019;2022-10-26 19:15:41:418
-5.4634;-10.8177;-1.4342;2.4377;-9.428;1.1578;-6.258;-1.4253;-0.8009;0.2427;0.5213;-1.5195;1.0;3.58;47.29;21.02;19.92;81.77;-36.67;2.0;985.94;57.711;35.95646;-83.92474;790.73;NaN;;4.97;12.417214;240.9;15 / 16;209519;2022-10-26 19:15:41:918
-12.454;-13.6427;3.6126;-2.1082;-9.512;1.1173;-11.379;-4.6168;2.4363;0.1165;-0.3643;-2.0667;1.0;6.9;46.5;21.81;307.96;64.43;78.97;2.0;986.05;55.554;35.95646;-83.92474;790.73;NaN;;4.97;12.417214;240.9;15 / 16;210019;2022-10-26 19:15:42:418
-0.1974;-10.3316;0.4346;0.2917;-9.7791;0.674;-1.5396;0.8491;2.3419;0.016;0.7775;-1.632;1.0;4.09;49.65;19.13;9.68;85.71;-23.4;2.0;985.97;57.402;35.95646;-83.92475;789.29;NaN;;4.68;12.435453;257.4;15 / 16;210519;2022-10-26 19:15:42:918
2.3976;-5.2825;-1.1468;-3.9977;-8.9281;0.6912;1.5585;2.2132;-0.2753;0.1747;0.0981;1.115;1.0;7.07;46.63;19.88;307.89;65.56;80.19;2.0;985.95;58.502;35.95646;-83.92475;789.29;NaN;;4.68;12.435453;257.4;15 / 16;211018;2022-10-26 19:15:43:417
-0.2225;-9.4807;1.8422;1.0182;-9.6853;1.1527;-4.2628;0.4242;-0.1118;0.4587;-1.386;-1.0184;1.0;10.54;46.63;19.78;291.39;73.26;73.92;2.0;985.93;56.474;35.956455;-83.92477;788.93;NaN;;4.18;12.543767;250.3;15 / 16;211518;2022-10-26 19:15:43:917
-1.6364;-4.2808;-0.2405;-3.7304;-9.0533;0.541;6.6335;2.257;0.1307;0.3215;0.9509;0.0551;1.0;3.38;47.51;16.88;316.15;67.39;81.75;2.0;985.93;59.348;35.956455;-83.92477;788.93;NaN;;4.18;12.543767;250.3;15 / 16;212018;2022-10-26 19:15:44:417
-4.5978;-9.8219;2.618;-1.2563;-9.687;0.8684;6.5406;1.5871;2.3136;0.3516;1.492;-2.5923;1.0;9.54;49.2;12.45;291.87;81.04;55.35;2.0;986.04;58.649;35.95645;-83.924774;788.67;NaN;;4.72;12.590539;239.5;15 / 16;212519;2022-10-26 19:15:44:918
4.1273;-4.6851;0.9482;-4.1293;-8.8745;0.602;2.9331;4.2797;-0.6826;0.1581;-0.1468;-0.2065;1.0;12.13;47.19;12.56;306.88;64.82;81.7;2.0;985.98;55.968;35.95645;-83.924774;788.67;NaN;;4.72;12.590539;239.5;15 / 16;213019;2022-10-26 19:15:45:418
-3.3553;-8.2693;2.6276;1.0063;-9.7141;0.8911;-5.6735;-1.1714;-5.5484;-0.5391;-0.4736;-1.5755;1.0;16.5;47.85;11.14;246.88;79.23;80.84;2.0;986.05;64.233;35.956448;-83.92478;788.13;NaN;;4.68;12.987832;245.9;15 / 16;213518;2022-10-26 19:15:45:917
0.4059;-6.0739;0.8871;-4.0144;-8.9367;0.437;3.2234;3.3474;0.2571;0.4969;0.813;0.4978;1.0;8.94;49.35;12.26;310.15;69.33;77.36;2.0;985.98;54.951;35.956448;-83.92478;788.13;NaN;;4.68;12.987832;245.9;15 / 16;214018;2022-10-26 19:15:46:417
1.1264;-8.5935;5.0444;-0.2228;-9.7664;0.8587;6.1175;0.6195;3.0422;0.3275;-0.3541;-1.8425;0.0;11.83;52.89;10.41;277.8;73.23;76.54;2.0;985.99;60.045;35.956448;-83.9248;782.87;NaN;;4.72;12.862594;260.8;15 / 16;214519;2022-10-26 19:15:46:918
0.4537;-7.4288;-3.2213;-3.292;-9.2173;0.6126;4.2049;2.4296;-1.473;0.5473;0.7901;0.6478;1.0;8.91;59.01;10.61;317.76;70.03;79.46;2.0;985.9;60.169;35.956448;-83.9248;782.87;NaN;;4.72;12.862594;260.8;15 / 16;215018;2022-10-26 19:15:47:417
4.1548;-9.4376;3.7552;-1.2638;-9.7167;0.3983;4.3803;0.6216;2.874;-1.5023;2.1139;-1.0147;1.0;25.03;53.94;10.24;286.65;70.24;47.53;2.0;985.92;63.524;35.95644;-83.92481;779.93;NaN;;4.86;12.938407;249.3;15 / 16;215518;2022-10-26 19:15:47:917
-2.5487;-4.6002;1.0666;-2.4233;-9.5014;-0.1452;1.5641;-8.4853;-0.0986;0.2792;2.0061;0.8605;1.0;11.55;52.22;14.14;271.97;75.67;93.43;2.0;985.91;58.903;35.95644;-83.92481;779.93;NaN;;4.86;12.938407;249.3;15 / 16;216019;2022-10-26 19:15:48:418
1.8517;-7.2769;3.2441;-0.6866;-9.7793;0.255;8.4356;-1.8059;-0.1101;-1.0597;1.2555;-1.8294;1.0;20.16;44.31;17.25;290.22;69.58;54.42;2.0;985.92;60.245;35.956432;-83.924835;784.18;NaN;;4.9;13.246058;235.5;15 / 16;216519;2022-10-26 19:15:48:918
2.7185;-6.524;0.7217;-2.7547;-9.4115;-0.0783;8.0987;-0.2045;-0.1714;0.2444;2.1476;0.5471;1.0;7.03;46.59;19.18;287.63;73.68;91.63;2.0;985.84;58.645;35.956432;-83.924835;784.18;NaN;;4.9;13.246058;235.5;15 / 16;217018;2022-10-26 19:15:49:417
3.0559;-12.5964;3.0488;-2.5346;-9.3081;1.762;6.5963;-0.6206;-6.5298;-2.66;0.9794;-0.1652;1.0;15.79;43.28;18.34;294.34;71.65;55.19;2.0;985.77;62.545;35.95643;-83.92484;784.18;NaN;;4.68;12.984796;243.9;15 / 16;217519;2022-10-26 19:15:49:918
-2.5558;-12.5067;2.3174;-2.5481;-9.4681;0.1832;3.4218;-8.6749;1.0942;1.1321;-2.0857;2.4515;1.0;5.04;46.14;17.4;295.73;74.9;85.89;2.0;986.0;59.403;35.95643;-83.92484;784.18;NaN;;4.68;12.984796;243.9;15 / 16;218019;2022-10-26 19:15:50:418
3.7098;-12.836;3.5719;-2.8305;-9.164;2.0446;5.6953;-0.3688;-4.1435;-1.5258;1.1552;0.1458;1.0;16.82;43.91;16.84;276.85;79.63;57.45;2.0;986.26;56.409;35.956417;-83.92485;785.93;NaN;;4.64;12.827802;237.8;15 / 16;218519;2022-10-26 19:15:50:918
4.1596;-13.4225;7.4599;-2.5671;-9.4618;-0.2315;3.2036;-7.8243;0.6503;-0.7045;0.3027;3.849;1.0;3.98;48.73;16.48;28.01;76.69;-60.26;2.0;985.94;60.694;35.956417;-83.92485;785.93;NaN;;4.64;12.827802;237.8;15 / 16;219018;2022-10-26 19:15:51:417
3.8139;-10.4827;3.5671;-1.4972;-9.5647;1.5635;-6.3664;-4.7706;-2.6418;-0.967;0.8483;0.4917;1.0;16.43;44.81;17.44;295.49;77.25;43.76;2.0;985.91;57.917;35.95641;-83.924866;783.95;NaN;;4.5;13.160516;236.9;15 / 16;219519;2022-10-26 19:15:51:918
-5.0922;-11.4437;2.7652;1.9498;-9.542;1.1481;-4.8864;0.8483;0.5972;-1.1015;-1.0327;1.4345;1.0;4.37;47.7;17.81;30.04;76.66;-59.51;2.0;985.97;57.679;35.95641;-83.924866;783.95;NaN;;4.5;13.160516;236.9;15 / 16;220019;2022-10-26 19:15:52:418
-7.29;-20.1559;-1.2018;-0.8251;-9.6763;1.3634;-9.452;-6.2198;5.2391;0.1468;-2.9831;2.4298;1.0;12.84;46.33;18.41;308.1;80.65;31.18;2.0;985.86;58.524;35.9564;-83.92487;785.75;NaN;;4.57;13.496502;232.9;15 / 16;220519;2022-10-26 19:15:52:918
-2.8238;-14.0187;4.3537;2.5651;-9.4312;0.8021;-7.9319;-1.2166;3.2162;-0.7918;-0.3744;-0.4839;1.0;2.44;49.93;14.83;34.66;74.09;-72.64;2.0;985.98;53.586;35.9564;-83.92487;785.75;NaN;;4.57;13.496502;232.9;15 / 16;221019;2022-10-26 19:15:53:418
-11.2798;-21.4977;-0.5913;-0.6204;-9.6797;1.4453;4.1926;4.595;-4.2411;1.452;0.6238;-0.9931;1.0;10.73;47.85;16.05;302.44;69.76;70.36;2.0;985.85;63.276;35.95639;-83.92489;780.09;NaN;;4.39;13.636832;247.5;15 / 16;221518;2022-10-26 19:15:53:917
-5.4945;-12.964;3.7385;1.2534;-9.6599;1.1334;-6.1927;0.1981;-4.7956;-1.0124;-3.3987;2.4132;1.0;4.31;51.23;15.0;303.32;80.22;57.48;2.0;985.97;55.423;35.95639;-83.92489;780.09;NaN;;4.39;13.636832;247.5;15 / 16;222019;2022-10-26 19:15:54:418
-9.859;-21.7552;-2.5244;-0.9893;-9.7307;0.7105;0.0844;0.7064;-0.6304;0.7764;3.8854;-2.5114;1.0;11.96;50.14;15.51;286.18;82.87;54.31;2.0;985.9;58.81;35.95639;-83.924904;779.34;NaN;;4.36;13.635626;251.5;15 / 16;222519;2022-10-26 19:15:54:918
-7.7186;-12.1956;0.5961;0.5708;-9.7312;1.0719;-4.4024;-0.4794;-6.2885;-1.3119;-1.0943;1.3429;1.0;6.96;55.03;14.78;2.15;82.89;-28.04;2.0;985.82;59.059;35.95639;-83.924904;779.34;NaN;;4.36;13.635626;251.5;15 / 16;223018;2022-10-26 19:15:55:417
-12.9317;-14.8337;0.7181;-3.8358;-9.0021;0.6471;9.1125;5.4917;-0.153;0.5351;-0.0735;-2.7971;1.0;14.4;50.33;21.51;293.65;66.63;80.42;2.0;985.85;59.242;35.956383;-83.92491;780.58;NaN;;4.72;13.84345;254.3;15 / 16;223519;2022-10-26 19:15:55:918
-3.0559;-8.5768;2.8178;1.7982;-9.5462;1.3443;-4.7604;1.0317;0.7894;0.1582;-0.2199;-0.9365;1.0;12.94;53.19;20.63;322.62;84.62;12.52;2.0;985.99;62.115;35.956383;-83.92491;780.58;NaN;;4.72;13.84345;254.3;15 / 16;224019;2022-10-26 19:15:56:418
-4.5571;-12.2231;-0.1017;-3.8169;-8.9956;0.8244;2.5764;4.5293;-0.5703;0.1012;-0.0802;-0.3806;1.0;11.91;49.78;19.76;300.53;66.53;77.81;2.0;986.03;57.038;35.956375;-83.92493;784.02;NaN;;4.39;13.596856;261.9;15 / 16;224519;2022-10-26 19:15:56:918
-3.5874;-8.7529;2.7975;1.1244;-9.6527;1.316;-5.5635;-0.9585;-5.1754;-0.6549;0.0967;-1.7154;1.0;13.88;47.36;15.45;358.19;79.83;-40.51;2.0;985.99;64.142;35.956375;-83.92493;784.02;NaN;;4.39;13.596856;261.9;15 / 16;225019;2022-10-26 19:15:57:418
-10.8595;-16.8329;7.3092;-2.5894;-9.4181;0.8743;6.6897;5.227;-1.0787;-0.1709;1.0187;-2.5553;1.0;11.21;44.51;17.74;296.42;69.15;76.41;2.0;986.08;60.127;35.956367;-83.924934;783.02;NaN;;4.1;13.535329;247.0;15 / 16;225518;2022-10-26 19:15:57:917
-3.9969;-7.6457;1.5933;0.1054;-9.6828;1.55;-0.0848;0.7431;2.0592;0.6874;1.1966;-2.4857;1.0;9.21;46.59;16.35;341.66;80.88;-3.89;2.0;985.98;65.736;35.956367;-83.924934;783.02;NaN;;4.1;13.535329;247.0;15 / 16;226018;2022-10-26 19:15:58:417
2.8837;-3.9838;0.4549;-3.2639;-9.2177;0.742;4.6026;4.6325;-0.1393;0.1571;0.054;-1.5037;1.0;8.27;45.69;17.33;303.28;70.18;76.24;2.0;986.02;54.771;35.956364;-83.92495;783.93;NaN;;4.57;13.89779;247.1;15 / 16;226519;2022-10-26 19:15:58:918
-1.9247;-8.1266;1.6866;0.715;-9.6964;1.2801;-3.1424;-0.2502;-8.5323;0.2136;1.1705;-2.5517;1.0;13.89;45.9;14.98;272.8;75.14;80.53;2.0;986.0;68.175;35.956364;-83.92495;783.93;NaN;;4.57;13.89779;247.1;15 / 16;227018;2022-10-26 19:15:59:417
3.2249;-5.7266;-6.087;-3.4639;-9.1324;0.8784;4.1369;5.3065;-0.8153;0.1499;-0.2732;-1.3018;1.0;10.29;46.09;16.89;306.87;67.38;69.39;2.0;986.05;59.439;35.956356;-83.92496;784.5;NaN;;4.5;13.799072;243.6;15 / 16;227518;2022-10-26 19:15:59:917
-4.3238;-7.7844;2.6767;1.9347;-9.5583;1.0324;-6.8818;-0.0841;-1.8576;0.2191;0.5669;-2.0085;1.0;10.22;48.77;16.37;19.28;77.08;-61.91;2.0;986.0;63.955;35.956356;-83.92496;784.5;NaN;;4.5;13.799072;243.6;15 / 16;228018;2022-10-26 19:16:00:417
-14.8878;-14.1933;3.5312;-3.7278;-9.0142;1.0086;2.9955;5.0618;-1.5275;0.1022;0.6084;-0.9044;1.0;8.89;47.36;18.21;302.42;69.18;76.52;2.0;986.1;60.396;35.956352;-83.92497;785.96;NaN;;4.5;14.193721;247.9;15 / 16;228519;2022-10-26 19:16:00:918
-4.4339;-8.4535;1.561;2.3279;-9.3969;1.5652;-5.9043;-0.4696;-1.3059;0.1413;0.5118;-1.6252;1.0;11.51;47.31;17.18;303.68;83.98;32.37;2.0;986.09;64.748;35.956352;-83.92497;785.96;NaN;;4.5;14.193721;247.9;15 / 16;229018;2022-10-26 19:16:01:417
5.2071;-1.9546;0.4023;-2.9193;-9.3436;0.5869;7.7614;6.3741;-3.7135;0.1313;0.3736;-0.9301;1.0;9.47;46.43;17.78;310.32;63.83;74.74;2.0;986.07;62.89;35.956352;-83.92499;782.12;NaN;;4.36;14.170857;253.7;15 / 16;229518;2022-10-26 19:16:01:917
-3.3553;-10.4037;3.8821;0.6851;-9.6071;1.8454;-0.1626;0.665;2.9635;0.1235;-0.0436;-1.7509;1.0;10.54;48.64;16.86;351.44;78.42;-20.37;2.0;986.06;64.995;35.956352;-83.92499;782.12;NaN;;4.36;14.170857;253.7;15 / 16;230018;2022-10-26 19:16:02:417
4.0448;-4.5655;-0.3891;-3.8763;-8.959;0.9389;2.748;3.9421;-0.9558;-0.0884;0.4925;-2.1057;1.0;10.29;47.33;17.61;305.4;66.0;76.38;0.0;986.09;57.402;35.956345;-83.925;781.72;NaN;;4.64;14.295669;243.4;15 / 16;230518;2022-10-26 19:16:02:917
-4.7776;-10.9217;2.1607;-0.6069;-9.7542;0.8104;2.5787;1.4527;1.4077;-0.0479;0.1476;-1.2102;1.0;14.34;48.28;16.99;295.37;84.07;36.83;0.0;986.02;65.333;35.956345;-83.925;781.72;NaN;;4.64;14.295669;243.4;15 / 16;231019;2022-10-26 19:16:03:418
5.0659;-4.6863;-3.518;-3.7873;-9.0146;0.7507;3.0106;4.3516;-1.0613;0.4164;-0.0918;-0.9178;1.0;12.17;46.69;18.81;297.85;66.81;78.79;0.0;986.11;62.532;35.956345;-83.925;781.72;NaN;;4.64;14.295669;243.4;15 / 16;231519;2022-10-26 19:16:03:918
-2.9794;-8.7924;2.0483;1.7765;-9.5569;1.2962;-5.0045;-0.7923;-3.5247;0.3734;0.366;-1.6549;1.0;14.14;47.46;19.09;273.73;84.53;60.83;0.0;986.06;67.024;35.956345;-83.925;781.72;NaN;;4.64;14.295669;243.4;15 / 16;232019;2022-10-26 19:16:04:418
4.0113;-4.0089;0.8812;-4.0705;-8.8854;0.8066;2.3039;3.6492;-1.0365;0.1298;0.6067;-0.237;0.0;7.82;46.69;21.41;306.64;64.97;78.79;0.0;986.01;61.439;35.956333;-83.925026;779.22;NaN;;5.0;13.926677;259.2;0 / 16;232518;2022-10-26 19:16:04:917
-3.6787;-8.7147;2.1643;-0.2388;-9.7308;1.1933;2.2512;1.5015;2.9147;-0.3842;-0.9106;-1.9016;1.0;6.09;49.43;19.33;337.67;82.87;11.32;0.0;986.0;62.899;35.956333;-83.925026;779.22;NaN;;5.0;13.926677;259.2;0 / 16;233018;2022-10-26 19:16:05:417
1.6878;-8.243;-9.3598;-3.998;-8.9377;0.5513;2.9608;3.9314;0.337;0.1907;0.6232;-0.7238;1.0;5.68;47.42;20.93;309.36;68.57;71.99;0.0;986.06;55.589;35.956326;-83.92504;782.17;NaN;;4.68;13.809966;253.6;14 / 16;233519;2022-10-26 19:16:05:918
-6.227;-10.3484;-10.4432;0.1259;-9.7426;1.1122;0.8674;0.5034;3.3405;-0.1227;-0.0443;-2.159;1.0;9.32;48.58;19.41;344.97;83.45;-6.46;0.0;986.01;58.512;35.956326;-83.92504;782.17;NaN;;4.68;13.809966;253.6;14 / 16;234018;2022-10-26 19:16:06:417
0.5064;-4.7234;-0.3078;-3.4972;-9.1215;0.8589;4.61;4.4302;-0.8238;0.4628;0.7612;0.428;1.0;7.01;46.91;20.34;301.51;71.66;76.0;0.0;986.12;58.541;35.95632;-83.92506;780.28;NaN;;4.54;13.592948;255.0;14 / 16;234518;2022-10-26 19:16:06:917
-1.3274;-10.0588;0.5997;-0.6564;-9.719;1.132;4.7421;2.1653;2.1582;-0.3852;0.0615;-2.1869;1.0;13.56;46.95;19.63;306.62;82.33;30.11;0.0;985.99;64.522;35.95632;-83.92506;780.28;NaN;;4.54;13.592948;255.0;14 / 16;235019;2022-10-26 19:16:07:418
3.8988;-3.6607;0.4406;-3.8189;-8.9925;0.8493;3.0764;5.3422;-0.9479;0.3476;1.2215;0.046;1.0;7.5;46.99;19.76;306.22;66.49;77.46;0.0;986.05;58.922;35.956318;-83.925064;781.59;NaN;;4.72;14.010548;260.3;15 / 16;235519;2022-10-26 19:16:07:918
-4.7091;-8.584;1.6412;0.5962;-9.6922;1.37;4.6908;2.1216;1.7168;-0.3474;-0.3328;-2.2817;0.0;14.04;46.52;19.44;279.7;74.28;77.05;0.0;985.99;63.678;35.956318;-83.925064;781.59;NaN;;4.72;14.010548;260.3;15 / 16;236019;2022-10-26 19:16:08:418
0.5207;-4.7824;-8.6521;-4.2409;-8.8298;0.4684;6.279;3.2689;-0.9537;0.0525;0.9916;-3.0007;0.0;9.6;45.24;21.98;299.14;64.21;83.7;0.0;986.13;58.853;35.95631;-83.92508;783.7;NaN;;4.97;14.159006;244.5;15 / 16;236518;2022-10-26 19:16:08:917
-6.0583;-11.0752;2.0614;-0.3717;-9.7522;0.9626;2.4145;2.4447;2.7683;-0.3009;-0.7774;-1.7109;1.0;10.88;46.16;22.76;320.17;83.96;21.11;0.0;986.04;63.512;35.95631;-83.92508;783.7;NaN;;4.97;14.159006;244.5;15 / 16;237019;2022-10-26 19:16:09:418
4.5703;-3.9826;-1.1659;-4.3289;-8.7555;0.8786;4.7143;4.7192;-0.9379;0.5204;0.3675;-2.7594;1.0;8.81;45.38;23.48;304.11;63.23;78.53;0.0;986.16;61.982;35.956303;-83.92509;780.58;NaN;;4.75;14.872246;222.3;15 / 16;237519;2022-10-26 19:16:09:918
-5.292;-9.6159;1.4689;-0.7456;-9.7129;1.129;2.9421;3.251;0.4367;0.6633;1.3364;-2.7283;0.0;8.93;48.3;20.74;314.98;82.07;33.44;0.0;985.99;63.242;35.956303;-83.92509;780.58;NaN;;4.75;14.872246;222.3;15 / 16;238018;2022-10-26 19:16:10:417
-9.9835;-13.116;1.8326;-4.4913;-8.6944;0.6372;2.3577;4.2851;-0.2601;0.3088;0.604;-2.3889;1.0;6.24;47.33;20.51;306.05;69.35;75.98;0.0;986.13;56.552;35.956295;-83.9251;783.36;NaN;;4.39;15.314813;220.8;15 / 16;238519;2022-10-26 19:16:10:918
-3.3864;-8.6163;2.7305;1.0106;-9.6042;1.7055;-3.7978;-0.3799;-2.5914;1.3324;-0.4474;-2.1756;0.0;12.83;47.03;20.81;359.19;78.34;-30.65;0.0;985.98;60.914;35.956295;-83.9251;783.36;NaN;;4.39;15.314813;220.8;15 / 16;239018;2022-10-26 19:16:11:417
-12.5629;-20.3462;8.3267;-3.9863;-8.9274;0.7623;6.6807;3.1685;-3.8978;0.22;-0.5634;-1.6333;1.0;10.93;46.2;20.23;300.17;65.55;79.17;0.0;986.06;58.083;35.956287;-83.92511;781.43;NaN;;4.18;15.460313;217.4;15 / 16;239518;2022-10-26 19:16:11:917
-5.1221;-9.562;-1.4713;1.4464;-9.6258;1.1929;-4.2458;-0.4408;-6.2553;-0.1644;-0.109;-0.6823;1.0;7.33;49.43;19.29;21.04;78.98;-50.49;0.0;986.05;67.707;35.956287;-83.92511;781.43;NaN;;4.18;15.460313;217.4;15 / 16;240018;2022-10-26 19:16:12:417
4.5775;-3.4726;0.1352;-2.376;-9.5121;0.2116;5.847;5.162;-3.5687;0.0357;0.3131;-1.2834;1.0;8.1;47.4;21.58;305.61;65.45;77.9;0.0;986.1;54.917;35.95628;-83.925125;781.3;NaN;;4.82;16.02961;232.2;15 / 16;240519;2022-10-26 19:16:12:918
-5.0623;-9.1609;0.7086;0.8626;-9.6913;1.2269;-3.3141;-0.4033;-4.3792;0.2233;0.5016;-1.6672;0.0;12.92;46.99;21.94;276.88;75.75;79.93;0.0;986.08;63.906;35.95628;-83.925125;781.3;NaN;;4.82;16.02961;232.2;15 / 16;241018;2022-10-26 19:16:13:417
-2.4371;-10.2479;-3.2285;-3.4005;-9.1524;0.917;7.4715;4.5865;-0.7464;-0.005;1.1192;-2.2103;1.0;6.92;47.14;22.16;303.93;68.34;77.37;0.0;986.16;56.682;35.95628;-83.92514;777.82;NaN;;4.93;16.007795;250.7;15 / 16;241518;2022-10-26 19:16:13:917
-4.5511;-8.7446;3.6449;0.1263;-9.7073;1.3868;1.1174;0.9176;3.1683;0.0353;0.4358;-1.0853;1.0;9.73;47.66;21.6;344.84;81.84;-5.2;0.0;986.04;66.155;35.95628;-83.92514;777.82;NaN;;4.93;16.007795;250.7;15 / 16;242019;2022-10-26 19:16:14:418
4.5272;-4.4686;0.1149;-3.9133;-8.9347;1.0139;3.5061;4.2874;-1.2945;0.0814;0.2566;-0.5172;1.0;7.61;46.35;21.81;306.0;65.66;75.47;0.0;986.14;56.267;35.956276;-83.92516;779.86;NaN;;4.57;16.234196;248.8;15 / 16;242519;2022-10-26 19:16:14:918
-5.2023;-8.007;1.0881;1.7959;-9.5271;1.4761;-6.4658;-0.9111;-6.7495;-0.0056;-0.2146;-2.1408;1.0;6.41;49.07;20.25;301.09;79.75;63.02;0.0;986.04;63.603;35.956276;-83.92516;779.86;NaN;;4.57;16.234196;248.8;15 / 16;243018;2022-10-26 19:16:15:417
3.548;-4.7031;1.1157;-3.6752;-9.0478;0.8942;3.1721;5.1234;-0.9547;0.3503;-0.1372;-0.3538;1.0;4.05;48.49;21.02;311.8;71.27;69.48;0.0;986.15;58.44;35.956272;-83.92518;780.0;NaN;;4.72;16.444769;252.7;14 / 16;243521;2022-10-26 19:16:15:920
-4.1405;-11.3527;3.6607;0.9526;-9.6294;1.5927;1.7061;-0.1861;3.2763;0.2193;0.2415;-1.8532;1.0;7.54;49.8;20.36;6.39;79.09;-30.88;0.0;986.09;63.839;35.956272;-83.92518;780.0;NaN;;4.72;16.444769;252.7;14 / 16;244019;2022-10-26 19:16:16:418
4.2102;-3.894;0.9087;-3.2163;-9.216;0.9439;6.5858;5.211;-0.3826;-0.0932;0.3862;-0.0102;1.0;6.45;46.97;22.71;305.84;68.93;74.68;0.0;986.12;57.298;35.956272;-83.925186;779.12;NaN;;4.1;16.142122;259.4;14 / 16;244518;2022-10-26 19:16:16:917
-4.7764;-8.3076;1.6747;0.3294;-9.6996;1.407;2.0759;1.8566;3.1238;-0.4377;-0.7716;-2.001;1.0;5.34;48.53;21.88;0.28;81.53;-13.18;0.0;986.06;66.909;35.956272;-83.925186;779.12;NaN;;4.1;16.142122;259.4;14 / 16;245018;2022-10-26 19:16:17:417
4.4542;-4.1584;-2.4084;-3.4097;-9.1729;0.6334;5.3718;4.8732;-0.1709;0.5149;0.8687;-2.6311;1.0;4.46;46.84;23.38;308.13;68.96;76.42;0.0;986.16;56.123;35.956272;-83.9252;777.27;NaN;;4.07;16.46856;259.6;14 / 16;245518;2022-10-26 19:16:17:917
-4.8051;-9.0568;1.4127;2.4539;-9.4112;1.2561;-7.4636;0.127;1.2315;-0.3773;-0.4122;-1.9164;1.0;8.78;48.23;21.36;331.5;84.19;11.01;0.0;986.05;55.772;35.956272;-83.9252;777.27;NaN;;4.07;16.46856;259.6;14 / 16;246018;2022-10-26 19:16:18:417
6.0799;-4.9546;-0.0227;-4.0775;-8.888;0.7409;3.5772;3.6464;0.2509;-0.2597;1.9983;-2.9008;1.0;9.13;45.86;22.24;302.79;65.0;79.7;0.0;986.15;55.696;35.956272;-83.92522;776.61;NaN;;4.9;16.628016;276.2;14 / 16;246519;2022-10-26 19:16:18:918
-4.7764;-10.1605;2.6563;0.4149;-9.6444;1.7272;1.9882;0.9012;3.1707;0.9993;2.1073;-2.5324;1.0;9.45;46.76;23.08;289.85;83.14;61.07;0.0;986.05;66.67;35.956272;-83.92522;776.61;NaN;;4.9;16.628016;276.2;14 / 16;247019;2022-10-26 19:16:19:418
4.5093;-6.591;-8.2753;-2.8913;-9.3202;0.9715;7.9902;4.8644;-0.6854;0.1317;1.3345;-3.2751;1.0;6.06;45.11;24.26;304.99;65.78;78.94;0.0;986.12;53.67;35.956272;-83.92523;775.53;NaN;;4.68;16.15052;265.7;14 / 16;247519;2022-10-26 19:16:19:918
-7.0543;-10.0134;-0.7792;1.8166;-9.5354;1.3953;-6.5989;-0.5953;-0.3828;-0.7164;-1.1112;0.6833;1.0;2.78;47.72;21.13;29.73;76.49;-52.47;0.0;986.23;62.551;35.956272;-83.92523;775.53;NaN;;4.68;16.15052;265.7;14 / 16;248019;2022-10-26 19:16:20:418
-16.2009;-18.6356;8.2585;-4.0023;-8.9094;0.8806;3.4303;4.2213;-0.7726;-0.229;1.9208;-2.8686;1.0;5.25;45.45;23.44;308.7;65.3;77.59;0.0;986.23;55.274;35.95627;-83.92525;780.26;NaN;;4.86;17.278168;257.8;14 / 16;248518;2022-10-26 19:16:20:917
