sep=;
ACCELEROMETER X (m/s²);ACCELEROMETER Y (m/s²);ACCELEROMETER Z (m/s²);GRAVITY X (m/s²);GRAVITY Y (m/s²);GRAVITY Z (m/s²);LINEAR ACCELERATION X (m/s²);LINEAR ACCELERATION Y (m/s²);LINEAR ACCELERATION Z (m/s²);GYROSCOPE X (rad/s);GYROSCOPE Y (rad/s);GYROSCOPE Z (rad/s);LIGHT (lux);MAGNETIC FIELD X (μT);MAGNETIC FIELD Y (μT);MAGNETIC FIELD Z (μT);ORIENTATION Z (azimuth °);ORIENTATION X (pitch °);ORIENTATION Y (roll °);PROXIMITY (i);ATMOSPHERIC PRESSURE (hPa);SOUND LEVEL (dB);LOCATION Latitude : ;LOCATION Longitude : ;LOCATION Altitude ( m);LOCATION Altitude-google ( m);LOCATION Altitude-atmospheric pressure ( m);LOCATION Speed ( Kmh);LOCATION Accuracy ( m);LOCATION ORIENTATION (°);Satellites in range;Time since start in ms ;YYYY-MO-DD HH-MI-SS_SSS
-4.8817;2.9291;9.4376;-5.4904;2.3417;7.7809;-1.2163;1.5819;1.2221;0.1575;-0.9021;-0.485;6.0;12.32;-35.42;-5.76;189.61;-15.94;40.99;5.0;995.9;39.85;35.958683;-83.92331;;NaN;;;3870.9678;;0 / 16;14;2022-10-28 14:29:09:755
-5.3243;0.0179;9.3407;-4.6208;0.654;8.625;-0.9441;-0.7932;0.7842;0.7096;-0.3791;0.9194;5.0;32.08;-37.89;-17.29;205.98;3.96;29.46;5.0;995.81;37.83;35.958683;-83.92331;;NaN;;;3870.9678;;0 / 16;514;2022-10-28 14:29:10:255
0.7696;0.9529;2.2301;-4.7278;1.8388;8.3927;0.8536;2.275;4.4613;0.4668;-0.2367;0.1673;5.0;43.56;-47.94;-20.1;210.89;-5.48;32.64;5.0;995.86;44.398;35.958683;-83.92331;;NaN;;;3870.9678;;0 / 16;1014;2022-10-28 14:29:10:755
-7.3522;-0.1639;0.9793;-5.1075;2.5244;7.9819;1.801;-3.28;-2.0513;0.0499;0.7167;0.3783;4.0;65.06;-61.52;1.24;227.25;-14.92;32.61;5.0;995.82;54.27;35.958683;-83.92331;;NaN;;;3870.9678;;0 / 16;1514;2022-10-28 14:29:11:255
-2.2756;-1.5335;8.1051;-4.0232;0.4883;8.93;1.4139;-1.4019;2.1489;2.3061;-1.042;-2.137;6.0;77.1;-66.94;3.28;224.6;1.65;31.66;5.0;995.77;55.558;35.958683;-83.92331;;NaN;;;3870.9678;;0 / 16;2014;2022-10-28 14:29:11:755
-5.3833;0.0;5.5041;-3.4208;3.4026;8.5376;1.3797;-0.4552;3.3555;1.2442;0.2419;-0.126;6.0;101.38;19.8;-10.01;291.25;-20.3;21.83;5.0;995.74;41.946;35.958683;-83.92331;;NaN;;;3870.9678;;0 / 16;2514;2022-10-28 14:29:12:255
-5.5986;3.2548;9.7199;-4.2422;2.837;8.3741;-2.0797;-0.0164;0.848;-0.5547;-0.9928;0.0821;5.0;88.71;22.86;-4.89;294.37;-16.82;26.87;5.0;995.75;44.844;35.958683;-83.92331;;NaN;;;3870.9678;;0 / 16;3014;2022-10-28 14:29:12:755
-4.6863;4.2688;10.6155;-3.0895;1.9232;9.1064;-1.1899;-0.4467;0.5543;-0.0387;0.0792;0.1468;6.0;71.78;24.24;-10.65;294.98;-11.31;18.74;5.0;995.72;51.65;35.958683;-83.92331;;NaN;;;3870.9678;;0 / 16;3514;2022-10-28 14:29:13:255
-4.2413;4.9582;8.3865;-4.8738;2.8132;8.0313;-0.1538;0.1247;0.3434;-0.7107;0.4034;0.717;6.0;69.68;15.68;-2.7;295.93;-20.36;30.97;5.0;995.66;46.99;35.958683;-83.92331;;NaN;;;3870.9678;;0 / 16;4014;2022-10-28 14:29:13:755
-2.1428;4.2915;6.9248;-4.1277;3.3357;8.2465;0.4018;-3.2964;0.5632;1.0028;0.112;0.1386;7.0;65.85;-5.96;6.88;272.1;-19.89;26.59;5.0;995.65;44.515;35.958683;-83.92331;;NaN;;;3870.9678;;0 / 16;4514;2022-10-28 14:29:14:255
-4.8494;4.9379;12.0003;-5.9288;4.6581;6.2707;0.7851;4.4551;9.2096;2.1319;0.3165;-0.6122;7.0;60.09;-7.95;2.44;275.24;-21.06;35.82;5.0;995.62;47.957;35.958683;-83.92331;;NaN;;;3870.9678;;0 / 16;5015;2022-10-28 14:29:14:756
-2.7042;5.0623;6.7071;-5.2171;6.053;5.6845;0.5446;-2.0507;0.7098;-0.7167;-0.8931;-0.6092;7.0;49.2;-16.58;-2.34;282.94;-38.11;42.54;5.0;995.64;52.239;35.958683;-83.92331;;NaN;;;3870.9678;;0 / 16;5514;2022-10-28 14:29:15:255
-3.4247;4.5033;6.8877;-4.0364;5.3192;7.1822;0.8006;-1.898;5.2164;1.4316;-0.8852;-1.4901;8.0;47.87;-19.8;-16.58;273.7;-30.67;28.8;5.0;995.66;55.231;35.958683;-83.92331;;NaN;;;3870.9678;;0 / 16;6015;2022-10-28 14:29:15:756
-1.7285;5.7338;4.7498;-4.4846;5.6947;6.6052;-0.7488;-0.4011;0.4655;-0.1167;-0.3636;-0.0379;9.0;42.84;-22.63;-27.73;300.91;-36.75;37.06;5.0;995.65;59.775;35.958683;-83.92331;;NaN;;;3870.9678;;0 / 16;6513;2022-10-28 14:29:16:254
-3.7875;3.3529;5.656;-3.531;4.5408;7.9425;-0.5327;0.4442;2.5647;-0.1867;-1.0272;-1.5495;10.0;36.53;-27.22;-27.64;266.74;-31.7;26.22;5.0;995.66;35.435;35.958683;-83.92331;;NaN;;;3870.9678;;0 / 16;7015;2022-10-28 14:29:16:756
-4.1656;9.6003;10.9122;-4.3394;3.9794;7.8425;1.8482;2.1236;1.1303;-0.2239;0.509;-0.2181;11.0;30.39;-23.74;-38.38;252.02;-23.94;28.96;5.0;995.66;37.912;35.958683;-83.92331;;NaN;;;3870.9678;;0 / 16;7513;2022-10-28 14:29:17:254
-4.1572;4.9857;7.8754;-4.725;5.1703;6.8639;1.5459;-0.7447;-1.7015;0.5081;-0.3849;-0.7861;9.0;33.34;-18.86;-39.6;325.78;-29.89;32.61;5.0;995.64;53.351;35.958683;-83.92331;;NaN;;;3870.9678;;0 / 16;8014;2022-10-28 14:29:17:755
-3.4223;5.2466;8.1365;-2.9985;5.3554;7.6485;-1.4954;-1.2678;1.1935;0.0216;-0.5792;-0.5411;2.0;38.57;-15.96;-44.27;309.58;-33.1;21.41;5.0;995.62;46.48;35.958683;-83.92331;;NaN;;;3870.9678;;0 / 16;8514;2022-10-28 14:29:18:255
-5.0456;3.5384;3.5767;-5.1827;4.8877;6.7395;0.6583;-4.9072;1.1916;-1.8622;1.1227;0.8734;3.0;23.36;0.86;-53.51;26.71;-29.89;37.56;5.0;995.58;46.299;35.958683;-83.92331;;NaN;;;3870.9678;;0 / 16;9014;2022-10-28 14:29:18:755
-6.786;-0.2548;9.312;-4.4029;4.1355;7.7255;2.8971;-1.1368;-0.0476;0.2892;-1.1875;-1.1619;3.0;31.24;19.01;-44.55;353.4;-24.94;29.68;5.0;995.54;46.128;35.958683;-83.92331;;NaN;;;3870.9678;;0 / 16;9514;2022-10-28 14:29:19:255
-3.0428;5.8092;3.2429;-4.8968;5.2096;6.712;-1.1609;-4.8827;-2.3246;-0.1046;1.1104;1.0735;2.0;11.85;21.15;-47.66;20.26;-27.49;31.58;5.0;995.56;42.631;35.958683;-83.92331;;NaN;;;3870.9678;;0 / 16;10014;2022-10-28 14:29:19:755
-4.2748;1.4186;8.2406;-4.2707;4.5905;7.5405;-2.0938;3.0984;-0.3499;0.0874;-1.1763;-0.5524;3.0;9.47;28.35;-46.18;18.04;-27.91;29.53;5.0;995.56;46.493;35.958683;-83.92331;;NaN;;;3870.9678;;0 / 16;10514;2022-10-28 14:29:20:255
-6.5994;4.9343;10.9759;-4.2183;3.8219;7.9856;-2.1824;3.0272;0.9718;-0.8966;0.4195;-0.0755;3.0;-17.31;25.22;-48.71;42.7;-27.31;25.16;5.0;995.53;48.272;35.958683;-83.92331;;NaN;;;3870.9678;;0 / 16;11015;2022-10-28 14:29:20:756
-4.9941;5.3016;7.0122;-5.0848;4.0357;7.3504;-0.2936;0.6092;1.1423;0.0277;-0.7384;-0.5058;4.0;-26.19;21.49;-47.96;59.93;-24.55;34.21;5.0;995.49;42.403;35.958683;-83.92331;;NaN;;;3870.9678;;0 / 16;11515;2022-10-28 14:29:21:256
-4.7462;4.1704;7.934;-3.9871;3.6128;8.1989;0.2694;-0.3028;-0.2095;0.3901;-0.1084;-0.5213;4.0;-31.37;22.43;-41.79;57.49;-21.03;25.5;5.0;995.47;49.409;35.958683;-83.92331;;NaN;;;3870.9678;;0 / 16;12015;2022-10-28 14:29:21:756
-5.2968;2.6408;6.4798;-4.646;2.7647;8.1818;-0.5164;0.12;-1.8821;-0.8805;-0.4881;0.2051;4.0;-34.97;3.06;-49.39;79.23;-21.92;33.79;5.0;995.47;48.107;35.958683;-83.92331;;NaN;;;3870.9678;;0 / 16;12515;2022-10-28 14:29:22:256
-5.6285;-3.384;9.4101;-3.5522;1.4949;9.0176;-2.9469;0.4956;4.0751;0.2616;-0.9296;-0.4264;7.0;-25.39;2.66;-50.68;79.98;-8.64;27.26;5.0;995.47;41.459;35.958683;-83.92331;;NaN;;;3870.9678;;0 / 16;13015;2022-10-28 14:29:22:756
-2.3797;3.8378;8.9839;-3.3941;3.1983;8.6268;0.7813;0.0461;-1.0415;-0.1421;0.0922;0.0596;13.0;-14.25;15.13;-57.06;48.67;-19.03;21.48;5.0;995.42;40.762;35.958683;-83.92331;;NaN;;;3870.9678;;0 / 16;13515;2022-10-28 14:29:23:256
-0.7899;6.0248;6.5336;-3.6681;5.0798;7.5439;0.2135;-3.1843;1.9753;1.2492;-0.0258;-0.3244;14.0;-15.81;13.8;-63.62;49.51;-25.98;24.59;5.0;995.43;38.656;35.958683;-83.92331;;NaN;;;3870.9678;;0 / 16;14014;2022-10-28 14:29:23:755
-0.8453;4.0029;11.1888;-3.0171;3.6584;8.5839;-1.2696;1.0235;0.9963;-0.6878;-1.0169;-0.9935;14.0;-28.24;-17.46;-64.95;85.66;-21.9;19.37;5.0;995.43;41.183;35.958683;-83.92331;;NaN;;;3870.9678;;0 / 16;14515;2022-10-28 14:29:24:256
-4.4746;1.8924;11.9812;-3.7444;3.9128;8.1755;0.4355;-0.3277;0.4649;1.1488;0.1517;-0.066;14.0;-20.78;-38.78;-43.07;122.59;-23.52;24.61;5.0;995.43;39.136;35.958683;-83.92331;;NaN;;;3870.9678;;0 / 16;15014;2022-10-28 14:29:24:755
-3.201;3.2716;11.2427;-3.0949;4.1843;8.3116;0.1707;2.3344;-0.0369;-0.7129;-0.8449;-0.9913;11.0;-16.82;-36.37;-31.97;129.44;-25.26;20.42;5.0;995.47;39.969;35.958683;-83.92331;;NaN;;;3870.9678;;0 / 16;15515;2022-10-28 14:29:25:256
-5.3172;4.9678;6.5396;-4.2847;5.2565;7.0838;-0.9693;0.1929;3.4738;0.7604;-0.0795;-0.6793;12.0;-10.8;-41.47;-23.34;142.3;-32.26;28.36;5.0;995.46;43.149;35.958683;-83.92331;;NaN;;;3870.9678;;0 / 16;16014;2022-10-28 14:29:25:755
-5.339;4.6265;10.9098;-4.2224;4.9403;7.344;-1.2235;1.4221;0.5632;0.174;-0.5995;-0.2966;10.0;0.47;-32.74;-14.14;162.69;-30.25;29.9;5.0;995.44;42.015;35.958683;-83.92331;;NaN;;;3870.9678;;0 / 16;16514;2022-10-28 14:29:26:255
-7.8144;4.9307;11.9154;-4.2951;4.264;7.7162;-1.9019;2.0602;0.444;-1.1545;0.4409;-0.6405;4.0;2.49;-30.81;-13.18;169.45;-32.6;24.6;5.0;995.39;40.976;35.958683;-83.92331;;NaN;;;3870.9678;;0 / 16;17014;2022-10-28 14:29:26:755
-5.0097;6.6353;3.5372;-5.4266;4.7607;6.6376;0.2804;-0.6501;1.3326;-0.8601;-0.8618;-0.0219;2.0;18.81;-35.76;-21.45;184.57;-29.04;39.27;5.0;995.37;43.331;35.958683;-83.92331;;NaN;;;3870.9678;;0 / 16;17514;2022-10-28 14:29:27:255
-3.8509;4.1859;10.1833;-3.277;3.8397;8.4076;0.8344;0.9907;-1.7046;-0.4978;-0.0951;-0.5592;2.0;19.58;-34.39;-30.49;209.68;-27.64;21.09;5.0;995.38;41.568;35.958683;-83.92331;;NaN;;;3870.9678;;0 / 16;18015;2022-10-28 14:29:27:756
-4.6181;3.5312;8.1736;-5.2328;4.0883;7.2163;0.819;-0.3964;0.4652;-0.1554;0.3718;0.3445;3.0;30.38;-25.93;-38.49;229.99;-26.03;35.26;5.0;995.35;48.12;35.958683;-83.92331;;NaN;;;3870.9678;;0 / 16;18514;2022-10-28 14:29:28:255
-2.2181;4.5511;6.5157;-3.9033;3.9523;8.0817;-0.0533;-3.4877;0.2314;0.5404;-0.4834;-0.288;3.0;34.86;-22.09;-44.91;273.84;-21.95;28.53;5.0;995.36;50.782;35.958683;-83.92331;;NaN;;;3870.9678;;0 / 16;19015;2022-10-28 14:29:28:756
-4.4016;1.2939;5.0013;-5.2319;4.2233;7.1387;0.3794;-3.3222;-0.9664;0.3251;0.5649;0.7407;3.0;36.81;-13.52;-45.04;345.37;-25.51;36.24;5.0;995.3;51.242;35.958683;-83.92331;;NaN;;;3870.9678;;0 / 16;19514;2022-10-28 14:29:29:255
-4.0651;3.912;9.1514;-5.4119;3.0681;7.5808;-0.392;2.6075;-0.2977;-0.4731;-0.3723;-0.4405;3.0;47.94;-8.83;-34.43;305.04;-21.16;37.87;5.0;995.31;39.446;35.958683;-83.92331;;NaN;;;3870.9678;;0 / 16;20015;2022-10-28 14:29:29:756
-3.7349;3.912;6.6233;-4.1768;3.9238;7.9579;-0.7303;-0.8049;-1.0002;-0.1583;0.2299;0.2844;5.0;42.38;1.14;-38.7;319.78;-23.59;27.69;5.0;995.32;44.488;35.958683;-83.92331;;NaN;;;3870.9678;;0 / 16;20514;2022-10-28 14:29:30:255
-3.9598;2.7652;6.5575;-4.6916;5.5245;6.6061;0.2033;-1.196;-0.06;0.4293;0.7878;0.2418;6.0;46.39;-1.12;-34.41;329.12;-34.29;35.38;5.0;995.28;59.475;35.958683;-83.92331;;NaN;;;3870.9678;;0 / 16;21015;2022-10-28 14:29:30:756
-4.4447;7.4707;4.6361;-4.8658;6.2393;5.7936;0.903;0.6171;-2.4006;-0.0517;-0.1193;0.0935;3.0;59.81;-9.83;-17.38;305.66;-39.51;40.03;5.0;995.25;49.028;35.958683;-83.92331;;NaN;;;3870.9678;;0 / 16;21514;2022-10-28 14:29:31:255
-4.3932;6.7513;6.3239;-4.7546;6.2332;5.8916;0.8687;-0.3313;-0.6508;-0.2028;0.0272;-0.236;3.0;51.64;-6.79;-20.64;313.59;-41.41;37.85;5.0;995.27;43.957;35.958683;-83.92331;;NaN;;;3870.9678;;0 / 16;22014;2022-10-28 14:29:31:755
-2.5534;6.7717;5.3414;-4.1436;6.932;5.5631;1.3315;-0.2202;-0.5266;0.357;-1.0061;-0.4872;6.0;23.53;-3.41;-35.31;3.41;-44.98;36.68;5.0;995.27;37.6;35.958683;-83.92331;;NaN;;;3870.9678;;0 / 16;22515;2022-10-28 14:29:32:256
-3.699;5.2585;6.1887;-4.3274;5.9558;6.4786;-0.4765;-2.2795;-0.9214;0.3399;-0.5561;-0.6544;7.0;1.58;-15.99;-38.96;66.85;-37.68;32.19;5.0;995.29;41.168;35.958683;-83.92331;;NaN;;;3870.9678;;0 / 16;23014;2022-10-28 14:29:32:755
-2.4096;5.2143;4.5033;-4.1145;6.6528;5.9145;1.2067;0.3394;1.6139;0.5128;-0.9637;-1.032;9.0;-6.77;-27.66;-16.91;131.8;-42.72;34.83;5.0;995.28;38.281;35.958683;-83.92331;;NaN;;;3870.9678;;0 / 16;23515;2022-10-28 14:29:33:256
-3.2979;4.028;3.9467;-3.7246;6.0749;6.7374;1.0168;-0.7791;3.9798;1.5826;-0.353;-0.9293;8.0;4.24;-9.79;-7.76;177.84;-35.0;27.31;5.0;995.27;39.188;35.958683;-83.92331;;NaN;;;3870.9678;;0 / 16;24015;2022-10-28 14:29:33:756
-8.5576;0.6547;9.9823;-5.6056;4.6924;6.5367;-2.574;-3.2434;2.9781;1.2767;-0.3144;-1.0169;8.0;-23.7;21.0;-21.04;58.97;-29.09;38.2;5.0;995.29;47.827;35.958683;-83.92331;;NaN;;;3870.9678;;0 / 16;24514;2022-10-28 14:29:34:255
-5.3064;7.1824;6.816;-5.4063;4.7915;6.632;-0.0125;0.3374;-1.581;0.1376;-0.2398;-0.0014;4.0;-58.65;-2.42;-31.54;96.99;-27.58;40.15;5.0;995.27;45.268;35.958683;-83.92331;;NaN;;;3870.9678;;0 / 16;25014;2022-10-28 14:29:34:755
-8.0357;7.4755;6.7083;-4.6302;4.355;7.4677;-0.9132;0.2408;1.0591;0.3237;0.3454;-0.306;5.0;-39.84;-35.55;-9.86;133.94;-26.36;31.8;5.0;995.24;36.532;35.958683;-83.92331;;NaN;;;3870.9678;;0 / 16;25514;2022-10-28 14:29:35:255
-4.4698;6.0081;5.0396;-5.2985;5.1503;6.4475;2.5758;1.8147;-0.4764;-0.352;0.0794;-0.0909;9.0;-24.77;-35.42;-2.77;149.99;-34.24;39.7;5.0;995.2;41.54;35.958683;-83.92331;;NaN;;;3870.9678;;0 / 16;26015;2022-10-28 14:29:35:756
-3.2058;4.5846;5.3486;-4.0997;5.2804;7.175;1.6488;-0.0423;-2.2483;0.1196;-0.779;-0.8343;15.0;-26.31;-21.99;12.26;151.87;-32.58;29.74;5.0;995.18;45.515;35.958683;-83.92331;;NaN;;;3870.9678;;0 / 16;26514;2022-10-28 14:29:36:255
-1.2305;8.3758;2.6097;-5.2264;5.3696;6.3264;-2.5626;-5.8284;0.6359;-1.0384;0.368;-0.1274;22.0;-15.45;-10.56;7.52;160.04;-33.2;39.56;5.0;995.16;41.364;35.958683;-83.92331;;NaN;;;3870.9678;;0 / 16;27014;2022-10-28 14:29:36:755
-4.7402;3.9921;4.2843;-4.4923;4.7049;7.3385;0.5118;-2.1632;1.8471;1.1326;-0.3899;-0.5485;22.0;-21.81;-13.67;-10.74;118.48;-28.67;31.47;5.0;995.14;49.941;35.958683;-83.92331;;NaN;;;3870.9678;;0 / 16;27514;2022-10-28 14:29:37:255
-4.3274;5.5424;3.9371;-5.1082;4.9396;6.7585;0.0485;-3.379;-1.0666;0.022;0.9637;0.7312;24.0;-19.16;-21.51;-14.96;127.72;-26.84;33.14;5.0;995.19;44.879;35.958683;-83.92331;;NaN;;;3870.9678;;0 / 16;28014;2022-10-28 14:29:37:755
-5.3291;1.1468;9.7343;-5.9544;4.0409;6.6624;-0.066;3.6905;0.7845;-0.1427;-0.6202;-0.5455;10.0;-21.43;-22.2;-32.93;112.6;-24.33;41.79;5.0;995.15;48.521;35.958683;-83.92331;;NaN;;;3870.9678;;0 / 16;28515;2022-10-28 14:29:38:256
-6.5599;0.7708;2.406;-5.989;4.7044;6.1782;0.6001;-3.5267;0.1586;0.8149;1.2609;0.5785;6.0;-22.76;-28.99;-33.11;120.15;-21.27;34.33;5.0;995.12;42.794;35.958683;-83.92331;;NaN;;;3870.9678;;0 / 16;29014;2022-10-28 14:29:38:755
-6.4196;6.8483;8.3554;-6.0267;4.4038;6.3605;0.7124;1.9836;-0.0517;0.316;-0.7713;-0.624;7.0;-18.71;-28.69;-41.49;113.68;-26.68;43.46;5.0;995.09;40.976;35.958683;-83.92331;;NaN;;;3870.9678;;0 / 16;29515;2022-10-28 14:29:39:256
-7.6325;7.1417;8.0082;-5.4323;4.3498;6.9093;-0.4068;0.5513;0.2454;0.2186;-0.0503;-0.4505;8.0;-14.81;-30.07;-37.84;116.29;-26.63;36.52;5.0;995.11;37.41;35.958683;-83.92331;;NaN;;;3870.9678;;0 / 16;30014;2022-10-28 14:29:39:755
-4.9439;4.9379;4.9008;-6.0374;5.1614;5.7515;0.8499;-0.2135;-0.8836;0.0385;-0.0661;-0.1686;11.0;4.24;-27.66;-30.62;120.6;-31.94;46.33;5.0;995.07;49.51;35.958683;-83.92331;;NaN;;;3870.9678;;0 / 16;30514;2022-10-28 14:29:40:255
-6.3132;0.2357;9.2483;-4.7787;3.1872;7.9483;-3.7198;-1.092;2.858;0.1866;-0.887;-0.2736;11.0;15.02;-17.83;-32.93;121.54;-20.24;36.44;5.0;995.13;43.432;35.958683;-83.92331;;NaN;;;3870.9678;;0 / 16;31015;2022-10-28 14:29:40:756
-2.9602;4.7342;8.1135;-3.9768;4.8849;7.5162;1.4724;-0.5508;0.3623;0.6909;-0.2965;-0.77;17.0;10.01;-7.61;-41.32;37.55;-29.88;27.88;5.0;995.05;39.783;35.958683;-83.92331;;NaN;;;3870.9678;;0 / 16;31514;2022-10-28 14:29:41:255
-3.9203;5.8415;4.5631;-4.3323;6.3309;6.1091;0.2849;0.3117;0.5498;0.7693;-0.5282;-0.4538;18.0;1.05;-13.88;-42.99;65.52;-38.05;35.35;5.0;995.01;39.767;35.958683;-83.92331;;NaN;;;3870.9678;;0 / 16;32014;2022-10-28 14:29:41:755
-2.9435;4.6361;4.3023;-3.5899;6.1208;6.769;-0.3213;-1.7716;3.7641;1.1137;-0.605;-0.6632;17.0;-9.13;-39.73;-39.64;113.9;-38.62;27.94;5.0;995.05;37.896;35.958683;-83.92331;;NaN;;;3870.9678;;0 / 16;32514;2022-10-28 14:29:42:255
-5.79;4.028;3.9538;-4.5996;5.5047;6.6868;0.5088;2.9369;1.4355;0.7258;-0.1243;-0.0765;13.0;-5.59;-47.91;-20.79;152.18;-34.15;34.52;5.0;995.07;41.168;35.958683;-83.92331;;NaN;;;3870.9678;;0 / 16;33014;2022-10-28 14:29:42:755
-2.758;6.8447;9.4017;-4.1251;4.7507;7.5223;-2.051;1.5257;0.2734;-0.0439;-1.2579;-0.3319;10.0;2.87;-46.54;3.36;185.58;-28.98;28.74;5.0;995.06;44.795;35.958683;-83.92331;;NaN;;;3870.9678;;0 / 16;33514;2022-10-28 14:29:43:255
-7.739;0.4669;13.8559;-4.6881;3.265;7.9707;-0.6086;0.9057;1.7056;-0.3393;0.0481;-1.1206;7.0;22.01;-36.77;14.83;217.03;-23.83;27.78;5.0;994.98;43.164;35.958683;-83.92331;;NaN;;;3870.9678;;0 / 16;34014;2022-10-28 14:29:43:755
-5.0587;6.7765;5.4084;-5.7948;4.433;6.5528;0.1742;-0.5759;1.2673;0.1392;0.2946;0.1918;4.0;28.41;-20.91;13.05;243.5;-26.87;41.49;5.0;994.92;46.792;35.958683;-83.92331;;NaN;;;3870.9678;;0 / 16;34514;2022-10-28 14:29:44:255
-2.8585;3.1352;9.4723;-3.5416;2.723;8.73;1.4062;1.5057;-1.1686;-0.425;-0.3781;-0.8622;4.0;27.36;-22.89;5.93;233.94;-20.46;22.89;5.0;994.95;44.701;35.958683;-83.92331;;NaN;;;3870.9678;;0 / 16;35015;2022-10-28 14:29:44:756
-3.7672;2.9913;8.2238;-4.6962;3.2948;7.9536;-0.9856;-2.3348;-3.6194;-0.2826;0.3734;0.5161;5.0;31.93;-15.11;0.73;252.31;-19.63;30.56;5.0;994.96;43.113;35.958683;-83.92331;;NaN;;;3870.9678;;0 / 16;35514;2022-10-28 14:29:45:255
-3.5635;0.3066;7.3379;-3.6494;2.3163;8.8027;0.1815;-3.4502;1.2959;0.8757;-0.5573;-0.7249;7.0;29.55;-15.26;3.94;245.59;-10.39;25.96;5.0;994.96;43.426;35.958683;-83.92331;;NaN;;;3870.9678;;0 / 16;36015;2022-10-28 14:29:45:756
-8.1099;-1.8446;3.821;-5.4558;3.6004;7.3104;-2.5488;-5.1942;-3.2138;-0.2156;1.0673;1.8463;9.0;26.33;-1.74;-1.56;276.41;-15.87;32.38;5.0;994.87;46.637;35.958683;-83.92331;;NaN;;;3870.9678;;0 / 16;36515;2022-10-28 14:29:46:256
-5.5412;-0.1854;5.6094;-4.9469;3.091;7.8832;-0.6511;0.9219;4.3344;1.1084;-0.8863;-0.8805;9.0;25.22;-2.94;0.32;274.22;-16.8;36.99;5.0;994.92;40.769;35.958683;-83.92331;;NaN;;;3870.9678;;0 / 16;37015;2022-10-28 14:29:46:756
-5.3303;-0.128;3.1364;-5.0356;3.1621;7.7983;-0.6835;-2.2361;1.0644;1.1689;0.5402;0.6766;12.0;18.71;8.33;-12.17;326.25;-18.81;32.85;5.0;994.9;44.134;35.958683;-83.92331;;NaN;;;3870.9678;;0 / 16;37515;2022-10-28 14:29:47:256
-5.5938;4.2401;12.9867;-5.3706;2.323;7.8696;1.2379;2.3117;-0.8714;-0.2488;-0.0556;-0.1188;15.0;16.18;11.66;-17.4;348.76;-14.61;34.73;5.0;994.89;44.113;35.958683;-83.92331;;NaN;;;3870.9678;;0 / 16;38014;2022-10-28 14:29:47:755
-6.3012;4.8912;10.2538;-4.0803;2.5718;8.5386;-1.1791;0.8304;1.5407;0.1694;0.0738;-0.6682;23.0;2.91;2.44;-31.01;47.98;-15.2;25.54;5.0;994.87;46.78;35.958683;-83.92331;;NaN;;;3870.9678;;0 / 16;38514;2022-10-28 14:29:48:255
-5.0958;5.668;7.1393;-5.072;3.9699;7.395;2.522;1.4058;-1.9871;-0.0589;0.3766;0.176;27.0;6.36;-13.11;-31.37;90.75;-23.88;34.44;5.0;994.83;47.421;35.958683;-83.92331;;NaN;;;3870.9678;;0 / 16;39014;2022-10-28 14:29:48:755
-3.7433;3.7038;8.0644;-4.0217;3.8221;8.0863;0.3984;0.2108;-1.4984;-0.212;-0.409;-0.3292;25.0;16.33;-24.88;-28.95;187.94;-22.94;26.44;5.0;994.82;45.546;35.958683;-83.92331;;NaN;;;3870.9678;;0 / 16;39514;2022-10-28 14:29:49:255
-6.8722;-1.8793;7.5763;-5.2649;4.4707;6.9616;-1.11;-3.6377;-0.3554;0.5776;-0.3562;-0.8667;43.0;25.11;-25.69;-26.1;213.52;-23.23;33.4;5.0;994.84;43.807;35.958683;-83.92331;;NaN;;;3870.9678;;0 / 16;40014;2022-10-28 14:29:49:755
-3.2967;6.2342;6.3802;-4.704;5.1838;6.8681;1.0759;-0.2395;-2.0517;0.2101;-0.1377;-0.0988;49.0;39.81;-23.17;-16.07;268.57;-31.91;34.41;5.0;994.8;38.834;35.958683;-83.92331;;NaN;;;3870.9678;;0 / 16;40514;2022-10-28 14:29:50:255
-4.0663;3.6401;7.3283;-4.2861;4.5682;7.5453;0.3499;-1.6116;0.6687;0.5513;-0.388;-0.9836;63.0;34.07;-21.79;-23.16;264.93;-28.92;28.09;5.0;994.81;38.705;35.958683;-83.92331;;NaN;;;3870.9678;;0 / 16;41013;2022-10-28 14:29:50:754
-2.278;5.6273;4.7907;-4.3716;5.5914;6.7672;-2.38;-2.9507;-0.1324;0.2772;-0.6954;-0.7818;62.0;36.13;-13.46;-23.96;304.77;-34.76;32.86;5.0;994.78;41.28;35.958683;-83.92331;;NaN;;;3870.9678;;0 / 16;41513;2022-10-28 14:29:51:254
-3.1735;3.28;11.4066;-3.7359;4.2595;8.0044;1.6679;-1.5913;3.5045;0.2723;-0.4881;-1.3998;46.0;30.45;-8.61;-25.26;298.57;-28.33;25.44;5.0;994.84;47.042;35.958683;-83.92331;;NaN;;;3870.9678;;0 / 16;42013;2022-10-28 14:29:51:754
-7.351;1.1276;10.2754;-5.3867;3.7455;7.2888;-1.654;-2.3328;3.0898;1.2749;-0.1606;-0.605;53.0;21.71;-8.61;-33.02;0.5;-19.93;33.75;5.0;994.82;39.149;35.958683;-83.92331;;NaN;;;3870.9678;;0 / 16;42513;2022-10-28 14:29:52:254
-4.678;3.8605;10.9026;-5.0394;2.8499;7.9154;-0.5733;2.6557;-0.9702;-0.4037;-1.1109;-0.7017;65.0;29.34;-20.03;-30.99;219.45;-20.33;38.59;5.0;994.74;44.031;35.958683;-83.92331;;NaN;;;3870.9678;;0 / 16;43013;2022-10-28 14:29:52:754
-4.9546;2.8968;14.8229;-4.7004;2.2626;8.3041;-3.1104;2.274;1.647;-0.9511;-0.3079;0.2524;73.0;35.29;-17.93;-29.21;244.5;-13.34;29.51;5.0;994.75;45.272;35.958683;-83.92331;;NaN;;;3870.9678;;0 / 16;43513;2022-10-28 14:29:53:254
-5.4168;7.448;6.8973;-5.3889;3.4915;7.4121;-0.3099;-0.6459;1.3424;0.2516;0.1949;0.2686;65.0;31.71;-16.03;-27.75;261.94;-19.3;34.57;5.0;994.73;42.899;35.958683;-83.92331;;NaN;;;3870.9678;;0 / 16;44013;2022-10-28 14:29:53:754
-6.5898;4.4255;12.0784;-4.567;2.4204;8.3339;-1.8436;2.2251;3.0964;0.0048;0.1641;-0.6025;50.0;21.34;-10.56;-36.54;255.83;-14.29;28.72;5.0;994.75;52.745;35.958683;-83.92331;;NaN;;;3870.9678;;0 / 16;44515;2022-10-28 14:29:54:256
-3.4965;1.4378;6.8925;-5.5757;3.0726;7.4593;0.1806;1.0338;1.8405;0.6388;-0.7684;-0.3951;48.0;17.74;-10.97;-41.91;72.07;-18.26;36.78;5.0;994.68;45.815;35.958412;-83.92437;764.84;NaN;;;89.48387;;0 / 16;45014;2022-10-28 14:29:54:755
-6.8889;1.6304;14.4066;-4.4852;2.3942;8.3858;-3.3112;1.698;1.5718;-0.7758;0.161;-0.0996;34.0;7.59;-10.95;-46.67;88.59;-14.13;28.14;5.0;994.69;54.169;35.958412;-83.92437;764.84;NaN;;;89.48387;;0 / 16;45515;2022-10-28 14:29:55:256
-7.6863;7.9699;9.5213;-5.9799;3.1819;7.0913;-1.4945;4.8327;2.0054;0.399;-0.501;-0.553;36.0;14.81;-14.96;-44.93;85.45;-20.72;41.1;5.0;994.64;47.077;35.958412;-83.92437;764.84;NaN;;;89.48387;;0 / 16;46014;2022-10-28 14:29:55:755
-5.1963;2.4814;13.4776;-5.4343;2.8161;7.6621;-1.3902;0.4088;-0.5668;-0.1081;0.0846;-0.5711;32.0;25.2;-13.13;-42.45;68.5;-16.69;35.35;5.0;994.62;51.563;35.958412;-83.92437;764.84;NaN;;;89.48387;;0 / 16;46514;2022-10-28 14:29:56:255
-4.3466;4.9187;4.7824;-5.8576;3.2928;7.1426;1.342;0.695;-1.4304;-0.3437;0.1419;0.0597;34.0;32.31;-10.41;-41.57;9.66;-20.71;39.02;5.0;994.59;44.086;35.958412;-83.92437;764.84;NaN;;;89.48387;;0 / 16;47015;2022-10-28 14:29:56:756
-5.1353;-2.8765;8.0142;-4.5055;1.7637;8.5299;-2.5153;-1.0992;4.8148;0.21;0.3278;0.657;20.0;30.36;-2.04;-43.26;318.92;-10.36;27.84;5.0;994.6;38.372;35.958412;-83.92437;764.84;NaN;;;89.48387;;0 / 16;47514;2022-10-28 14:29:57:255
-3.6066;4.5846;7.5544;-4.9105;3.819;7.5811;1.6234;0.3941;-0.1823;0.5032;0.194;-0.1581;25.0;23.89;-3.68;-49.2;15.61;-20.27;30.53;5.0;994.56;37.67;35.958412;-83.92437;764.84;NaN;;;89.48387;;0 / 16;48015;2022-10-28 14:29:57:756
-4.5751;4.5715;8.129;-5.9074;4.6166;6.3215;1.2083;0.4403;1.5983;0.917;-0.3257;-0.9999;20.0;28.63;-13.26;-41.49;22.59;-29.36;41.53;5.0;994.63;38.791;35.958412;-83.92437;764.84;NaN;;;89.48387;;0 / 16;48514;2022-10-28 14:29:58:255
-2.2445;3.6858;7.3487;-4.8011;3.3369;7.8731;-0.4588;-3.8757;0.9694;0.5701;-0.6912;-0.7581;21.0;23.79;-8.55;-45.32;32.83;-19.8;34.39;5.0;994.58;41.449;35.958412;-83.92437;764.84;NaN;;;89.48387;;0 / 16;49015;2022-10-28 14:29:58:756
-5.7458;3.4941;9.883;-5.1069;3.2802;7.7026;0.1363;1.3966;2.7942;0.4285;-0.1142;-0.7163;25.0;4.2;-18.41;-55.31;91.89;-19.54;33.55;5.0;994.56;38.109;35.958412;-83.92437;764.84;NaN;;;89.48387;;0 / 16;49514;2022-10-28 14:29:59:255
-4.7728;4.4578;5.5723;-5.6337;4.3935;6.7178;0.6751;-0.1237;-2.3077;0.2495;-0.1389;-0.3505;23.0;17.49;-29.59;-41.29;125.44;-25.68;38.16;5.0;994.53;37.958;35.958412;-83.92437;764.84;NaN;;;89.48387;;0 / 16;50014;2022-10-28 14:29:59:755
-2.4682;3.3314;6.0212;-4.4756;4.209;7.6436;0.6034;-2.7114;0.9861;0.1901;0.1466;0.5424;21.0;23.18;-32.16;-28.09;202.82;-25.42;30.35;5.0;994.54;46.217;35.958412;-83.92437;764.84;NaN;;;89.48387;;0 / 16;50514;2022-10-28 14:30:00:255
-4.4746;3.6619;11.6892;-3.8742;2.9776;8.5027;0.809;0.8815;-1.5924;0.5483;0.3877;0.0217;21.0;13.54;-29.64;-29.03;182.18;-17.68;24.5;5.0;994.5;48.037;35.958412;-83.92437;764.84;NaN;;;89.48387;;0 / 16;51014;2022-10-28 14:30:00:755
-5.9507;3.1484;8.8678;-5.1088;2.9474;7.8347;0.4021;0.3013;-1.4323;0.0812;-0.2304;-1.1471;20.0;16.39;-31.24;-17.74;189.05;-17.49;33.11;5.0;994.52;39.423;35.958412;-83.92437;764.84;NaN;;;89.48387;;0 / 16;51514;2022-10-28 14:30:01:255
-3.6377;1.5227;9.0126;-4.1408;2.7319;8.4594;0.7734;-0.464;-0.6888;0.4746;-0.2554;-0.6965;13.0;26.33;-24.36;-15.69;225.03;-15.7;26.56;5.0;994.52;39.278;35.958412;-83.92437;764.84;NaN;;;89.48387;;0 / 16;52014;2022-10-28 14:30:01:755
-6.2593;2.9375;3.1125;-5.0165;3.6203;7.6091;-2.4893;-4.6697;2.5418;1.6744;0.5043;0.1539;9.0;31.54;-16.76;-22.56;261.07;-21.66;33.4;5.0;994.49;42.004;35.958412;-83.92437;764.84;NaN;;;89.48387;;0 / 16;52515;2022-10-28 14:30:02:256
-4.0687;0.5758;11.9764;-4.4186;2.7257;8.3196;-0.7115;3.0411;2.1181;-0.5916;-1.0104;-0.419;8.0;29.66;-21.17;-21.07;239.94;-21.76;36.84;5.0;994.45;42.188;35.958412;-83.92437;764.84;NaN;;;89.48387;;0 / 16;53014;2022-10-28 14:30:02:755
-5.3052;0.0957;10.7207;-4.1738;2.7992;8.4211;-1.7616;0.6253;1.0879;0.4266;0.3312;1.1363;11.0;20.78;-20.44;-28.76;213.15;-16.58;26.36;5.0;994.51;40.151;35.958412;-83.92437;764.84;NaN;;;89.48387;;0 / 16;53515;2022-10-28 14:30:03:256
-3.5444;4.835;12.5414;-4.5957;3.3808;7.9762;-0.6513;4.5717;-3.6331;-1.2663;-0.5694;-0.1613;13.0;15.3;-19.09;-31.2;132.73;-24.01;32.0;5.0;994.43;48.389;35.958412;-83.92437;764.84;NaN;;;89.48387;;0 / 16;54014;2022-10-28 14:30:03:755
-5.2777;4.7545;11.9345;-4.4064;4.3062;7.6295;-1.8628;0.1142;3.8403;1.0132;0.585;0.3675;16.0;3.88;-17.19;-33.43;114.0;-20.67;25.88;5.0;994.44;45.583;35.958412;-83.92437;764.84;NaN;;;89.48387;;0 / 16;54515;2022-10-28 14:30:04:256
-6.245;7.0484;7.0448;-5.3555;4.0826;7.1289;1.0383;0.9771;-0.6901;-0.0168;-0.0099;-0.1787;17.0;8.04;-15.0;-26.06;108.13;-24.68;35.96;5.0;994.4;47.319;35.958412;-83.92437;764.84;NaN;;;89.48387;;0 / 16;55014;2022-10-28 14:30:04:755
-8.6991;3.0885;8.2155;-4.9472;2.8277;7.9812;1.7052;-0.1034;1.7496;0.9606;0.1378;-1.6313;21.0;2.21;-2.21;-30.36;67.85;-16.76;31.79;5.0;994.36;45.664;35.958412;-83.92437;764.84;NaN;;;89.48387;;0 / 16;55514;2022-10-28 14:30:05:255
-5.3219;4.0639;7.0663;-6.2341;3.8926;6.4927;2.3421;-2.5197;-2.9054;-0.8395;0.9935;0.946;29.0;-9.86;-12.88;-30.53;101.44;-23.39;43.84;5.0;994.34;48.042;35.958412;-83.92437;764.84;NaN;;;89.48387;;0 / 16;56014;2022-10-28 14:30:05:755
-5.2956;-0.6045;7.1812;-5.4174;3.5494;7.3637;0.1604;-2.5506;2.5163;1.5469;-0.5629;-0.5457;32.0;-15.17;-6.9;-42.81;85.75;-21.22;36.34;5.0;994.35;40.551;35.958412;-83.92437;764.84;NaN;;;89.48387;;0 / 16;56514;2022-10-28 14:30:06:255
-7.3953;-0.4167;4.7139;-5.6283;4.0376;6.9419;-1.8119;-4.1027;0.4739;1.1646;0.5605;0.3476;39.0;-23.57;-24.34;-43.67;111.21;-14.8;32.82;5.0;994.32;48.898;35.958412;-83.92437;764.84;NaN;;;89.48387;;0 / 16;57014;2022-10-28 14:30:06:755
-5.2525;5.1042;6.117;-6.1046;3.4605;6.8505;1.2674;1.9281;-2.1506;-0.4334;-0.1106;-0.5476;37.0;2.49;-47.79;-25.97;157.2;-20.66;41.71;5.0;994.29;47.626;35.958412;-83.92437;764.84;NaN;;;89.48387;;0 / 16;57514;2022-10-28 14:30:07:255
-2.9471;4.1524;7.7139;-4.4718;3.7592;7.8766;2.0342;0.4945;-2.5718;-0.4027;-0.2447;-0.3486;42.0;16.28;-48.13;-20.31;186.46;-24.38;30.21;5.0;994.27;46.784;35.958412;-83.92437;764.84;NaN;;;89.48387;;0 / 16;58014;2022-10-28 14:30:07:755
-8.2908;4.9989;5.3821;-5.892;3.4938;7.0177;0.2604;1.0222;0.8212;0.4156;0.3235;-0.2949;99.0;34.09;-45.6;-1.07;216.03;-20.87;40.02;5.0;994.3;40.32;35.958412;-83.92437;764.84;NaN;;;89.48387;;0 / 16;58514;2022-10-28 14:30:08:255
-4.9247;6.4508;4.6301;-6.2487;5.6814;4.9846;0.5606;-0.5396;0.2967;1.2842;-0.3092;-0.3937;91.0;39.99;-40.56;20.19;237.34;-31.17;47.68;5.0;994.32;47.333;35.958412;-83.92437;764.84;NaN;;;89.48387;;0 / 16;59014;2022-10-28 14:30:08:755
-4.6122;5.292;6.8782;-5.3417;6.1944;5.4098;-0.0384;-2.2331;4.838;1.2372;-0.3335;-0.6551;74.0;61.56;-6.36;24.77;280.68;-39.17;44.64;5.0;994.29;44.24;35.958412;-83.92437;764.84;NaN;;;89.48387;;0 / 16;59514;2022-10-28 14:30:09:255
-4.3334;6.2856;1.64;-6.1098;6.6193;3.8762;-1.0289;-0.2915;-1.5881;-0.2556;-0.5106;-0.0807;78.0;56.83;2.76;1.05;317.58;-42.45;57.61;5.0;994.31;48.337;35.958412;-83.92437;764.84;NaN;;;89.48387;;0 / 16;60014;2022-10-28 14:30:09:755
-6.8518;5.0587;8.1604;-4.97;5.9564;5.9993;-1.3809;-0.8727;2.489;0.5446;-0.7264;-0.5166;161.0;46.37;-1.99;-9.39;306.7;-38.19;41.25;5.0;994.28;41.509;35.958412;-83.92437;764.84;NaN;;;89.48387;;0 / 16;60515;2022-10-28 14:30:10:256
-7.5174;2.5774;11.6701;-5.6147;3.5475;7.2153;-0.6821;4.3805;1.5659;-0.6812;0.224;-0.7578;167.0;28.14;-1.76;-22.35;324.42;-26.96;35.83;5.0;994.31;42.532;35.958412;-83.92437;764.84;NaN;;;89.48387;;0 / 16;61015;2022-10-28 14:30:10:756
-4.4315;2.8573;7.8933;-4.6695;4.4904;7.3622;-1.4847;0.7312;-1.6733;0.6409;-1.5639;-0.3432;115.0;12.73;-8.76;-20.59;4.66;-27.25;32.39;5.0;994.26;46.653;35.958412;-83.92437;764.84;NaN;;;89.48387;;0 / 16;61515;2022-10-28 14:30:11:256
-6.3646;3.9646;9.9033;-3.913;3.4782;8.2923;0.3595;-0.0092;1.452;0.3874;-0.0615;-0.9063;110.0;26.19;-11.44;-3.88;239.21;-20.77;25.26;5.0;994.24;43.68;35.958412;-83.92437;764.84;NaN;;;89.48387;;0 / 16;62015;2022-10-28 14:30:11:756
-7.8981;5.7422;7.4515;-5.6077;3.0402;7.4486;-1.2652;-1.3118;1.2148;-0.0767;0.2647;0.5245;106.0;17.63;2.12;0.73;288.49;-18.06;36.97;5.0;994.24;46.853;35.958412;-83.92437;764.84;NaN;;;89.48387;;0 / 16;62514;2022-10-28 14:30:12:255
-5.5232;3.1412;9.6075;-4.3389;2.7565;8.3514;0.0354;0.4779;2.0085;0.4194;4.0E-4;-0.6408;106.0;4.43;-3.62;1.33;228.58;-17.38;26.55;5.0;994.16;48.539;35.958412;-83.92437;764.84;NaN;;;89.48387;;0 / 16;63014;2022-10-28 14:30:12:755
-6.0009;1.8075;8.6414;-5.8633;2.7215;7.3746;0.4672;0.0391;-5.4852;-1.6408;0.131;0.5152;94.0;5.57;-15.75;-4.48;189.31;-16.11;38.49;5.0;994.18;47.233;35.958412;-83.92437;764.84;NaN;;;89.48387;;0 / 16;63515;2022-10-28 14:30:13:256
-3.0787;3.7062;8.0357;-4.4226;2.7612;8.3058;0.8811;-0.1657;-0.4995;0.1242;-0.1964;-0.3166;92.0;8.48;-16.18;-2.32;203.69;-16.1;28.61;5.0;994.19;48.839;35.958412;-83.92437;764.84;NaN;;;89.48387;;0 / 16;64014;2022-10-28 14:30:13:755
-6.3969;1.1731;5.1162;-6.1466;3.2854;6.899;0.3005;-3.1747;-1.5937;0.1136;0.5202;0.0228;98.0;17.01;-4.91;-2.51;247.89;-17.67;35.79;5.0;994.14;50.515;35.958412;-83.92437;764.84;NaN;;;89.48387;;0 / 16;64514;2022-10-28 14:30:14:255
-5.808;3.4211;8.0094;-5.819;2.4401;7.5071;-1.3477;2.3003;-0.4613;-0.1569;-0.8735;-0.3985;97.0;23.44;1.74;-1.5;292.73;-16.6;43.77;5.0;994.14;40.603;35.958412;-83.92437;764.84;NaN;;;89.48387;;0 / 16;65014;2022-10-28 14:30:14:755
-6.7944;3.6209;8.3734;-4.917;2.5725;8.0855;1.0432;-0.07;-0.0935;-0.5649;0.0396;-0.6349;109.0;24.9;13.74;-1.76;310.52;-15.21;31.3;5.0;994.15;42.364;35.958412;-83.92437;764.84;NaN;;;89.48387;;0 / 16;65514;2022-10-28 14:30:15:255
-4.9343;3.3218;4.9128;-6.2773;2.4499;7.1249;0.2744;-0.9298;-2.5117;-0.6182;0.2992;0.6493;128.0;7.29;16.63;-7.59;359.36;-13.92;40.04;5.0;994.1;47.773;35.958412;-83.92437;764.84;NaN;;;89.48387;;0 / 16;66014;2022-10-28 14:30:15:755
-5.8092;-3.4834;10.1091;-4.2588;-0.174;8.8319;-0.2615;-5.6156;6.9817;1.0162;-0.0294;0.0113;118.0;-6.23;15.06;-6.17;28.19;1.02;25.74;5.0;994.2;44.759;35.958412;-83.92437;764.84;NaN;;;89.48387;;0 / 16;66514;2022-10-28 14:30:16:255
-2.6803;4.3274;8.2585;-4.1676;4.0763;7.8857;1.9282;-0.2508;-0.7024;1.4872;-0.313;-0.9856;96.0;-14.85;7.44;-5.62;69.7;-18.25;30.14;5.0;994.06;50.391;35.958412;-83.92437;764.84;NaN;;;89.48387;;0 / 16;67014;2022-10-28 14:30:16:755
-5.0886;3.827;6.6891;-5.4078;4.8213;6.6092;2.595;0.5949;-1.6742;0.2399;-0.6554;-0.9136;115.0;-18.51;2.31;-14.4;87.2;-29.45;39.29;5.0;994.08;42.13;35.958412;-83.92437;764.84;NaN;;;89.48387;;0 / 16;67514;2022-10-28 14:30:17:255
-2.467;1.0977;10.4803;-3.683;3.7262;8.2898;0.5222;1.8485;-0.4936;0.224;-1.8246;-1.3486;94.0;-27.45;-7.95;-16.78;102.18;-24.5;30.49;5.0;994.07;44.247;35.958412;-83.92437;764.84;NaN;;;89.48387;;0 / 16;68014;2022-10-28 14:30:17:755
-6.0523;-0.1352;4.7486;-4.257;4.3577;7.685;0.31;-1.7337;5.0549;1.4693;0.683;-0.2047;57.0;-27.45;-38.08;3.08;138.72;-27.47;27.54;5.0;994.08;41.203;35.958412;-83.92437;764.84;NaN;;;89.48387;;0 / 16;68514;2022-10-28 14:30:18:255
-6.5635;5.7972;5.2884;-5.6547;4.6371;6.5339;0.8851;2.4672;-0.3523;2.1357;-0.7868;-1.1837;57.0;-14.63;-48.38;14.16;177.29;-30.23;40.12;5.0;994.07;41.629;35.958412;-83.92437;764.84;NaN;;;89.48387;;0 / 16;69014;2022-10-28 14:30:18:755
-2.5271;4.544;8.5313;-3.6185;5.5174;7.255;0.9201;-0.8817;1.4065;0.4921;-0.6549;-0.3952;90.0;23.81;-37.91;13.97;219.5;-30.0;27.15;5.0;994.02;44.098;35.958412;-83.92437;764.84;NaN;;;89.48387;;0 / 16;69515;2022-10-28 14:30:19:256
-6.1756;8.8893;4.5835;-4.6836;5.9706;6.2118;1.2658;1.0323;0.029;0.2546;0.5997;-0.1453;121.0;32.42;-33.32;9.24;236.11;-36.15;30.71;5.0;994.01;39.534;35.958412;-83.92437;764.84;NaN;;;89.48387;;0 / 16;70013;2022-10-28 14:30:19:754
-4.2027;3.1735;7.788;-4.7018;3.1773;7.998;0.2892;0.3299;0.3545;-0.0963;-0.4223;-0.976;98.0;41.04;-32.16;-3.17;236.13;-18.9;30.45;5.0;994.02;44.044;35.958412;-83.92437;764.84;NaN;;;89.48387;;0 / 16;70515;2022-10-28 14:30:20:256
-3.1878;1.5084;7.3762;-3.6891;2.5462;8.7223;2.291;-3.0228;0.5621;0.1707;-0.1113;-0.0526;62.0;47.74;-21.79;-16.07;251.69;-15.05;22.93;5.0;993.99;39.427;35.958412;-83.92437;764.84;NaN;;;89.48387;;0 / 16;71015;2022-10-28 14:30:20:756
-4.5188;-0.6942;5.6345;-5.0649;3.7326;7.5223;-0.2755;-4.4677;0.1778;0.5404;1.0107;0.5819;48.0;44.96;-15.0;-19.09;273.63;-22.37;33.95;5.0;993.94;40.016;35.958412;-83.92437;764.84;NaN;;;89.48387;;0 / 16;71514;2022-10-28 14:30:21:255
-2.6444;-0.1484;6.4917;-4.503;2.9149;8.2095;2.3334;-2.5751;-1.8519;0.8556;-1.0156;-0.9593;47.0;45.94;-16.24;-6.69;266.62;-23.34;34.87;5.0;993.99;50.028;35.958412;-83.92437;764.84;NaN;;;89.48387;;0 / 16;72014;2022-10-28 14:30:21:755
-6.6138;0.3377;11.2008;-4.4233;2.6238;8.3499;-3.1593;1.5363;4.637;1.2343;0.8014;0.4167;49.0;38.34;-7.37;-18.0;275.16;-15.52;27.91;5.0;993.93;46.707;35.958412;-83.92437;764.84;NaN;;;89.48387;;0 / 16;72513;2022-10-28 14:30:22:254
-5.8798;4.0974;7.9771;-5.5291;3.1013;7.4821;-1.3159;2.0224;1.9102;-0.5876;-0.2035;-0.2803;53.0;36.24;-9.9;-17.61;278.09;-19.06;38.2;5.0;993.94;45.969;35.958412;-83.92437;764.84;NaN;;;89.48387;;0 / 16;73014;2022-10-28 14:30:22:755
-4.4088;3.3482;8.2466;-4.0275;2.5298;8.5761;-0.6762;-0.333;0.1255;0.1579;0.0491;0.1577;64.0;29.96;-4.89;-24.24;283.48;-14.95;25.16;5.0;993.9;42.271;35.958412;-83.92437;764.84;NaN;;;89.48387;;0 / 15;73514;2022-10-28 14:30:23:255
-5.7482;2.6671;7.7737;-5.2724;2.6132;7.845;1.2021;0.8276;-0.8503;-0.8033;0.4907;0.5999;72.0;28.52;-2.68;-26.83;313.04;-18.0;32.94;5.0;993.9;43.656;35.958412;-83.92437;764.84;NaN;;;89.48387;;0 / 15;74014;2022-10-28 14:30:23:755
-2.8681;3.754;7.7294;-4.4091;2.7986;8.3005;0.1345;-4.0563;0.9257;-0.1229;-0.2031;0.1087;75.0;32.33;-2.76;-28.76;300.74;-16.58;27.98;5.0;993.87;44.529;35.9584;-83.92437;746.98;NaN;;0.0;260.2443;;0 / 15;74514;2022-10-28 14:30:24:255
-3.0547;4.0388;4.3896;-5.2119;3.8097;7.3819;0.3614;-3.3986;-0.4622;-0.7478;1.0228;1.0821;87.0;29.1;-2.38;-34.99;319.58;-17.53;27.24;5.0;993.84;42.158;35.9584;-83.92437;746.98;NaN;;0.0;260.2443;;0 / 15;75014;2022-10-28 14:30:24:755
-3.5157;0.9182;11.4497;-4.06;3.634;8.1536;-0.8075;-0.3563;0.2985;0.0392;-1.0998;-0.6418;89.0;38.46;-10.05;-39.68;319.24;-22.7;32.99;5.0;993.83;49.228;35.958405;-83.924355;747.9;NaN;;0.0;207.69891;;5 / 15;75516;2022-10-28 14:30:25:257
-3.4223;-0.6703;6.7466;-4.1292;2.0665;8.6516;-3.4023;2.693;-0.1857;1.203;0.6686;0.5047;126.0;28.11;-16.24;-50.55;331.98;-21.08;25.64;5.0;993.85;44.689;35.958405;-83.924355;747.9;NaN;;0.0;207.69891;;5 / 15;76014;2022-10-28 14:30:25:755
-5.5137;4.6409;7.7737;-5.552;3.2781;7.3891;0.4293;1.2774;-3.5137;0.3464;0.2921;-0.383;165.0;46.01;-27.56;-40.5;243.12;-19.53;36.92;5.0;993.81;41.464;35.958397;-83.92437;750.57;NaN;;0.0;187.77943;;5 / 15;76514;2022-10-28 14:30:26:255
-4.2102;4.1441;7.2015;-5.1404;4.5736;6.9878;-1.5687;-4.2685;0.4428;0.1738;-0.2221;0.143;163.0;50.87;-29.03;-33.62;273.32;-27.8;36.34;5.0;993.79;45.37;35.958397;-83.92437;750.57;NaN;;0.0;187.77943;;5 / 15;77015;2022-10-28 14:30:26:756
-3.0691;7.5281;7.1297;-4.3445;6.0729;6.3573;0.6674;0.3495;0.4429;0.9104;-0.2589;-0.8788;306.0;49.54;-41.94;-27.49;266.26;-38.26;34.35;5.0;993.76;39.721;35.958397;-83.92437;750.57;NaN;;0.0;187.77943;;5 / 15;77515;2022-10-28 14:30:27:256
-5.1796;4.4483;8.5959;-4.8417;5.9679;6.092;0.7887;-0.3973;1.733;-0.6475;-1.0541;-0.739;432.0;65.36;-40.12;-22.35;279.64;-39.22;39.94;5.0;993.78;42.555;35.958397;-83.92437;750.57;NaN;;0.0;187.77943;;5 / 15;78014;2022-10-28 14:30:27:755
-3.9754;5.534;10.1354;-3.8315;5.1993;7.3795;2.224;-0.6774;1.6129;-0.0739;-0.7258;-0.9366;188.0;64.33;-28.59;-50.66;294.31;-32.02;27.44;5.0;993.78;43.239;35.958397;-83.92437;750.57;NaN;;0.0;187.77943;;5 / 15;78514;2022-10-28 14:30:28:255
-8.0441;3.6305;3.3206;-4.7893;4.4747;7.2946;0.8111;-2.6509;3.2094;-0.2246;-0.2557;0.3182;143.0;45.51;-34.18;-56.53;261.06;-21.72;30.82;5.0;993.79;46.287;35.958397;-83.92437;750.57;NaN;;0.0;187.77943;;5 / 15;79014;2022-10-28 14:30:28:755
-2.5869;2.4275;13.0298;-3.6803;3.8822;8.2191;-0.539;1.1517;-1.5861;0.0157;-1.2331;-1.3813;116.0;45.13;-36.15;-38.21;244.74;-23.32;24.12;5.0;993.83;41.476;35.958393;-83.92436;755.56;NaN;;0.0;136.38509;;5 / 15;79514;2022-10-28 14:30:29:255
-4.5188;8.8666;9.0317;-4.934;4.3249;7.2884;1.4052;-0.3808;1.6366;1.2677;0.5648;-0.6221;159.0;39.58;-11.53;-33.32;281.18;-19.47;25.4;5.0;993.79;43.987;35.958393;-83.92436;755.56;NaN;;0.0;136.38509;;5 / 15;80014;2022-10-28 14:30:29:755
-6.6353;2.2935;8.639;-5.7879;3.53;7.0859;-0.1772;-0.39;-3.1107;-0.4184;-0.8661;-0.7702;223.0;27.11;-0.88;-29.42;349.08;-21.1;39.24;5.0;993.75;46.982;35.958393;-83.92436;755.56;NaN;;0.0;136.38509;;5 / 15;80514;2022-10-28 14:30:30:255
-4.2425;3.6162;6.8088;-3.7131;4.7963;7.7058;1.0931;-0.8726;-1.808;0.0455;-0.6383;-0.3907;228.0;7.5;-2.06;-38.21;32.83;-29.38;27.87;5.0;993.69;44.511;35.958393;-83.92436;755.56;NaN;;0.0;136.38509;;5 / 15;81014;2022-10-28 14:30:30:755
0.7911;5.8726;1.386;-4.9841;5.2399;6.6236;4.5338;-0.3151;-3.8791;1.1868;1.3396;1.4086;195.0;-7.73;-18.97;-26.78;110.29;-28.74;33.76;5.0;993.69;45.616;35.958393;-83.92436;755.56;NaN;;0.0;136.38509;;5 / 15;81515;2022-10-28 14:30:31:256
-3.9885;1.6699;6.9823;-3.5575;3.7094;8.3519;0.2906;-0.7128;2.258;0.1905;-0.6241;-0.3038;187.0;-7.65;-16.71;-21.02;119.53;-23.74;28.79;5.0;993.71;47.343;35.958393;-83.92436;755.56;NaN;;0.0;136.38509;;5 / 15;82014;2022-10-28 14:30:31:755
-5.3557;-0.5853;4.9606;-4.1328;4.0337;7.9259;-0.5316;-4.5028;-3.0673;1.3943;0.6941;0.3799;134.0;-3.49;-6.96;-12.9;104.3;-24.29;27.54;5.0;993.66;45.237;35.958393;-83.92436;755.56;NaN;;0.0;136.38509;;5 / 15;82514;2022-10-28 14:30:32:255
-2.9662;-1.7225;9.379;-3.2086;3.071;8.7432;-0.3896;3.099;2.7152;0.1223;-0.8545;-1.2481;113.0;-6.17;2.64;-18.28;57.66;-18.25;20.15;5.0;993.69;50.724;35.958393;-83.92436;755.56;NaN;;0.0;136.38509;;5 / 15;83015;2022-10-28 14:30:32:756
-3.5133;0.8979;6.5982;-3.556;3.5765;8.4103;0.3761;-1.6884;2.0533;0.2105;0.6176;0.2085;99.0;-12.08;-0.58;-31.76;63.76;-18.66;15.87;5.0;993.63;46.98;35.958393;-83.924355;758.17;NaN;;0.0;101.16957;;5 / 15;83513;2022-10-28 14:30:33:254
-3.122;3.2273;10.1186;-3.5632;3.0918;8.5974;-0.9963;1.9397;0.9519;-0.1441;-0.1897;-0.1125;102.0;-5.4;-6.73;-45.06;74.93;-19.58;25.08;5.0;993.65;43.608;35.958393;-83.924355;758.17;NaN;;0.0;101.16957;;5 / 15;84013;2022-10-28 14:30:33:754
-2.8059;3.5408;7.5676;-2.9546;3.2384;8.7723;0.407;-0.2155;0.3582;-0.2188;-0.1671;-0.3017;142.0;2.66;-10.89;-50.98;66.32;-19.28;18.61;5.0;993.59;46.495;35.958393;-83.924355;758.17;NaN;;0.0;101.16957;;5 / 15;84513;2022-10-28 14:30:34:254
-3.5216;2.9267;8.1975;-3.1508;3.2121;8.7135;-0.0781;-0.2705;-1.8228;-0.0888;0.1574;0.148;204.0;14.49;-4.71;-47.57;12.89;-19.8;19.46;5.0;993.6;42.864;35.958393;-83.924355;758.17;NaN;;0.0;101.16957;;5 / 15;85014;2022-10-28 14:30:34:755
-3.6595;-0.7074;13.3567;-3.034;2.6064;8.9539;-0.3412;2.5104;-0.9072;-0.7752;-0.4738;-0.3036;181.0;19.97;8.23;-43.07;345.75;-15.41;18.72;5.0;993.59;40.208;35.95838;-83.92434;762.92;NaN;;0.0;93.26536;;5 / 15;85513;2022-10-28 14:30:35:254
-1.5634;2.7855;7.6289;-2.6924;3.0498;8.923;1.1411;-0.521;-1.0908;0.3528;-0.0503;-0.5227;166.0;4.43;9.69;-44.38;21.16;-16.34;16.2;5.0;993.59;41.7;35.95838;-83.92434;762.92;NaN;;0.0;93.26536;;5 / 15;86014;2022-10-28 14:30:35:755
-3.8234;1.1958;10.5293;-3.2756;4.2313;8.2181;1.9203;1.2122;2.2024;0.1523;-0.3729;-0.6639;211.0;0.41;-11.91;-45.68;65.92;-25.56;21.73;5.0;993.59;41.228;35.95837;-83.92434;761.38;NaN;;0.0;90.133865;;6 / 15;86514;2022-10-28 14:30:36:255
-3.4678;6.3419;8.7051;-3.2912;3.6663;8.4792;-0.1802;0.1088;-0.0105;0.4813;-0.3354;-0.7476;230.0;5.36;-20.47;-43.84;99.22;-22.85;20.63;5.0;993.59;40.183;35.95837;-83.92434;761.38;NaN;;0.0;90.133865;;6 / 15;87014;2022-10-28 14:30:36:755
-0.2548;2.7365;8.056;-2.7126;2.2601;9.149;2.9425;0.853;-1.21;0.4385;-0.5449;-1.1489;88.0;2.01;-22.46;-38.62;137.76;-15.16;18.29;5.0;993.57;40.828;35.95836;-83.924355;758.81;NaN;;0.0;80.60784;;6 / 15;87515;2022-10-28 14:30:37:256
-5.115;1.5048;5.7852;-4.1306;3.1646;8.3123;-0.9735;-2.7538;0.882;0.7581;0.3974;0.5742;70.0;5.59;-29.42;-30.86;161.14;-14.67;23.61;5.0;993.54;38.304;35.95836;-83.924355;758.81;NaN;;0.0;80.60784;;6 / 15;88014;2022-10-28 14:30:37:755
-4.0902;5.4275;9.0736;-3.411;3.0109;8.6873;-1.2425;4.1929;-0.0141;0.75;-0.5506;-0.782;66.0;14.49;-38.32;-21.43;190.61;-17.88;21.44;5.0;993.56;39.25;35.95836;-83.92436;759.65;NaN;;0.0;73.80288;;6 / 15;88515;2022-10-28 14:30:38:256
-1.148;2.1523;9.8949;-2.5852;2.9299;8.9946;2.1636;0.9055;-1.2162;0.0034;-0.4285;-0.8776;63.0;15.19;-39.54;-18.26;196.56;-17.38;16.04;5.0;993.54;38.601;35.95836;-83.92436;759.65;NaN;;0.0;73.80288;;6 / 15;89014;2022-10-28 14:30:38:755
-2.6216;4.0591;6.542;-3.51;3.6768;8.3864;0.1788;-0.2968;-1.1216;-0.0215;-0.0031;-0.5044;64.0;18.13;-37.14;-11.33;203.9;-22.02;22.71;5.0;993.51;41.88;35.958336;-83.924355;756.44;NaN;;0.0;62.97065;;6 / 15;89514;2022-10-28 14:30:39:255
-3.4953;-2.4802;10.4527;-2.5303;2.4947;9.1402;-0.201;-5.356;2.2444;-0.0337;-0.8966;-1.6697;74.0;17.83;-31.31;-7.01;209.19;-14.73;17.67;5.0;993.54;38.848;35.958336;-83.924355;756.44;NaN;;0.0;62.97065;;6 / 15;90014;2022-10-28 14:30:39:755
-6.2952;-0.3329;8.9791;-3.5938;2.0508;8.891;-0.9328;0.1201;4.7046;0.1828;0.4814;0.5136;66.0;17.55;-23.23;-13.22;212.48;-12.07;22.01;5.0;993.47;40.959;35.958313;-83.92437;747.67;NaN;;0.0;56.39516;;7 / 15;90514;2022-10-28 14:30:40:255
-1.8374;3.585;11.1362;-3.6772;2.5392;8.7293;1.2675;4.5481;1.2501;-0.2479;-0.2606;0.0231;72.0;19.78;-24.81;-13.18;212.16;-16.51;28.66;5.0;993.49;39.441;35.958313;-83.92437;747.67;NaN;;0.0;56.39516;;7 / 15;91015;2022-10-28 14:30:40:756
-4.1321;4.0065;11.0692;-2.82;2.4095;9.0781;-0.6539;-1.1561;0.8322;0.1062;0.0664;-0.3537;90.0;20.7;-20.49;-18.17;227.19;-14.22;17.26;5.0;993.49;42.672;35.9583;-83.92436;745.69;NaN;;0.0;54.445267;;7 / 15;91515;2022-10-28 14:30:41:256
-6.6102;2.1942;8.1401;-4.7729;2.3679;8.233;-0.2111;-0.2232;-0.8436;-0.2904;0.1947;1.0733;96.0;24.77;-18.15;-18.15;235.07;-16.73;28.85;5.0;993.45;43.11;35.9583;-83.92436;745.69;NaN;;0.0;54.445267;;7 / 15;92015;2022-10-28 14:30:41:756
-1.0774;5.2131;8.158;-3.2059;2.8485;8.8192;-1.0374;-3.4944;-1.7622;-0.5609;-0.3294;-0.323;261.0;15.81;-22.67;-21.81;207.55;-16.89;19.98;5.0;993.41;45.204;35.958313;-83.92436;748.33;NaN;;0.0;48.009785;;7 / 15;92514;2022-10-28 14:30:42:255
-2.1344;3.8354;7.1178;-4.591;2.7722;8.2103;3.5269;0.5646;-1.7159;-0.3958;0.4749;0.1666;603.0;7.71;-23.46;-26.08;164.66;-14.16;26.23;5.0;993.38;45.168;35.958313;-83.92436;748.33;NaN;;0.0;48.009785;;7 / 15;93014;2022-10-28 14:30:42:755
-1.6292;4.3358;8.2657;-3.2307;2.1839;8.998;1.0968;1.9004;-1.5265;-0.181;-0.2669;0.5907;818.0;-0.92;-16.16;-30.36;126.34;-14.25;21.34;5.0;993.41;47.83;35.958305;-83.924355;748.63;NaN;;0.0;39.12525;;8 / 15;93515;2022-10-28 14:30:43:256
-1.7824;4.2162;7.4683;-4.2233;3.4568;8.1477;-0.6382;-3.7873;-2.5559;-0.6153;0.444;0.5378;476.0;-1.74;-12.43;-31.01;101.47;-17.95;24.51;5.0;993.37;44.261;35.958305;-83.924355;748.63;NaN;;0.0;39.12525;;8 / 15;94014;2022-10-28 14:30:43:755
-3.8964;-0.9446;8.8893;-3.5846;3.1236;8.577;-0.3902;-3.4982;2.7803;-0.1096;-0.6449;-0.6625;222.0;4.71;-14.19;-39.34;96.54;-18.57;22.68;5.0;993.35;41.014;35.958305;-83.924355;748.63;NaN;;0.0;39.12525;;8 / 15;94515;2022-10-28 14:30:44:256
-4.6457;4.04;11.8472;-3.4074;2.6524;8.8048;-0.1555;0.6356;0.7177;-0.346;0.1985;-0.5913;308.0;6.17;-21.79;-41.51;136.28;-15.69;21.16;5.0;993.35;39.709;35.958305;-83.924355;748.63;NaN;;0.0;39.12525;;8 / 15;95013;2022-10-28 14:30:44:754
-3.2704;5.5591;6.1564;-4.5564;4.2304;7.5837;0.725;-0.7369;-0.782;0.4196;0.7322;-0.7849;622.0;32.79;-25.52;-27.43;246.88;-25.56;31.0;5.0;993.31;40.362;35.958305;-83.924355;748.63;NaN;;0.0;39.12525;;8 / 15;95514;2022-10-28 14:30:45:255
-5.4658;1.1623;8.7075;-4.4519;4.0291;7.7535;-2.3459;-2.7183;2.5261;-0.733;-0.8279;-0.2769;189.0;45.69;-25.46;-12.84;261.36;-27.82;36.66;5.0;993.36;46.256;35.958305;-83.924355;748.63;NaN;;0.0;39.12525;;8 / 15;96014;2022-10-28 14:30:45:755
-2.9554;5.3088;5.851;-3.6571;5.0587;7.5634;0.7217;-1.4936;1.0203;0.5301;0.3071;-0.3197;104.0;43.14;-15.81;-22.01;281.95;-31.05;25.8;5.0;993.32;41.301;35.958313;-83.92436;750.68;NaN;;0.0;27.716276;;8 / 15;96514;2022-10-28 14:30:46:255
-2.971;5.8008;6.111;-3.6178;5.7096;7.1051;1.0169;-0.0758;-0.9929;0.0763;-0.7364;-0.2843;107.0;38.55;-15.3;-22.11;293.6;-34.92;30.35;5.0;993.33;41.754;35.958313;-83.92436;750.68;NaN;;0.0;27.716276;;8 / 15;97014;2022-10-28 14:30:46:755
-3.1149;3.0655;3.9969;-2.9286;5.948;7.226;-0.06;-1.4277;5.6093;0.8818;-0.4616;-0.9903;84.0;34.41;-8.25;-24.97;304.91;-37.34;22.06;5.0;993.31;42.424;35.958313;-83.92436;750.68;NaN;;0.0;27.716276;;8 / 15;97514;2022-10-28 14:30:47:255
-0.3485;5.2741;8.0022;-3.707;5.6968;7.0693;-0.3491;-0.324;0.2112;0.3084;-0.8727;-0.8957;68.0;22.43;14.96;-22.18;345.86;-37.63;30.8;5.0;993.32;43.569;35.958313;-83.92436;750.68;NaN;;0.0;27.716276;;8 / 15;98014;2022-10-28 14:30:47:755
-6.4125;6.0667;9.3838;-3.9211;5.0221;7.4548;-1.6159;0.3541;-1.3782;-1.1404;-0.7343;-0.7481;124.0;-27.86;20.98;-14.27;60.5;-30.8;27.74;5.0;993.35;46.19;35.958313;-83.92436;750.68;NaN;;0.0;27.716276;;9 / 15;98514;2022-10-28 14:30:48:255
-4.7139;3.3206;9.5285;-3.141;3.6349;8.5494;0.2727;-0.8383;2.0266;-0.183;0.3006;-0.9045;132.0;-49.93;-1.89;-4.82;96.27;-19.31;17.9;5.0;993.28;43.736;35.958313;-83.92436;750.68;NaN;;0.0;27.716276;;9 / 15;99014;2022-10-28 14:30:48:755
-4.8206;7.5425;5.8439;-4.5385;4.2735;7.5703;-2.3648;-0.9827;0.1868;-0.5252;0.237;0.0687;119.0;-36.68;-29.44;-12.99;126.04;-29.37;30.28;5.0;993.25;45.678;35.958313;-83.92436;750.68;NaN;;0.0;27.716276;;9 / 15;99514;2022-10-28 14:30:49:255
-7.788;4.6552;11.5265;-3.0181;3.543;8.6318;-0.5836;0.3466;-2.1364;-0.7886;-0.1746;-0.803;118.0;-34.74;-23.57;-18.97;116.42;-25.66;21.9;5.0;993.26;47.716;35.958313;-83.92436;750.68;NaN;;0.0;27.716276;;9 / 15;100014;2022-10-28 14:30:49:755
-6.4642;4.3944;7.7701;-4.4837;3.6761;7.9091;-0.871;-1.3877;1.3057;-1.1159;0.0107;-0.2747;67.0;-28.16;-21.37;-21.22;117.14;-22.02;29.55;5.0;993.21;48.507;35.958313;-83.92436;750.68;NaN;;0.0;27.716276;;8 / 15;100515;2022-10-28 14:30:50:256
-1.695;2.6192;8.4559;-2.2713;2.7372;9.1389;1.3252;0.0348;0.0548;0.2549;-0.3265;-1.351;56.0;-25.72;-19.95;-22.29;116.15;-16.21;13.96;5.0;993.23;49.899;35.958313;-83.92436;750.68;NaN;;0.0;27.716276;;8 / 15;101015;2022-10-28 14:30:50:756
-5.3856;1.8529;7.442;-4.3367;3.4679;8.0831;2.7767;1.2715;-3.2647;-0.3489;0.4433;0.2688;43.0;-5.46;-22.33;-18.99;139.17;-20.71;28.21;5.0;993.24;48.329;35.958313;-83.92436;750.68;NaN;;0.0;27.716276;;8 / 15;101513;2022-10-28 14:30:51:254
-0.9063;4.1943;6.7681;-2.6995;2.9171;8.9651;1.28;-0.582;-1.7945;0.2641;-0.1873;0.4281;43.0;-6.07;-19.58;-22.59;135.6;-17.45;17.96;5.0;993.2;46.723;35.958313;-83.92436;750.68;NaN;;0.0;27.716276;;8 / 15;102014;2022-10-28 14:30:51:755
-6.6509;0.0634;4.5117;-4.471;2.4036;8.3907;-0.4235;-1.4059;3.7062;0.8133;0.7423;0.4606;50.0;-7.18;-16.03;-24.86;121.32;-14.19;28.05;5.0;993.14;44.479;35.958305;-83.92436;753.61;NaN;;0.0;36.99378;;9 / 15;102513;2022-10-28 14:30:52:254
-3.8007;5.4443;6.6461;-4.7854;1.8616;8.3549;0.4163;2.9489;-1.7426;-0.3496;0.1859;-0.0133;64.0;-6.21;-11.89;-29.98;106.15;-14.48;30.94;5.0;993.19;43.727;35.958305;-83.92436;753.61;NaN;;0.0;36.99378;;9 / 15;103014;2022-10-28 14:30:52:755
-1.1515;0.8859;10.3555;-2.9227;1.1747;9.287;2.5177;-0.3212;-3.7295;-0.4214;-0.2909;-0.2727;86.0;-17.83;1.88;-23.04;80.64;-6.88;17.47;5.0;993.15;46.138;35.958305;-83.92436;753.61;NaN;;0.0;36.99378;;8 / 15;103515;2022-10-28 14:30:53:256
-1.8721;2.5161;10.2873;-3.8358;3.8438;8.1659;0.6925;-0.6974;3.9396;1.9804;-0.7674;-1.0436;93.0;-20.1;0.66;-26.16;79.39;-15.44;22.48;5.0;993.17;43.281;35.958305;-83.92436;753.61;NaN;;0.0;36.99378;;8 / 15;104014;2022-10-28 14:30:53:755
-4.0699;5.4419;10.9663;-3.766;4.9622;7.5739;-0.9421;-1.5989;0.402;0.0425;-0.796;-0.9067;130.0;-10.14;-23.64;-38.51;101.35;-30.4;26.44;5.0;993.18;44.025;35.958305;-83.92436;753.61;NaN;;0.0;36.99378;;8 / 15;104514;2022-10-28 14:30:54:255
-2.8729;3.1854;7.8921;-3.4636;3.9859;8.2635;0.237;-0.811;0.3941;0.3139;0.13;-0.1189;199.0;-0.34;-39.13;-34.39;151.74;-24.33;20.78;5.0;993.14;44.812;35.958305;-83.92436;753.61;NaN;;0.0;36.99378;;8 / 15;105014;2022-10-28 14:30:54:755
-3.4917;5.0504;5.1808;-3.5257;4.9516;7.6956;0.2791;0.1692;-2.3623;0.3096;-0.4316;-0.6073;316.0;21.23;-48.66;-27.19;195.9;-32.11;26.51;5.0;993.14;43.905;35.9583;-83.92436;752.24;NaN;;0.0;35.68838;;8 / 15;105514;2022-10-28 14:30:55:255
-1.7776;4.2724;6.4953;-3.0584;4.7898;7.9922;-0.8848;-1.86;0.0079;-0.2413;-0.1358;-0.3267;277.0;27.47;-45.84;-26.03;212.27;-26.81;20.28;5.0;993.09;45.398;35.9583;-83.92436;752.24;NaN;;0.0;35.68838;;8 / 15;106013;2022-10-28 14:30:55:754
-1.9056;6.2438;5.9207;-4.3779;4.6246;7.4577;2.3287;1.0247;-0.3174;-0.0021;0.1396;0.0247;113.0;28.07;-38.85;-21.67;214.74;-28.14;30.41;5.0;993.13;45.465;35.958313;-83.92437;753.85;NaN;;0.0;35.52654;;8 / 15;106514;2022-10-28 14:30:56:255
-8.1544;4.1728;9.1621;-3.8996;4.7646;7.633;-1.3765;0.3282;0.1893;-0.7434;-0.9054;-0.1066;73.0;30.02;-36.69;-15.83;225.98;-29.07;27.06;5.0;993.11;44.912;35.958313;-83.92437;753.85;NaN;;0.0;35.52654;;8 / 15;107014;2022-10-28 14:30:56:755
-5.6991;3.122;10.7267;-3.1761;2.61;8.9034;-0.3365;1.5429;0.1335;-0.5802;0.4126;-0.1122;22.0;29.27;-37.39;-18.83;216.48;-15.43;19.63;5.0;993.12;44.801;35.95832;-83.92438;757.13;NaN;;0.0;34.515694;;8 / 15;107514;2022-10-28 14:30:57:255
-3.6353;5.7553;7.7222;-4.1343;3.0899;8.3385;1.0702;1.3819;-0.0892;0.5233;0.078;0.5782;21.0;32.61;-30.56;-15.45;223.77;-14.59;28.71;5.0;993.1;44.047;35.95832;-83.92438;757.13;NaN;;0.0;34.515694;;8 / 15;108013;2022-10-28 14:30:57:754
-4.721;3.0703;10.8954;-2.8092;2.7691;8.9784;1.2858;1.9637;-1.532;-0.0193;-0.1762;-0.6609;20.0;28.24;-21.39;-11.27;237.51;-19.78;19.32;5.0;993.09;44.335;35.958286;-83.924355;770.12;NaN;;0.0;33.733635;;8 / 15;108515;2022-10-28 14:30:58:256
-5.4969;2.904;8.0393;-4.1025;3.8636;8.0258;-0.6894;-0.8375;0.439;-0.3809;0.1327;-0.0692;17.0;22.07;-14.57;-12.08;252.84;-22.45;25.83;5.0;993.07;45.232;35.958286;-83.924355;770.12;NaN;;0.0;33.733635;;8 / 15;109013;2022-10-28 14:30:58:754
-3.0727;3.384;8.9204;-3.1032;2.6022;8.9313;-0.4776;-3.0072;-0.7074;-0.2676;-0.2241;-0.1179;17.0;20.34;-15.02;-13.56;237.21;-15.39;19.16;5.0;993.06;46.037;35.95829;-83.924385;777.4;NaN;;0.0;33.405308;;10 / 15;109514;2022-10-28 14:30:59:255
-5.0228;2.6647;7.369;-3.109;5.022;7.8284;-0.4362;-2.1701;-0.2723;-0.9415;1.677;1.3803;19.0;23.79;-16.33;-16.82;259.81;-27.85;17.57;5.0;993.01;49.963;35.95829;-83.924385;777.4;NaN;;0.0;33.405308;;10 / 15;110014;2022-10-28 14:30:59:755
-2.691;2.764;9.7762;-3.4888;3.3075;8.5475;-2.1366;0.7604;0.5546;-0.1423;-0.3955;0.0681;19.0;38.63;-24.99;-8.92;244.28;-19.71;22.2;5.0;993.01;49.431;35.958282;-83.9244;762.09;NaN;;0.0;33.410828;;10 / 15;110515;2022-10-28 14:31:00:256
-5.1185;3.1866;9.8447;-3.9221;2.5687;8.6133;-0.0709;-0.0612;0.975;-0.5143;0.3076;-0.7531;30.0;47.48;-23.14;-11.59;248.61;-14.19;23.65;5.0;993.04;46.402;35.958282;-83.9244;762.09;NaN;;0.0;33.410828;;10 / 15;111014;2022-10-28 14:31:00:755
-2.7724;3.0535;11.5277;-1.3048;2.6621;9.3478;-1.5844;0.5631;1.4871;-0.7818;-1.5593;0.028;37.0;57.17;-14.85;-11.34;262.71;-16.69;17.01;5.0;993.01;45.111;35.958275;-83.9244;832.1;NaN;;0.0;33.362953;;10 / 15;111515;2022-10-28 14:31:01:256
0.2524;2.2816;6.3969;0.3023;3.9777;8.9586;0.1468;-2.6869;-0.2938;0.4291;0.0616;-0.1881;45.0;55.97;-15.77;-28.95;261.35;-13.97;0.05;5.0;992.94;46.637;35.958275;-83.9244;832.1;NaN;;0.0;33.362953;;10 / 15;112015;2022-10-28 14:31:01:756
-2.8382;1.1874;11.324;-0.8733;1.6921;9.62;-1.0514;0.4921;0.3334;-0.9513;0.377;0.0972;53.0;57.58;-7.76;-32.29;268.46;-9.94;5.19;5.0;992.96;51.559;35.958286;-83.924416;827.91;NaN;;0.86;14.248476;319.6;10 / 15;112514;2022-10-28 14:31:02:255
-0.5076;3.0476;8.7039;-0.2818;2.1944;9.5538;-0.357;-0.3372;-0.8806;0.1526;-0.289;-0.5561;81.0;58.54;-6.75;-29.63;270.27;-12.93;1.69;5.0;992.93;48.625;35.958286;-83.924416;827.91;NaN;;0.86;14.248476;319.6;10 / 15;113015;2022-10-28 14:31:02:756
1.5479;-0.1448;9.7522;0.4001;1.7094;9.6482;-0.0592;-1.7688;-0.0062;-0.0309;-0.4484;-1.0752;96.0;51.81;-0.53;-34.99;275.43;-15.45;-0.23;5.0;992.93;49.295;35.958298;-83.924416;824.51;NaN;;0.0;14.458535;;11 / 15;113514;2022-10-28 14:31:03:255