sep=;
ACCELEROMETER X (m/s²);ACCELEROMETER Y (m/s²);ACCELEROMETER Z (m/s²);GRAVITY X (m/s²);GRAVITY Y (m/s²);GRAVITY Z (m/s²);LINEAR ACCELERATION X (m/s²);LINEAR ACCELERATION Y (m/s²);LINEAR ACCELERATION Z (m/s²);GYROSCOPE X (rad/s);GYROSCOPE Y (rad/s);GYROSCOPE Z (rad/s);LIGHT (lux);MAGNETIC FIELD X (μT);MAGNETIC FIELD Y (μT);MAGNETIC FIELD Z (μT);ORIENTATION Z (azimuth °);ORIENTATION X (pitch °);ORIENTATION Y (roll °);PROXIMITY (i);ATMOSPHERIC PRESSURE (hPa);SOUND LEVEL (dB);LOCATION Latitude : ;LOCATION Longitude : ;LOCATION Altitude ( m);LOCATION Altitude-google ( m);LOCATION Altitude-atmospheric pressure ( m);LOCATION Speed ( Kmh);LOCATION Accuracy ( m);LOCATION ORIENTATION (°);Satellites in range;Time since start in ms ;YYYY-MO-DD HH-MI-SS_SSS
-3.28;-0.4442;12.9006;-3.5683;1.0322;9.0759;-0.6451;2.0784;1.2449;-0.5469;-1.2464;-0.5911;8.0;35.61;-16.95;-1.78;244.94;-6.04;21.46;2.0;989.48;41.578;35.957973;-83.922646;;NaN;;;1612.9032;;0 / 18;20;2022-10-26 21:22:14:349
-7.2027;0.62;8.5098;-2.6834;-1.1918;9.3568;-4.5246;1.9899;-1.0625;-1.6013;-0.5834;0.0889;6.0;44.83;-11.27;-7.16;253.45;0.83;24.11;2.0;989.43;37.802;35.957973;-83.922646;;NaN;;;1612.9032;;0 / 18;520;2022-10-26 21:22:14:849
-3.4834;0.6236;8.9312;-4.497;2.5138;8.3443;0.6075;-1.8007;0.4198;1.1063;-0.7824;0.1792;5.0;38.44;-26.25;-27.92;234.87;-14.85;28.32;2.0;989.4;56.959;35.957973;-83.922646;;NaN;;;1612.9032;;0 / 18;1020;2022-10-26 21:22:15:349
-6.0966;-1.6244;11.8974;-3.2227;1.0423;9.2032;-3.5876;5.4984;-2.8438;-0.496;-1.5779;-1.6675;2.0;20.63;-28.35;-24.21;202.4;-11.32;25.1;2.0;989.38;44.851;35.957973;-83.922646;;NaN;;;1612.9032;;0 / 18;1520;2022-10-26 21:22:15:849
-0.122;2.6635;11.7431;-3.2589;2.5048;8.9037;-1.9655;-1.0534;-0.269;1.1388;-4.2505;0.2771;2.0;22.67;9.49;-10.44;305.84;-14.8;20.1;2.0;989.37;59.492;35.957973;-83.922646;;NaN;;;1612.9032;;0 / 18;2020;2022-10-26 21:22:16:349
6.536;7.1907;17.1129;4.4488;4.4686;7.5107;0.0117;5.3754;1.8257;-0.1746;-0.7158;0.7292;2.0;24.28;21.73;-20.91;307.31;-25.75;-25.97;2.0;989.32;61.495;35.957973;-83.922646;;NaN;;;1612.9032;;0 / 18;2522;2022-10-26 21:22:16:851
10.0959;3.0703;5.4778;-0.5057;-0.5087;9.7804;-3.2094;-1.7827;2.2769;0.8717;-4.2899;0.1306;2.0;51.83;32.01;-17.36;301.22;2.97;2.96;2.0;989.34;44.972;35.957973;-83.922646;;NaN;;;1612.9032;;0 / 18;3021;2022-10-26 21:22:17:350
2.0195;-1.8051;11.2056;9.0644;-2.2223;3.0114;-1.4973;-3.3385;7.0882;-1.4891;-1.3352;0.0312;11.0;33.19;31.28;-26.76;309.7;8.13;-60.92;2.0;989.34;46.36;35.957973;-83.922646;;NaN;;;1612.9032;;0 / 18;3520;2022-10-26 21:22:17:849
12.6853;4.8972;7.6026;7.1716;5.8639;3.2176;-1.3619;-1.438;2.7031;4.6498;-1.9974;-0.3215;15.0;5.4;34.73;-28.76;328.5;-8.43;-41.25;2.0;989.3;45.897;35.957973;-83.922646;;NaN;;;1612.9032;;0 / 18;4020;2022-10-26 21:22:18:349
2.7114;1.5108;9.1609;2.1244;1.8371;9.3959;2.9223;0.6485;-3.5006;-3.0268;2.2487;-1.3431;11.0;6.98;-8.48;-47.96;272.05;-10.8;-12.74;2.0;989.27;48.126;35.957973;-83.922646;;NaN;;;1612.9032;;0 / 18;4520;2022-10-26 21:22:18:849
-0.2022;2.2457;10.9337;-0.3774;3.0738;9.3048;0.0303;-0.1011;0.364;0.5329;0.2018;-0.3963;22.0;22.33;13.59;-41.34;317.1;-13.12;0.86;2.0;989.27;39.196;35.957973;-83.922646;;NaN;;;1612.9032;;0 / 18;5020;2022-10-26 21:22:19:349
4.4578;0.6918;14.9034;1.8827;3.9858;8.7601;-0.4184;-0.3882;-0.4566;-1.7546;-1.257;-1.6336;20.0;15.86;-0.34;-48.96;304.91;-23.98;-12.13;2.0;989.26;39.797;35.957973;-83.922646;;NaN;;;1612.9032;;0 / 18;5520;2022-10-26 21:22:19:849
12.3619;3.7002;12.4409;6.5153;1.9728;7.059;-2.0073;1.4574;2.932;-0.0289;-0.6973;0.5618;13.0;-9.84;4.84;-48.51;307.42;-14.1;-36.14;2.0;989.26;35.772;35.957973;-83.922646;;NaN;;;1612.9032;;0 / 18;6020;2022-10-26 21:22:20:349
10.6502;3.1831;5.3342;7.5181;3.0382;5.5153;0.9315;0.509;-0.0299;-1.5939;-0.8951;-0.274;30.0;-23.29;-8.76;-39.02;297.96;-24.44;-52.87;2.0;989.25;42.787;35.957973;-83.922646;;NaN;;;1612.9032;;0 / 18;6520;2022-10-26 21:22:20:849
12.3392;1.8051;8.2944;8.209;1.9367;5.0032;1.4419;1.4374;3.5753;-0.4345;-1.0062;0.4111;31.0;-27.26;-12.97;-28.61;244.06;-11.39;-58.64;2.0;989.28;38.435;35.957973;-83.922646;;NaN;;;1612.9032;;0 / 18;7021;2022-10-26 21:22:21:350
8.074;10.2622;7.2494;6.5314;6.8983;2.4342;2.9487;3.9828;5.8586;2.6759;-0.8884;-1.1775;3.0;-26.89;-16.93;-17.4;326.68;-44.7;-69.56;2.0;989.26;45.358;35.957973;-83.922646;;NaN;;;1612.9032;;0 / 18;7520;2022-10-26 21:22:21:849
6.0069;6.251;7.611;6.5439;7.0372;1.9557;0.5081;-2.8167;1.596;-0.4273;-1.249;0.7781;1.0;-31.84;-17.14;-7.54;340.63;-46.48;-83.32;2.0;989.21;44.233;35.957973;-83.922646;;NaN;;;1612.9032;;0 / 18;8022;2022-10-26 21:22:22:351
8.6545;5.9423;3.8904;5.1879;7.5072;3.5913;3.1823;-2.9754;1.0246;1.4975;2.4627;-0.7491;3.0;-34.28;-16.86;7.71;75.48;-40.26;-67.31;2.0;989.16;57.866;35.957973;-83.922646;;NaN;;;1612.9032;;0 / 18;8521;2022-10-26 21:22:22:850
3.6787;4.8242;6.5169;5.2424;4.6612;6.8528;3.9451;1.8932;-1.1929;-0.4426;-0.1541;-0.7733;1.0;-48.92;-9.11;-3.71;78.02;-28.38;-37.42;2.0;989.14;48.843;35.957973;-83.922646;;NaN;;;1612.9032;;0 / 18;9020;2022-10-26 21:22:23:349
6.1277;2.8262;10.2467;5.1289;4.0503;7.3116;3.1134;3.871;7.7725;-0.9987;0.575;0.9025;3.0;-65.64;-11.14;5.87;86.41;-24.39;-35.05;2.0;989.11;40.042;35.957973;-83.922646;;NaN;;;1612.9032;;0 / 18;9520;2022-10-26 21:22:23:849
1.7512;4.66;3.2931;3.3764;6.5796;6.4404;-1.2722;-1.767;-2.8345;-0.0522;-0.6832;-0.0777;4.0;-59.98;-2.34;-8.87;70.13;-40.56;-22.46;2.0;989.05;44.422;35.957973;-83.922646;;NaN;;;1612.9032;;0 / 18;10021;2022-10-26 21:22:24:350
6.3945;2.1296;5.4443;3.8954;2.3525;8.6869;4.2078;-0.6251;-0.7424;-0.605;1.3851;-0.8006;5.0;-44.23;-4.18;-16.35;83.32;-13.88;-24.15;2.0;989.07;52.178;35.957973;-83.922646;;NaN;;;1612.9032;;0 / 18;10520;2022-10-26 21:22:24:849
-0.3389;2.1751;13.9373;-0.3048;3.5855;9.1226;0.9139;1.0244;1.222;-0.3893;0.7878;-1.0266;27.0;-37.33;-27.36;-30.09;107.11;-24.79;-6.29;2.0;989.06;42.962;35.957973;-83.922646;;NaN;;;1612.9032;;0 / 18;11020;2022-10-26 21:22:25:349
0.2512;4.745;11.4676;-0.7042;4.8512;8.4936;-0.2201;-0.4718;-1.1943;0.0528;-0.5638;-0.8343;35.0;-14.63;-46.65;-28.93;147.44;-29.65;4.74;2.0;989.02;33.804;35.957973;-83.922646;;NaN;;;1612.9032;;0 / 18;11520;2022-10-26 21:22:25:849
-1.78;5.4933;7.9938;0.2746;4.7893;8.5532;-1.1686;0.1621;-0.7929;-0.1699;-0.2646;-0.45;37.0;-1.88;-49.22;-19.09;177.27;-30.63;-1.37;2.0;989.05;40.016;35.957973;-83.922646;;NaN;;;1612.9032;;0 / 18;12020;2022-10-26 21:22:26:349
0.571;4.8852;5.9554;0.3115;5.5678;8.0668;-0.2056;-0.5259;-2.3357;-0.2766;-1.0313;-1.021;16.0;2.93;-43.09;-12.81;185.99;-36.92;0.96;2.0;989.02;34.607;35.957973;-83.922646;;NaN;;;1612.9032;;0 / 18;12520;2022-10-26 21:22:26:849
-0.6069;1.2939;11.8352;2.3101;2.3884;9.2266;-1.1336;-0.0601;-2.1937;-1.472;-0.3496;-1.5629;38.0;8.96;-38.18;-15.41;200.08;-14.1;-14.06;2.0;989.02;38.843;35.957973;-83.922646;;NaN;;;1612.9032;;0 / 18;13020;2022-10-26 21:22:27:349
2.059;4.4004;6.7813;1.5751;4.3709;8.6363;-0.2455;-1.1656;-3.2589;0.5963;0.2375;0.232;15.0;6.94;-28.28;-21.67;214.14;-26.47;-10.34;2.0;989.03;46.256;35.957973;-83.922646;;NaN;;;1612.9032;;0 / 18;13520;2022-10-26 21:22:27:849
5.048;2.6121;6.1373;3.5861;4.13;8.1396;3.6519;-0.8998;2.1746;-1.543;-0.6108;-1.2401;11.0;6.41;-25.84;-20.89;213.13;-21.09;-15.73;2.0;989.01;43.488;35.957973;-83.922646;;NaN;;;1612.9032;;0 / 18;14020;2022-10-26 21:22:28:349
5.0061;2.6659;5.6309;4.0365;4.1191;7.9316;-0.0214;-3.0345;-1.4892;1.6775;0.6823;1.0546;5.0;-0.02;-15.99;-31.5;246.91;-18.35;-27.12;2.0;989.03;47.88;35.957973;-83.922646;;NaN;;;1612.9032;;0 / 18;14520;2022-10-26 21:22:28:849
4.0101;2.9961;6.5922;4.4489;3.3758;8.0611;3.4009;-0.0587;1.0291;-1.024;-1.162;-1.2697;4.0;0.56;-23.4;-34.71;237.77;-20.14;-28.89;2.0;988.97;42.642;35.957973;-83.922646;;NaN;;;1612.9032;;0 / 18;15020;2022-10-26 21:22:29:349
6.367;4.9762;7.9831;5.5002;4.4989;6.7586;-2.2637;0.0202;0.2532;1.9816;0.2798;0.9148;4.0;-10.61;-18.17;-41.31;275.86;-27.31;-39.14;2.0;988.98;49.24;35.957973;-83.922646;;NaN;;;1612.9032;;0 / 18;15520;2022-10-26 21:22:29:849
5.1209;2.065;9.7654;5.5492;-0.1889;8.0834;2.1911;2.8967;2.4395;-1.4968;0.1932;-0.4776;3.0;-13.65;-21.64;-38.1;214.86;-7.48;-36.98;2.0;988.95;44.359;35.957973;-83.922646;;NaN;;;1612.9032;;0 / 18;16020;2022-10-26 21:22:30:349
10.0289;2.199;17.1299;5.9531;1.1202;7.7121;-0.0587;1.2712;2.8457;0.1146;-0.0176;1.5338;6.0;-20.19;3.36;-41.66;309.74;-6.56;-37.66;2.0;988.95;59.267;35.957973;-83.922646;;NaN;;;1612.9032;;0 / 18;16520;2022-10-26 21:22:30:849
6.0093;4.5392;10.2873;4.2714;3.55;8.0823;-0.435;1.3047;0.6754;-0.901;0.301;-0.0536;4.0;-14.02;-5.81;-38.44;329.36;-26.38;-30.61;2.0;988.91;39.585;35.957973;-83.922646;;NaN;;;1612.9032;;0 / 18;17020;2022-10-26 21:22:31:349
1.7536;3.1089;9.1143;3.1776;2.861;8.8254;0.4293;1.3732;-2.3833;-1.287;0.4071;-0.6609;2.0;0.73;11.03;-49.59;323.48;-16.96;-19.8;2.0;988.87;41.532;35.957973;-83.922646;;NaN;;;1612.9032;;0 / 18;17520;2022-10-26 21:22:31:849
0.6811;0.88;9.4137;0.9331;1.2972;9.6756;0.3232;-1.1233;0.9518;-0.1506;0.5252;0.108;4.0;24.13;40.99;-52.61;325.33;-7.45;-9.54;2.0;988.92;37.104;35.957973;-83.922646;;NaN;;;1612.9032;;0 / 18;18020;2022-10-26 21:22:32:349
0.4406;3.7959;7.9974;0.4101;3.1266;9.2858;-0.4965;0.6272;-1.3819;0.094;-0.6049;-0.1074;7.0;59.23;36.94;-66.47;314.19;-18.04;1.19;2.0;988.88;35.854;35.957973;-83.922646;;NaN;;;1612.9032;;0 / 18;18520;2022-10-26 21:22:32:849
-0.4825;4.5679;9.9093;0.6724;2.9353;9.3328;-0.251;-0.921;-1.6636;-0.225;-0.1604;-1.1773;8.0;39.86;-0.94;-49.89;286.78;-17.42;-4.12;2.0;988.87;37.324;35.957973;-83.922646;;NaN;;;1612.9032;;0 / 18;19021;2022-10-26 21:22:33:350
1.3956;4.1249;8.3495;-0.3565;4.9059;8.4839;0.9195;-0.3522;-1.1888;0.6134;-0.4576;-0.7695;13.0;-5.06;-2.53;-28.07;28.66;-30.02;2.41;2.0;988.85;38.139;35.957973;-83.922646;;NaN;;;1612.9032;;0 / 18;19521;2022-10-26 21:22:33:850
0.8079;1.1539;6.9715;3.7899;2.1863;8.7765;4.1409;-0.3106;3.7444;-1.9729;-0.6047;-1.7803;13.0;-22.78;-12.39;-17.47;107.12;-16.51;-22.49;2.0;988.86;40.014;35.957973;-83.922646;;NaN;;;1612.9032;;0 / 18;20021;2022-10-26 21:22:34:350
3.0176;1.8805;2.977;3.3392;3.8432;8.3816;2.1059;-4.3377;-0.336;1.3832;0.9025;-1.1388;18.0;-9.13;-17.7;-7.57;164.53;-10.76;-27.38;2.0;988.91;39.447;35.957973;-83.922646;;NaN;;;1612.9032;;0 / 18;20520;2022-10-26 21:22:34:849
2.7508;1.0522;4.9451;5.3924;0.7138;8.1598;2.3117;-1.6793;5.4006;-0.5077;-0.3124;-1.4864;29.0;-5.72;-3.68;1.13;124.43;-4.17;-33.46;2.0;988.88;39.252;35.957973;-83.922646;;NaN;;;1612.9032;;0 / 18;21021;2022-10-26 21:22:35:350
4.3095;1.7285;5.2681;4.8084;3.2515;7.9043;1.9494;-2.0025;-0.7034;1.3495;0.8651;-0.4384;5.0;-7.71;-7.24;24.13;121.91;-19.36;-31.31;2.0;988.88;43.927;35.957973;-83.922646;;NaN;;;1612.9032;;0 / 18;21521;2022-10-26 21:22:35:850
5.2657;0.6284;5.2585;7.2679;1.7639;6.3433;-1.6522;-1.1395;-1.3442;-1.7341;-0.8647;-1.162;4.0;-6.13;-9.79;41.01;115.37;-13.23;-43.94;2.0;988.84;39.129;35.957973;-83.922646;;NaN;;;1612.9032;;0 / 18;22020;2022-10-26 21:22:36:349
7.2482;0.9111;8.8367;7.4892;2.029;5.9971;-1.0648;-1.0935;-0.9182;0.9653;-0.3542;-1.0448;0.0;-5.46;-24.62;14.14;151.1;-11.94;-51.31;2.0;988.84;59.801;35.957973;-83.922646;;NaN;;;1612.9032;;0 / 18;22522;2022-10-26 21:22:36:851
12.4947;1.0558;0.711;9.4635;2.0128;1.6001;3.3681;-0.3458;-0.9029;-2.2402;-1.966;0.3819;0.0;-10.52;-22.31;8.76;146.32;-18.81;-68.75;2.0;988.84;43.206;35.957973;-83.922646;;NaN;;;1612.9032;;0 / 18;23020;2022-10-26 21:22:37:349
12.1753;1.3872;2.8286;9.7926;-0.3603;0.3816;1.3862;2.3136;5.2691;2.9357;1.3103;-0.7855;0.0;-17.83;-21.77;7.44;161.22;2.11;-87.77;2.0;988.81;43.255;35.957973;-83.922646;;NaN;;;1612.9032;;0 / 18;23520;2022-10-26 21:22:37:849
11.9213;-2.8621;-1.3155;9.6765;1.4194;-0.7216;0.674;-6.4333;-2.1229;0.2815;-2.7504;2.7477;0.0;-19.12;-14.17;6.81;108.12;-30.07;-78.53;2.0;988.79;49.261;35.957973;-83.922646;;NaN;;;1612.9032;;0 / 18;24021;2022-10-26 21:22:38:350
14.4975;-0.4478;0.0108;7.8662;-4.9715;-3.0947;4.5172;2.318;3.275;-0.0075;0.4344;0.3072;0.0;-17.25;-4.76;17.06;155.36;31.11;-117.11;2.0;988.83;40.807;35.957973;-83.922646;;NaN;;;1612.9032;;0 / 18;24520;2022-10-26 21:22:38:849
9.2267;-6.2186;-2.3186;9.6709;1.4119;0.8063;0.7436;-7.1431;-0.8459;1.5464;0.4313;-2.0091;0.0;-15.6;-2.83;10.58;93.75;-8.28;-85.23;2.0;988.8;53.385;35.957973;-83.922646;;NaN;;;1612.9032;;0 / 18;25020;2022-10-26 21:22:39:349
11.8627;3.3601;-2.1942;9.3067;-1.5835;-2.6548;1.1346;3.3076;2.7704;0.3219;-0.3053;-0.0978;0.0;-23.12;2.21;-0.22;255.79;9.29;-105.92;2.0;988.77;51.342;35.957973;-83.922646;;NaN;;;1612.9032;;0 / 18;25520;2022-10-26 21:22:39:849
8.0608;-1.215;-0.4801;9.7026;1.2681;-0.6503;-0.75;-2.0792;0.8915;0.2992;0.208;-0.5774;0.0;-23.57;12.11;-15.73;300.85;2.34;-96.37;2.0;988.74;42.404;35.957973;-83.922646;;NaN;;;1612.9032;;0 / 18;26020;2022-10-26 21:22:40:349
6.8782;-0.309;-2.2122;9.4339;-1.4043;-2.2802;-0.3635;3.3905;0.0075;0.8536;-0.6823;0.1802;1.0;-27.71;-33.88;-17.74;211.71;5.14;-99.3;2.0;988.73;43.078;35.957973;-83.922646;;NaN;;;1612.9032;;0 / 18;26520;2022-10-26 21:22:40:849
10.6274;1.0295;-3.6293;8.8459;-3.7263;-2.0088;2.1117;4.5741;0.3665;0.4246;-0.4532;-1.6402;1.0;-44.36;-18.84;16.95;169.05;22.33;-102.79;2.0;988.75;39.373;35.957973;-83.922646;;NaN;;;1612.9032;;0 / 18;27021;2022-10-26 21:22:41:350
9.8037;-2.0303;-3.8617;9.7463;0.382;-1.0169;-2.586;-3.0626;-2.7079;0.232;-0.5728;0.8372;1.0;-18.53;-0.67;13.01;91.1;-2.23;-95.96;2.0;988.69;48.388;35.957973;-83.922646;;NaN;;;1612.9032;;0 / 18;27521;2022-10-26 21:22:41:850
14.6614;1.0008;-1.9259;8.674;-3.4885;-2.9601;2.3793;4.8559;2.2516;-0.7087;0.5824;0.7936;1.0;-18.86;5.33;14.12;123.23;21.47;-112.42;2.0;988.69;46.956;35.957973;-83.922646;;NaN;;;1612.9032;;0 / 18;28021;2022-10-26 21:22:42:350
6.0176;1.1575;-3.2836;9.409;2.6826;-0.6661;-5.1916;-4.0746;-1.5112;-1.2698;-0.7995;0.6266;3.0;-21.19;6.6;10.69;36.82;-15.88;-94.05;2.0;988.63;49.495;35.957973;-83.922646;;NaN;;;1612.9032;;0 / 18;28520;2022-10-26 21:22:42:849
7.4635;1.2676;2.1763;9.676;-0.5055;-1.5134;-3.0794;0.4073;2.8652;-2.337;-0.3616;1.3884;4.0;-17.01;-7.35;7.48;137.81;-5.12;-96.97;2.0;988.66;35.57;35.957973;-83.922646;;NaN;;;1612.9032;;0 / 18;29021;2022-10-26 21:22:43:350
7.5894;-2.8178;-2.4024;9.5992;1.3276;1.5046;-0.3158;-2.5216;-4.3313;-0.6163;-0.1436;-0.6691;7.0;-9.43;-20.92;-1.24;178.81;-7.78;-81.09;2.0;988.59;52.983;35.957973;-83.922646;;NaN;;;1612.9032;;0 / 18;29522;2022-10-26 21:22:43:851
9.1968;-0.3281;1.896;9.1484;-2.9694;-1.9133;-1.3642;1.0256;2.6743;-1.9371;0.0612;1.4721;11.0;-6.92;-27.28;-5.14;192.22;9.3;-98.57;2.0;988.66;37.12;35.957973;-83.922646;;NaN;;;1612.9032;;0 / 18;30021;2022-10-26 21:22:44:350
8.001;-4.4913;-3.6413;9.2249;2.6298;2.0386;-2.0904;-6.742;-4.9187;1.0308;0.0891;-1.4359;3.0;-14.49;-21.99;-25.22;226.65;-5.52;-77.08;2.0;988.64;44.958;35.957973;-83.922646;;NaN;;;1612.9032;;0 / 18;30520;2022-10-26 21:22:44:849
14.8038;-3.9455;2.8178;9.0968;-2.1034;-2.9989;0.6957;-4.0173;4.0517;-4.0517;-0.6691;1.6521;4.0;-6.51;-24.96;-38.74;239.37;12.39;-108.25;2.0;988.67;49.744;35.957973;-83.922646;;NaN;;;1612.9032;;0 / 18;31020;2022-10-26 21:22:45:349
14.7775;-8.2573;-0.9769;9.5337;1.5952;-1.6536;3.8646;-6.5346;0.3521;0.1029;0.911;-2.9844;2.0;-22.11;2.08;-41.04;275.64;-9.36;-99.84;2.0;988.6;54.167;35.957973;-83.922646;;NaN;;;1612.9032;;0 / 18;31520;2022-10-26 21:22:45:849
14.8855;6.16;-1.5538;9.5557;-0.395;-2.1688;0.4955;-3.5646;0.3763;-0.9671;-1.3088;0.3202;2.0;-18.04;-15.92;-24.34;244.25;-11.61;-102.51;2.0;988.6;58.101;35.957973;-83.922646;;NaN;;;1612.9032;;0 / 18;32020;2022-10-26 21:22:46:349
12.3523;-4.6971;-0.9278;8.7917;3.5664;-2.4814;4.7452;-6.1842;0.5082;0.1849;0.8818;-2.456;1.0;-25.26;-8.4;-22.54;257.94;-5.64;-107.75;2.0;988.59;42.748;35.957973;-83.922646;;NaN;;;1612.9032;;0 / 18;32521;2022-10-26 21:22:46:850
13.5075;2.8609;0.2934;9.1362;-1.8955;-3.0179;2.4031;0.8453;3.122;-1.1338;-0.9632;2.4683;1.0;-21.96;-7.01;-19.37;248.64;11.14;-108.28;2.0;988.55;53.66;35.957973;-83.922646;;NaN;;;1612.9032;;0 / 18;33020;2022-10-26 21:22:47:349
10.8739;-5.7506;-1.6484;8.9376;4.0357;0.0425;3.3745;-9.0429;-0.801;0.7515;1.6895;-2.8951;1.0;-18.92;9.83;-15.21;318.69;-24.3;-89.73;2.0;988.52;52.326;35.957973;-83.922646;;NaN;;;1612.9032;;0 / 18;33520;2022-10-26 21:22:47:849
14.0474;1.4402;-0.6476;7.4425;-4.2081;-4.8033;6.2542;4.8024;3.8546;-1.7862;-0.9521;2.136;1.0;-14.89;1.88;-15.22;267.13;17.58;-108.52;2.0;988.52;53.169;35.957973;-83.922646;;NaN;;;1612.9032;;0 / 18;34020;2022-10-26 21:22:48:349
6.0057;-4.0484;-1.2233;9.471;2.486;-0.5385;3.6232;-8.258;-1.2917;1.7059;1.2399;-1.6629;2.0;-13.35;14.42;-8.33;332.44;-14.68;-93.25;2.0;988.47;58.597;35.957973;-83.922646;;NaN;;;1612.9032;;0 / 18;34520;2022-10-26 21:22:48:849
9.306;-1.2497;-0.8282;9.015;-2.6817;-2.7765;0.9425;2.5086;0.2048;-1.4743;-0.9193;1.238;1.0;-12.22;3.79;-3.81;291.02;9.3;-97.23;2.0;988.5;48.099;35.957973;-83.922646;;NaN;;;1612.9032;;0 / 18;35021;2022-10-26 21:22:49:350
11.4628;-3.2142;-1.8159;8.9084;-3.1817;-2.5859;2.382;4.5463;4.2432;1.6992;0.3344;-2.2656;2.0;-12.22;12.9;0.92;344.27;18.93;-106.19;2.0;988.46;50.516;35.957973;-83.922646;;NaN;;;1612.9032;;0 / 18;35520;2022-10-26 21:22:49:849
10.1785;-4.3442;0.6559;9.4576;-1.2566;-2.2681;-1.6574;-4.4049;-4.4612;-2.3735;-1.0703;2.3047;2.0;-20.78;3.34;1.05;356.09;-6.55;-93.73;2.0;988.45;60.755;35.957973;-83.922646;;NaN;;;1612.9032;;0 / 18;36021;2022-10-26 21:22:50:350
12.7881;-5.6154;-2.3258;9.7544;-0.6194;-0.7993;3.9496;-2.2275;0.3331;0.1855;1.5244;-2.79;2.0;-18.19;14.27;2.16;329.46;25.46;-105.63;2.0;988.46;47.602;35.957973;-83.922646;;NaN;;;1612.9032;;0 / 18;36520;2022-10-26 21:22:50:849
13.3711;-4.2867;-3.1639;9.6396;-0.1121;-1.799;-1.7987;-0.5688;-0.8594;-1.342;-0.0756;1.7445;4.0;-28.8;-6.84;-25.13;256.33;0.66;-100.57;2.0;988.41;52.801;35.957973;-83.922646;;NaN;;;1612.9032;;0 / 18;37020;2022-10-26 21:22:51:349
8.304;0.4501;-1.3549;9.266;-2.2744;-2.2668;-1.5832;1.8714;1.4004;0.1605;0.173;0.4618;4.0;-21.86;16.33;-24.38;292.69;13.41;-103.75;2.0;988.42;39.461;35.957973;-83.922646;;NaN;;;1612.9032;;0 / 18;37520;2022-10-26 21:22:51:849
6.3203;-2.2887;-3.4068;9.6909;1.4676;0.3202;-0.4192;-3.3956;-2.642;-0.3484;-0.3198;-0.4056;3.0;-22.31;11.4;-18.3;295.92;4.76;-92.48;2.0;988.42;48.186;35.957973;-83.922646;;NaN;;;1612.9032;;0 / 18;38020;2022-10-26 21:22:52:349
8.0584;-1.8733;1.5921;8.9731;-2.7249;-2.8686;-0.9216;0.1705;3.9394;-2.3123;-0.4365;1.3992;3.0;-21.15;8.74;-15.43;287.85;9.18;-101.44;2.0;988.44;38.914;35.957973;-83.922646;;NaN;;;1612.9032;;0 / 18;38520;2022-10-26 21:22:52:849
8.438;-3.8677;-4.0161;9.6778;1.4156;0.7115;5.297;-5.6069;-2.0135;0.1805;0.8033;-1.7166;1.0;-11.38;18.75;-1.97;356.67;-8.3;-85.8;2.0;988.42;46.011;35.957973;-83.922646;;NaN;;;1612.9032;;0 / 18;39020;2022-10-26 21:22:53:349
7.6193;-1.847;0.693;9.6147;-0.7522;-1.7783;-0.1213;-1.0479;1.4158;-1.3373;-1.0331;0.8496;1.0;-30.13;4.07;-7.01;278.4;4.4;-100.48;2.0;988.4;41.333;35.957973;-83.922646;;NaN;;;1612.9032;;0 / 18;39521;2022-10-26 21:22:53:850
10.3699;-3.0069;0.2142;9.797;0.1577;-0.4048;1.5263;-1.1809;-0.7787;0.6661;0.7406;-1.998;0.0;-30.88;14.44;-3.0;308.24;13.6;-99.95;2.0;988.4;39.428;35.957973;-83.922646;;NaN;;;1612.9032;;0 / 18;40020;2022-10-26 21:22:54:349
9.7774;-2.5439;-2.709;9.6129;-1.3081;-1.4325;-0.9341;-2.0086;-1.0059;-1.5082;-0.5229;1.3184;0.0;-42.96;-6.84;-12.34;235.8;7.67;-98.48;2.0;988.35;49.757;35.957973;-83.922646;;NaN;;;1612.9032;;0 / 18;40519;2022-10-26 21:22:54:848
11.3886;1.7501;-1.3382;8.7452;-3.6752;-2.4868;6.1948;3.8692;0.7731;1.3652;-0.0687;-0.3724;0.0;-42.81;11.14;-5.85;256.06;23.95;-111.5;2.0;988.37;43.484;35.957973;-83.922646;;NaN;;;1612.9032;;0 / 18;41019;2022-10-26 21:22:55:348
7.4611;-4.0603;-3.7265;9.6311;1.5733;-0.9684;1.2242;-7.6109;-1.7658;-1.5435;-0.1321;0.6548;0.0;-41.81;-6.92;-2.59;267.98;-9.23;-95.74;2.0;988.33;58.478;35.957973;-83.922646;;NaN;;;1612.9032;;0 / 18;41520;2022-10-26 21:22:55:849
15.5593;-1.0594;-0.9362;8.979;-2.1207;-3.3242;-2.141;8.4068;3.6776;2.3408;-0.7681;-1.432;0.0;-44.23;-1.37;4.48;216.45;19.35;-109.83;2.0;988.32;54.451;35.958378;-83.92441;778.39;NaN;;;98.161285;;0 / 18;42019;2022-10-26 21:22:56:348
10.2012;-5.3183;1.8745;9.4725;-1.9579;-1.6152;-3.8821;-4.8519;-1.4697;-2.8321;-0.187;2.597;0.0;-44.74;-1.95;21.08;79.69;-6.02;-96.07;2.0;988.29;65.129;35.958378;-83.92441;778.39;NaN;;;98.161285;;0 / 18;42520;2022-10-26 21:22:56:849
12.9748;-2.9447;-0.3497;8.9924;-3.7328;-1.1719;1.9271;5.432;3.2878;2.4611;-0.6862;-1.2881;0.0;-38.72;14.93;18.08;97.71;22.37;-97.43;2.0;988.25;48.679;35.958378;-83.92441;778.39;NaN;;;98.161285;;0 / 18;43020;2022-10-26 21:22:57:349
8.3722;-3.1591;0.28;9.202;-2.6235;-2.1475;-2.9036;-1.7693;1.1963;-2.9922;1.1295;2.1983;0.0;-38.4;3.43;7.86;186.44;15.52;-103.14;2.0;988.23;57.945;35.958378;-83.92441;778.39;NaN;;;98.161285;;0 / 18;43520;2022-10-26 21:22:57:849
13.5912;-5.2777;-0.0455;7.9832;-5.4307;-1.7168;4.4804;2.586;1.634;1.4713;0.6002;-2.5342;1.0;-32.19;16.73;8.68;183.07;34.18;-106.13;2.0;988.24;40.679;35.958378;-83.92441;778.39;NaN;;;98.161285;;0 / 18;44022;2022-10-26 21:22:58:351
10.2861;-4.2867;-0.9757;9.8061;0.1042;-0.0071;-4.498;-3.0967;-1.8755;-1.0328;-0.5033;1.7676;0.0;-39.92;7.31;1.63;11.87;-15.49;-87.62;2.0;988.2;54.344;35.958378;-83.92441;778.39;NaN;;;98.161285;;0 / 18;44521;2022-10-26 21:22:58:850
9.9667;-0.6583;0.9338;8.27;-3.7099;-3.7435;-0.5927;0.7892;5.3521;-0.5127;0.2423;1.128;0.0;-32.53;14.14;12.92;255.95;22.23;-114.35;2.0;988.23;37.896;35.958378;-83.92441;778.39;NaN;;;98.161285;;0 / 18;45021;2022-10-26 21:22:59:350
7.2135;-4.3466;-3.1735;9.4849;2.4123;0.623;-2.2876;-6.3838;-4.0871;1.5206;0.1558;-2.1668;1.0;-32.21;3.94;13.82;54.39;-14.24;-86.24;2.0;988.19;51.511;35.958378;-83.92441;778.39;NaN;;;98.161285;;0 / 18;45521;2022-10-26 21:22:59:850
7.4779;-2.5965;1.1013;9.0736;-2.4439;-2.8049;-0.9598;-0.6763;4.2282;-2.5764;0.5628;0.349;2.0;-32.03;-5.36;13.56;163.36;17.2;-106.25;2.0;988.22;45.543;35.958378;-83.92441;778.39;NaN;;;98.161285;;0 / 18;46021;2022-10-26 21:23:00:350
11.062;-1.4067;-1.9546;8.741;-4.15;-1.5944;1.1701;4.9395;0.2752;0.1872;0.447;-1.8015;2.0;-32.04;1.01;10.76;159.03;25.04;-100.34;2.0;988.19;42.429;35.958378;-83.92441;778.39;NaN;;;98.161285;;0 / 18;46520;2022-10-26 21:23:00:849
9.4711;-3.9156;-1.5359;9.6802;-1.5698;-0.026;-1.8312;-1.6204;-0.4476;0.8494;-0.7057;0.9875;3.0;-27.82;-7.33;-5.66;205.18;0.4;-84.69;2.0;988.19;50.005;35.958378;-83.92441;778.39;NaN;;;98.161285;;0 / 18;47021;2022-10-26 21:23:01:350
5.3052;-6.4917;-1.8374;8.299;-4.4005;-2.8166;0.2809;0.731;1.1303;-1.411;0.8902;-0.4563;3.0;-34.31;-1.48;-5.27;226.97;26.66;-108.75;2.0;988.21;51.904;35.958378;-83.92441;778.39;NaN;;;98.161285;;0 / 18;47520;2022-10-26 21:23:01:849
14.1802;-2.4036;-1.2006;8.0351;-5.3906;-1.5968;5.8444;2.447;-1.2194;-0.4605;0.5001;0.5404;1.0;-38.59;3.15;-14.08;234.98;31.64;-103.03;2.0;988.19;33.514;35.958378;-83.92441;778.39;NaN;;;98.161285;;0 / 18;48021;2022-10-26 21:23:02:350
9.4017;-4.6457;-1.9283;9.7942;-0.3702;0.3277;0.2592;-4.3633;-2.5278;-0.4762;-0.5088;1.642;2.0;-40.99;-5.53;-23.47;280.72;-12.46;-83.69;2.0;988.14;51.448;35.958378;-83.92441;778.39;NaN;;;98.161285;;0 / 18;48520;2022-10-26 21:23:02:849
10.8942;-3.3649;-1.0187;8.8897;-3.1462;-2.6916;-1.553;0.5542;3.9047;-1.169;0.0916;0.3234;2.0;-47.74;4.07;-14.89;251.32;18.71;-106.85;2.0;988.17;46.235;35.958378;-83.92441;778.39;NaN;;;98.161285;;0 / 18;49021;2022-10-26 21:23:03:350
8.9049;-4.8577;-0.1484;9.7364;0.5062;-1.0567;0.3829;-4.8366;0.5334;0.2491;0.4113;-2.1545;1.0;-46.43;12.23;-6.66;320.19;-2.96;-96.19;2.0;988.12;50.838;35.958378;-83.92441;778.39;NaN;;;98.161285;;0 / 18;49520;2022-10-26 21:23:03:849
10.0265;-2.2325;-1.6172;9.3306;-2.5993;-1.5341;1.5127;0.425;0.251;-1.8905;-0.4781;1.3553;2.0;-50.06;-8.51;-15.92;236.63;0.23;-87.69;2.0;988.11;45.451;35.958378;-83.92441;778.39;NaN;;;98.161285;;0 / 18;50020;2022-10-26 21:23:04:349
13.7133;-3.766;0.7122;8.8244;-3.5561;-2.3779;4.0202;3.3338;4.2929;2.8966;0.1636;-2.1447;2.0;-41.18;23.81;-0.45;280.71;29.11;-122.77;2.0;988.09;44.344;35.958378;-83.92441;778.39;NaN;;;98.161285;;0 / 18;50521;2022-10-26 21:23:04:850
9.6841;-3.1615;-2.569;9.5721;1.7555;-1.21;-5.6398;-9.3707;0.7821;-0.8134;-0.5624;2.6324;2.0;-50.98;-26.64;8.66;171.67;-10.31;-97.2;2.0;988.06;57.941;35.958378;-83.92441;778.39;NaN;;;98.161285;;0 / 18;51020;2022-10-26 21:23:05:349
13.165;-3.0655;-2.9626;7.7038;-5.3737;-2.8187;3.0788;7.7682;1.5803;1.7621;-0.3965;-1.4518;2.0;-54.38;-8.12;21.73;176.88;33.23;-110.1;2.0;988.07;49.42;35.958378;-83.92441;778.39;NaN;;;98.161285;;0 / 18;51521;2022-10-26 21:23:05:850
6.4472;-2.7939;-2.636;9.6674;0.8806;-1.3912;-4.5663;-3.9919;-1.9311;-0.254;-0.2449;1.0903;1.0;-33.66;-9.84;24.86;92.29;-14.16;-95.01;2.0;988.01;54.579;35.958378;-83.92441;778.39;NaN;;;98.161285;;0 / 18;52020;2022-10-26 21:23:06:349
11.0477;-1.421;-1.124;8.5819;-4.2386;-2.1342;4.3919;8.3401;2.6665;1.4731;-0.6929;-1.758;1.0;-26.72;-10.46;18.98;151.9;25.61;-103.97;2.0;987.99;46.273;35.958378;-83.92441;778.39;NaN;;;98.161285;;0 / 18;52520;2022-10-26 21:23:06:849
6.8961;-4.8386;-4.0615;9.7021;-0.6185;-1.2875;-2.6786;-3.5958;-3.8804;-0.4919;-0.4972;0.9549;1.0;-13.13;-4.26;25.09;95.94;-5.77;-94.04;2.0;987.99;51.292;35.958378;-83.92441;778.39;NaN;;;98.161285;;0 / 18;53021;2022-10-26 21:23:07:350
14.4688;-3.0272;-0.0897;8.0946;-4.7126;-2.9051;2.6984;9.3107;5.2786;1.4004;-0.0313;-1.7741;1.0;-13.78;-5.53;23.81;130.94;28.72;-109.74;2.0;988.01;55.958;35.958378;-83.92441;778.39;NaN;;;98.161285;;0 / 18;53520;2022-10-26 21:23:07:849
12.2423;-7.7067;-1.0738;9.7508;-0.5228;-0.9046;-1.2028;-6.0115;-1.1951;0.6726;-0.1852;1.3365;1.0;-23.92;-17.66;12.84;137.4;-8.86;-90.12;2.0;987.95;52.498;35.958378;-83.92441;778.39;NaN;;;98.161285;;0 / 18;54020;2022-10-26 21:23:08:349
6.542;-3.5204;0.7313;8.5566;-3.0954;-3.6571;-1.2235;-0.6336;6.1353;-1.6639;0.6215;0.6835;1.0;-39.06;-17.31;3.36;206.22;17.15;-114.34;2.0;987.95;54.723;35.958378;-83.92441;778.39;NaN;;;98.161285;;0 / 18;54521;2022-10-26 21:23:08:850
12.618;-6.8411;-4.6313;9.0315;-3.2744;-1.9701;3.7448;2.3807;-0.903;0.3921;1.3139;-2.0168;2.0;-34.76;8.19;-16.95;263.68;19.51;-102.31;2.0;987.96;53.146;35.958378;-83.92441;778.39;NaN;;;98.161285;;0 / 18;55021;2022-10-26 21:23:09:350
17.2531;-4.8482;-2.8502;8.5321;-3.0513;-3.75;2.261;-4.8945;-1.1485;-4.5824;0.0864;5.086;2.0;-50.23;-18.13;-28.74;239.29;18.13;-113.73;2.0;987.94;54.629;35.958378;-83.92441;778.39;NaN;;;98.161285;;0 / 18;55520;2022-10-26 21:23:09:849
13.5912;-3.0921;4.1189;7.2528;-3.7486;-5.4328;2.0959;2.5235;4.4795;0.3638;3.8701;0.6648;2.0;-23.53;42.04;-3.99;331.49;22.47;-126.84;2.0;987.95;50.061;35.958378;-83.92441;778.39;NaN;;;98.161285;;0 / 18;56021;2022-10-26 21:23:10:350
8.3626;-5.0551;-3.7696;9.6946;-0.6194;1.3423;-2.6193;-3.4735;-4.9141;-0.8039;-0.5836;0.2307;1.0;-20.23;34.86;-9.88;352.07;-0.71;-76.13;2.0;987.93;49.824;35.958378;-83.92441;778.39;NaN;;;98.161285;;0 / 18;56521;2022-10-26 21:23:10:850
15.5462;-3.9012;1.5502;8.1689;-3.7949;-3.8779;0.0053;0.4972;4.6072;-1.0872;0.0089;1.3952;2.0;-25.97;18.04;-16.63;291.29;22.77;-115.39;2.0;987.95;51.532;35.958378;-83.92441;778.39;NaN;;;98.161285;;0 / 18;57020;2022-10-26 21:23:11:349
9.3598;-5.4347;-3.1651;9.7988;-0.2093;0.3308;-2.6468;-3.9655;-3.7426;0.8503;-0.0717;-0.7461;0.0;-19.69;20.38;-4.78;347.07;6.32;-87.3;2.0;987.92;52.335;35.958378;-83.92441;778.39;NaN;;;98.161285;;0 / 18;57521;2022-10-26 21:23:11:850
13.9863;-1.8099;-3.9215;8.8781;-2.6393;-3.2222;0.9971;1.3915;1.8413;-2.376;-0.0013;1.195;0.0;-14.89;3.26;-0.08;259.21;14.72;-105.6;2.0;987.93;46.934;35.958378;-83.92441;778.39;NaN;;;98.161285;;0 / 18;58020;2022-10-26 21:23:12:349
11.1577;-8.4811;-5.522;9.7426;1.0586;0.3629;1.5893;-3.6018;-1.7593;1.7703;-0.513;-0.1258;0.0;-15.28;9.09;4.78;26.01;6.73;-95.72;2.0;987.88;51.368;35.958378;-83.92441;778.39;NaN;;;98.161285;;0 / 18;58520;2022-10-26 21:23:12:849
13.9385;1.2185;-0.8824;7.9868;-3.5898;-4.4153;4.5005;3.7419;3.2576;-0.6164;-0.9659;0.7471;0.0;-25.24;9.13;1.48;276.19;18.83;-111.33;2.0;987.88;52.996;35.958378;-83.92441;778.39;NaN;;;98.161285;;0 / 18;59021;2022-10-26 21:23:13:350
9.1908;-3.6317;-0.498;9.024;1.3485;-3.5944;5.3153;-6.1346;2.897;-0.222;0.1272;-2.4005;0.0;-20.47;14.66;7.73;4.77;13.46;-109.68;2.0;987.9;54.896;35.958378;-83.92441;778.39;NaN;;;98.161285;;0 / 18;59520;2022-10-26 21:23:13:849
10.1462;2.0052;-1.1743;8.9747;-1.3981;-3.6974;-1.9824;-0.3076;-1.8679;-2.2625;0.4061;2.8434;0.0;-23.51;-9.39;13.2;167.31;8.2;-112.39;2.0;987.84;55.19;35.958378;-83.92441;778.39;NaN;;;98.161285;;0 / 18;60020;2022-10-26 21:23:14:349
10.8547;-3.4463;-1.1874;9.4729;0.5058;-2.4857;1.5379;-3.1974;0.5195;0.6572;-0.2086;-2.4972;0.0;-24.19;0.64;14.1;157.45;23.15;-111.76;2.0;987.85;43.481;35.958378;-83.92441;778.39;NaN;;;98.161285;;0 / 18;60520;2022-10-26 21:23:14:849
7.0134;-1.7393;-1.7465;9.551;-0.7757;-2.085;-1.5476;-1.2231;-1.011;-0.3905;-0.1268;1.4607;0.0;-9.0;1.97;11.19;82.82;4.54;-102.31;2.0;987.81;57.818;35.958378;-83.92441;778.39;NaN;;;98.161285;;0 / 18;61022;2022-10-26 21:23:15:351
9.0951;-4.8613;0.0706;9.2516;-2.9497;-1.3703;2.0142;0.9575;1.5584;2.1179;-0.3453;-1.5703;0.0;-2.49;3.08;10.31;84.54;25.7;-102.9;2.0;987.78;49.833;35.958378;-83.92441;778.39;NaN;;;98.161285;;0 / 18;61520;2022-10-26 21:23:15:849
10.3161;-0.3293;-0.2022;9.7497;-0.7094;0.7817;1.7485;-3.1303;-0.7996;0.1728;1.8199;-1.2182;0.0;-0.21;4.41;3.77;44.82;4.15;-85.42;2.0;987.78;50.936;35.958378;-83.92441;778.39;NaN;;;98.161285;;0 / 18;62021;2022-10-26 21:23:16:350
15.2755;-0.1579;4.028;9.6286;-1.6978;0.7597;0.0215;1.2085;0.5877;-1.9339;0.7459;2.1065;0.0;2.94;2.96;-1.71;322.99;-6.92;-90.55;2.0;987.75;44.557;35.958378;-83.92441;778.39;NaN;;;98.161285;;0 / 18;62521;2022-10-26 21:23:16:850
4.9786;0.4801;5.3207;6.4951;0.2281;7.3438;1.2973;-0.0464;-3.9297;0.4401;0.6728;-0.3408;0.0;5.94;-0.02;5.4;261.36;-1.33;-41.49;2.0;987.76;42.724;35.958378;-83.92441;778.39;NaN;;;98.161285;;0 / 18;63020;2022-10-26 21:23:17:349
4.8099;0.8258;5.875;8.1309;2.4221;4.9186;-3.5477;-3.2248;-0.7863;-1.9482;-1.353;-1.3785;8.0;-4.37;1.28;15.19;92.18;-15.13;-53.13;2.0;987.72;43.527;35.958378;-83.92441;778.39;NaN;;;98.161285;;0 / 18;63521;2022-10-26 21:23:17:850
8.0776;-1.1396;1.276;9.0522;-1.3421;3.5253;0.4789;-0.23;-0.6692;0.2582;0.0208;-0.1209;8.0;4.69;-17.85;12.06;150.09;8.99;-69.08;2.0;987.72;44.206;35.958378;-83.92441;778.39;NaN;;;98.161285;;0 / 18;64020;2022-10-26 21:23:18:349
10.9735;-8.45;0.0491;9.457;-2.1099;1.5115;0.7011;-0.9602;1.7013;0.9575;-0.7008;1.8667;5.0;0.71;-24.36;4.76;168.91;5.55;-76.84;2.0;987.72;47.02;35.958378;-83.92441;778.39;NaN;;;98.161285;;0 / 18;64520;2022-10-26 21:23:18:849
5.6991;-3.2584;0.766;8.8201;-4.2858;0.0877;-2.5641;1.5352;-0.3382;-1.9484;0.8761;-0.3257;2.0;-13.89;-25.33;-7.37;192.85;27.16;-88.19;2.0;987.66;61.095;35.958378;-83.92441;778.39;NaN;;;98.161285;;0 / 18;65020;2022-10-26 21:23:19:349
13.6391;-7.5966;1.9968;9.0141;-2.9339;2.5118;7.0151;-1.0842;1.5427;1.9845;1.4544;-2.2603;2.0;-17.14;-15.38;-22.31;226.35;36.95;-92.39;2.0;987.69;41.961;35.958378;-83.92441;778.39;NaN;;;98.161285;;0 / 18;65520;2022-10-26 21:23:19:849
16.1985;-2.8023;1.5837;9.7591;-0.6145;-0.7432;5.8339;-2.6089;-0.6785;-3.0287;-2.4878;2.3576;3.0;-15.17;-8.46;-32.87;255.56;3.59;-94.35;2.0;987.69;49.423;35.958378;-83.92441;778.39;NaN;;;98.161285;;0 / 18;66020;2022-10-26 21:23:20:349
17.1081;0.4047;-1.2281;8.949;-3.0479;-2.607;5.971;2.5163;1.8976;0.6492;-0.5841;0.7507;2.0;-28.03;12.24;-19.59;291.73;4.77;-101.29;2.0;987.64;38.409;35.958378;-83.92441;778.39;NaN;;;98.161285;;0 / 18;66520;2022-10-26 21:23:20:849
9.1226;-4.6588;-2.016;9.3528;2.8696;0.6786;-2.4341;-6.2511;-2.2962;0.2289;0.3564;-0.768;1.0;-37.26;12.13;-18.51;324.34;-17.01;-85.85;2.0;987.67;48.152;35.958378;-83.92441;778.39;NaN;;;98.161285;;0 / 18;67020;2022-10-26 21:23:21:349
8.857;-1.8338;2.9339;8.9939;-2.5261;-2.9832;-0.7045;-0.9105;6.2552;-2.933;-0.1876;0.6431;1.0;-43.03;6.84;-24.45;248.57;15.62;-102.95;2.0;987.66;51.799;35.958378;-83.92441;778.39;NaN;;;98.161285;;0 / 18;67520;2022-10-26 21:23:21:849
8.7625;-5.473;-0.2596;9.3012;-3.0818;-0.4005;4.3871;3.6263;2.306;3.2538;-0.6477;-1.7845;2.0;-31.05;39.23;-7.11;343.09;18.32;-92.47;2.0;987.63;52.286;35.958378;-83.92441;778.39;NaN;;;98.161285;;0 / 18;68021;2022-10-26 21:23:22:350
7.9699;-2.4718;-2.1236;9.6487;-1.5973;-0.7224;-3.1264;-1.3676;-3.1562;0.0318;-0.4155;1.0521;2.0;-41.59;4.89;-19.99;283.13;0.43;-90.1;2.0;987.61;44.437;35.958378;-83.92441;778.39;NaN;;;98.161285;;0 / 18;68520;2022-10-26 21:23:22:849
10.7949;-4.0735;-2.9351;7.6513;-4.9294;-3.6509;4.452;6.949;-3.0333;-0.7138;-0.5359;-1.735;1.0;-44.06;6.45;-11.89;234.79;46.06;-115.13;2.0;987.59;50.392;35.958378;-83.92441;778.39;NaN;;;98.161285;;0 / 18;69021;2022-10-26 21:23:23:350
7.8144;-3.7229;-4.9104;9.5254;-1.6891;-1.6078;-6.0506;-8.411;-3.4269;1.786;-0.5421;1.4121;1.0;-34.84;4.52;2.79;347.18;-1.99;-97.21;2.0;987.58;54.821;35.958378;-83.92441;778.39;NaN;;;98.161285;;0 / 18;69521;2022-10-26 21:23:23:850
9.763;-0.8644;-1.6723;6.942;-6.4687;-2.4769;5.0689;4.8657;2.29;0.3693;0.6231;0.2718;1.0;-26.74;4.74;3.0;215.21;38.81;-114.89;2.0;987.58;43.651;35.958378;-83.92441;778.39;NaN;;;98.161285;;0 / 18;70022;2022-10-26 21:23:24:351
9.3419;-6.7502;-3.9419;9.7895;-0.49;-0.311;-2.936;-5.5734;-0.2902;0.4393;0.077;1.2482;1.0;-21.69;9.08;5.48;39.52;11.1;-93.23;2.0;987.56;49.586;35.958378;-83.92441;778.39;NaN;;;98.161285;;0 / 18;70520;2022-10-26 21:23:24:849
9.6781;-3.973;0.262;7.7043;-5.6959;-2.0905;1.2499;2.8371;2.0627;-0.0618;-0.162;0.4003;1.0;-21.67;1.26;-4.14;221.45;33.06;-103.71;2.0;987.56;44.955;35.958378;-83.92441;778.39;NaN;;;98.161285;;0 / 18;71020;2022-10-26 21:23:25:349
6.6628;-4.9857;1.0941;9.2087;-3.2789;-0.7872;-0.463;-0.7267;-0.2408;-0.0874;0.0909;-0.9058;1.0;-19.11;6.19;-6.94;243.31;31.26;-95.16;2.0;987.53;40.444;35.958378;-83.92441;778.39;NaN;;;98.161285;;0 / 18;71520;2022-10-26 21:23:25:849
9.4125;-4.9869;-3.3912;8.5538;-4.7901;-0.239;-1.8813;-2.0393;-3.9256;0.9838;-0.2275;1.4886;1.0;-17.42;-1.57;-15.36;237.54;29.24;-91.6;2.0;987.5;48.695;35.958378;-83.92441;778.39;NaN;;;98.161285;;0 / 18;72021;2022-10-26 21:23:26:350
12.3655;-3.5049;-4.89;8.3823;-3.9206;-3.246;-1.2562;-0.4866;2.1773;-0.0809;0.186;0.8699;1.0;-25.16;6.24;-17.93;270.16;19.43;-111.2;2.0;987.52;45.088;35.958378;-83.92441;778.39;NaN;;;98.161285;;0 / 18;72521;2022-10-26 21:23:26:850
6.9069;-3.0751;0.6631;9.5408;-1.7577;-1.4335;-2.5599;-1.2451;-0.8934;-0.8327;0.5066;-0.5164;1.0;-28.89;16.22;-28.91;289.02;10.33;-98.54;2.0;987.48;44.972;35.958378;-83.92441;778.39;NaN;;;98.161285;;0 / 18;73021;2022-10-26 21:23:27:350
4.2449;-3.9048;-3.9395;9.1786;-1.0655;-3.2847;-0.3932;-3.8925;-0.084;-0.6994;-0.7763;-1.3923;2.0;-31.89;19.73;-28.67;288.72;16.81;-103.03;2.0;987.48;40.534;35.958378;-83.92441;778.39;NaN;;;98.161285;;0 / 18;73520;2022-10-26 21:23:27:849
11.5517;-0.0706;0.5495;8.4661;-3.9841;-2.9365;7.6115;2.4793;0.21;0.8469;1.1456;-1.4145;2.0;-34.74;26.23;-6.26;302.98;23.97;-109.13;2.0;987.49;41.543;35.958378;-83.92441;778.39;NaN;;;98.161285;;0 / 18;74020;2022-10-26 21:23:28:349
8.5516;-5.0372;-3.5599;9.6378;-0.6177;-1.7036;-7.0691;-4.5895;-0.8609;-0.1753;-0.6567;2.1082;3.0;-35.38;2.46;-10.5;337.68;-12.65;-93.97;2.0;987.45;44.966;35.95835;-83.92445;832.56;NaN;;0.0;62.92589;;0 / 18;74521;2022-10-26 21:23:28:850
15.0841;-4.5775;-2.9112;8.9408;-3.6479;-1.7102;1.555;2.6182;-0.2378;-0.4122;0.5938;0.1833;3.0;-31.41;3.41;-18.41;254.8;21.65;-103.71;2.0;987.46;48.195;35.95835;-83.92445;832.56;NaN;;0.0;62.92589;;0 / 18;75019;2022-10-26 21:23:29:348
7.7055;-5.983;-3.2154;9.7632;-0.031;0.9219;-3.0279;-3.6351;-2.3121;0.0243;0.5579;-0.4306;1.0;-27.88;-2.59;-19.84;258.26;1.97;-88.26;2.0;987.48;42.927;35.95835;-83.92445;832.56;NaN;;0.0;62.92589;;4 / 18;75520;2022-10-26 21:23:29:849
10.485;-4.1118;-1.3059;8.8846;-3.308;-2.5081;-2.7211;0.1127;2.7271;-1.0444;0.0396;0.2393;1.0;-33.73;-1.24;2.06;208.81;19.39;-104.57;2.0;987.47;48.056;35.95835;-83.92445;832.56;NaN;;0.0;62.92589;;4 / 18;76020;2022-10-26 21:23:30:349
8.0261;-4.908;-0.4322;9.4874;-2.4077;-0.6028;-0.0568;-1.7604;-0.3844;0.2663;0.5459;-0.6938;0.0;-37.93;-9.11;15.73;159.14;24.36;-99.61;2.0;987.46;44.479;35.958355;-83.92442;827.22;NaN;;0.0;58.26848;;4 / 18;76520;2022-10-26 21:23:30:849
9.4184;-0.5291;-0.6045;9.1713;-2.106;-2.7609;3.1912;1.8767;3.7466;0.4515;-1.7064;-1.0859;0.0;-33.79;21.53;19.44;56.89;19.09;-98.81;2.0;987.43;48.7;35.958355;-83.92442;827.22;NaN;;0.0;58.26848;;4 / 18;77021;2022-10-26 21:23:31:350
9.0951;-1.9789;-3.026;9.5052;-1.026;-2.1839;2.7924;1.9064;3.9006;0.7146;0.0632;-1.4259;0.0;-37.84;34.24;21.24;26.81;7.52;-99.67;2.0;987.4;47.489;35.958355;-83.92442;827.22;NaN;;0.0;58.26848;;4 / 18;77520;2022-10-26 21:23:31:849
8.2466;2.9339;-4.0364;8.6704;3.9358;-2.3462;-0.5544;-1.106;0.1848;0.4629;0.1209;-0.7183;0.0;-54.96;10.54;18.84;6.79;-23.66;-105.14;2.0;987.4;44.924;35.958355;-83.92442;827.22;NaN;;0.0;58.26848;;4 / 18;78021;2022-10-26 21:23:32:350
13.8739;7.7019;6.9033;7.3046;3.5518;5.4952;2.1047;0.3672;-2.7024;-0.6602;0.1872;1.1143;0.0;-51.58;-2.1;20.03;36.55;-39.14;-87.03;2.0;987.36;42.424;35.958355;-83.92442;827.22;NaN;;0.0;58.26848;;3 / 18;78521;2022-10-26 21:23:32:850
11.5193;2.2002;5.6943;8.172;1.5151;5.2051;-0.2781;0.8221;0.2651;-0.7203;-0.1353;1.1835;1.0;-51.09;1.28;-14.89;58.95;-8.89;-57.51;2.0;987.34;48.775;35.958355;-83.92442;827.22;NaN;;0.0;58.26848;;3 / 18;79021;2022-10-26 21:23:33:350
6.5037;1.4713;3.3721;8.492;2.5985;4.16;-0.6869;-1.9974;-1.637;0.2441;0.2251;-0.6636;1.0;-47.59;9.79;-5.17;41.67;-10.21;-64.76;2.0;987.31;48.103;35.958355;-83.92442;827.22;NaN;;0.0;58.26848;;3 / 18;79521;2022-10-26 21:23:33:850
6.1768;1.5802;2.1404;8.8669;2.4953;3.3648;2.1659;-0.5056;0.4518;-0.4962;-0.4245;-0.6182;0.0;-43.29;7.46;-2.85;35.79;-14.74;-69.22;2.0;987.27;43.098;35.958355;-83.92442;827.22;NaN;;0.0;58.26848;;3 / 18;80021;2022-10-26 21:23:34:350
11.0106;-0.7684;1.1396;9.3099;1.217;2.8312;-0.8461;0.0325;-2.1689;-0.4623;-0.33;0.9679;0.0;-39.37;10.44;-10.11;11.53;-15.73;-69.66;2.0;987.28;39.888;35.958355;-83.92442;827.22;NaN;;0.0;58.26848;;1 / 18;80520;2022-10-26 21:23:34:849
7.2721;-1.5778;-0.5841;9.5871;-1.8973;-0.8111;-2.1641;-0.3548;2.2939;-1.3294;0.8882;-0.2085;0.0;-31.42;21.81;0.15;339.79;13.85;-99.6;2.0;987.31;38.39;35.958355;-83.92442;827.22;NaN;;0.0;58.26848;;1 / 18;81020;2022-10-26 21:23:35:349
9.3838;-1.7261;1.3753;9.3319;-2.9087;-0.7915;3.0275;2.3534;1.5946;-0.5578;0.7017;-0.151;0.0;-24.64;26.1;16.16;37.42;19.65;-99.36;2.0;987.3;43.564;35.958355;-83.92442;827.22;NaN;;0.0;58.26848;;2 / 18;81520;2022-10-26 21:23:35:849
9.1083;2.8549;4.4674;8.7335;0.3511;4.4467;1.0248;1.4197;-4.9121;-2.421;1.9414;0.1161;1.0;-30.0;13.71;-2.93;16.51;-5.99;-74.65;2.0;987.28;40.443;35.958355;-83.92442;827.22;NaN;;0.0;58.26848;;2 / 18;82020;2022-10-26 21:23:36:349
5.729;2.0028;2.6133;8.361;5.1176;0.2713;-2.9832;-5.2998;-4.723;-2.0253;-1.1278;0.5028;3.0;-32.49;-7.27;-13.05;323.62;-24.64;-77.51;2.0;987.25;42.37;35.958355;-83.92442;827.22;NaN;;0.0;58.26848;;2 / 18;82520;2022-10-26 21:23:36:849
10.2048;0.1974;-0.3485;9.792;0.4844;0.2291;3.7734;1.7096;1.1595;-0.0231;0.4228;0.1029;3.0;-24.41;-34.8;-2.31;184.13;-3.12;-91.03;2.0;987.26;51.425;35.958355;-83.92442;827.22;NaN;;0.0;58.26848;;2 / 18;83020;2022-10-26 21:23:37:349
17.3584;0.1735;-1.2628;9.6332;1.5744;0.9453;-2.8344;-0.9323;-0.0639;0.4666;-1.3766;1.5825;2.0;-26.46;-34.44;3.45;168.9;-9.9;-83.98;2.0;987.26;44.362;35.958336;-83.92443;820.83;NaN;;0.0;156.04045;;0 / 18;83519;2022-10-26 21:23:37:848
6.1851;-4.0053;-3.3661;9.5684;-0.0247;-2.1485;-0.3115;-5.0611;2.1728;-1.5336;0.3576;-0.963;1.0;-23.91;-34.24;11.04;170.87;0.14;-102.66;2.0;987.23;38.04;35.958336;-83.92443;820.83;NaN;;0.0;156.04045;;0 / 18;84020;2022-10-26 21:23:38:349
17.2974;1.9415;-2.6348;9.6972;-0.2258;-1.4436;4.325;3.396;-1.2971;-1.0817;0.4747;1.1217;1.0;-24.71;-39.3;2.42;192.03;-7.9;-112.05;2.0;987.2;38.677;35.958336;-83.92443;820.83;NaN;;0.0;156.04045;;4 / 18;84521;2022-10-26 21:23:38:850
7.3558;2.3749;1.2173;9.2133;3.3428;-0.3336;-2.21;-1.9424;0.7791;-1.3931;-0.1433;0.1584;2.0;-22.03;-38.1;-37.39;232.78;-19.93;-92.07;2.0;987.21;41.267;35.958336;-83.92443;820.83;NaN;;0.0;156.04045;;4 / 18;85020;2022-10-26 21:23:39:349
3.9179;-7.6122;-2.953;9.3883;-1.2959;-2.5201;-1.2976;-4.4474;-2.0388;-1.7766;-0.7941;-0.3519;2.0;-23.03;-32.83;-39.15;229.57;11.9;-98.6;2.0;987.24;39.778;35.958336;-83.92443;820.83;NaN;;0.0;156.04045;;4 / 18;85520;2022-10-26 21:23:39:849
8.9408;-1.4186;-0.1137;8.3261;-4.2255;-2.9985;4.6068;2.677;2.0476;1.1163;1.0297;-1.8829;1.0;-36.56;-9.83;-36.99;248.53;25.52;-109.81;2.0;987.2;39.503;35.958336;-83.92443;820.83;NaN;;0.0;156.04045;;4 / 18;86020;2022-10-26 21:23:40:349
10.4336;-1.4354;-2.569;9.7061;-0.8558;-1.1091;1.1335;-3.5061;-2.4467;-0.4835;-0.2299;1.225;1.0;-25.93;-8.08;-38.96;260.93;-3.69;-93.52;2.0;987.14;48.862;35.958336;-83.92443;820.83;NaN;;0.0;156.04045;;4 / 18;86520;2022-10-26 21:23:40:849
10.686;-0.28;-0.213;8.7725;-4.1298;-1.469;1.6643;5.1688;1.9242;0.9957;-0.1299;0.307;1.0;-23.08;-5.23;-33.84;254.24;22.15;-101.13;2.0;987.15;44.884;35.958336;-83.92443;820.83;NaN;;0.0;156.04045;;4 / 18;87020;2022-10-26 21:23:41:349
12.8659;-5.4766;-3.833;9.776;-0.7313;-0.2575;-0.4086;-4.8184;-0.4158;0.7612;-0.026;0.024;1.0;-25.52;5.79;-35.79;277.16;3.16;-91.89;2.0;987.13;48.019;35.958344;-83.924446;822.97;NaN;;0.0;107.77062;;5 / 18;87522;2022-10-26 21:23:41:851
7.3714;0.7493;-3.9251;7.998;0.9849;-5.5885;-1.2397;-0.857;1.8446;0.0394;0.266;-0.8766;1.0;-32.93;-23.78;-22.16;237.3;-0.56;-125.9;2.0;987.1;46.93;35.958344;-83.924446;822.97;NaN;;0.0;107.77062;;5 / 18;88020;2022-10-26 21:23:42:349
6.6281;-1.2532;-1.8458;9.4248;2.2705;-1.4794;-0.6433;-1.9913;-0.215;-0.15;0.7693;-0.0512;1.0;-40.86;-35.16;19.13;170.55;-7.08;-108.69;2.0;987.12;47.655;35.95834;-83.92443;815.75;NaN;;0.0;99.47256;;5 / 18;88521;2022-10-26 21:23:42:850
7.2458;0.0479;1.1025;9.4757;2.393;0.809;-0.2099;-1.0392;0.2739;0.1148;0.2575;-0.6047;2.0;-39.39;-26.94;13.01;141.53;-10.23;-85.9;2.0;987.09;45.785;35.95834;-83.92443;815.75;NaN;;0.0;99.47256;;5 / 18;89021;2022-10-26 21:23:43:350
8.1278;2.6157;3.3553;9.1719;2.662;2.2271;0.7354;0.977;-0.4254;-1.1356;1.2156;1.0908;2.0;-37.93;-3.32;20.98;84.82;-17.39;-79.39;2.0;987.07;44.265;35.958336;-83.92443;815.8;NaN;;0.0;86.84343;;5 / 18;89520;2022-10-26 21:23:43:849
9.5321;2.4861;4.5918;8.8191;1.9312;3.8295;-1.6588;-0.3676;0.8417;0.1155;0.104;0.2048;2.0;-29.04;5.87;0.24;46.09;-11.36;-66.53;2.0;987.04;49.83;35.958336;-83.92443;815.8;NaN;;0.0;86.84343;;5 / 18;90020;2022-10-26 21:23:44:349
8.0333;0.8318;-0.006;9.4973;2.0558;1.3214;-1.0691;-1.1953;-1.4166;-0.3342;-0.354;-0.6493;2.0;-18.69;0.47;-10.63;310.13;-4.6;-74.91;2.0;987.01;43.634;35.95834;-83.924446;817.39;NaN;;0.0;82.79367;;5 / 18;90520;2022-10-26 21:23:44:849
8.1485;0.7014;2.2158;9.4823;1.2999;2.1369;3.9848;2.3805;1.6638;-0.242;0.7674;-0.0643;1.0;-17.08;-3.51;-17.44;264.35;-7.62;-77.3;2.0;987.02;40.136;35.95834;-83.924446;817.39;NaN;;0.0;82.79367;;5 / 18;91021;2022-10-26 21:23:45:350
7.593;3.3577;1.8936;9.1463;1.6833;3.1115;-1.3783;1.526;-1.0984;-0.157;0.0519;0.3453;2.0;-12.34;-11.34;-28.07;254.66;-12.78;-71.82;2.0;986.99;38.352;35.95833;-83.924446;820.75;NaN;;0.0;60.913406;;5 / 18;91521;2022-10-26 21:23:45:850
7.8036;-2.8178;-1.6627;9.3625;0.0994;2.9162;1.8384;-0.284;1.4198;-0.3147;0.1202;-0.9264;3.0;-23.64;-14.91;-27.99;233.16;-0.58;-72.7;2.0;986.96;45.951;35.95833;-83.924446;820.75;NaN;;0.0;60.913406;;5 / 18;92020;2022-10-26 21:23:46:349
8.7374;4.4231;6.2809;9.6175;1.8316;-0.5658;-0.1522;1.3726;-1.0585;-3.831;-1.9624;-0.2546;7.0;-30.67;-14.06;-31.56;255.13;-9.97;-88.46;2.0;986.95;51.201;35.95833;-83.924446;820.75;NaN;;0.0;60.913406;;7 / 18;92520;2022-10-26 21:23:46:849
5.3701;-0.3676;-5.0575;8.7191;4.0281;-1.9802;-6.1133;-4.2837;-0.2348;1.2877;-1.038;1.266;11.0;-29.06;-2.49;-25.13;304.49;-35.72;-86.9;2.0;986.92;49.367;35.95833;-83.924446;820.75;NaN;;0.0;60.913406;;7 / 18;93020;2022-10-26 21:23:47:349
9.3491;-1.2891;1.1886;8.464;-3.3015;-3.6921;0.7349;1.162;7.293;-0.9236;-0.763;1.1282;4.0;-24.92;-2.03;-10.91;249.22;13.47;-106.99;2.0;987.04;48.943;35.95832;-83.92445;828.58;NaN;;0.0;49.002983;;6 / 18;93520;2022-10-26 21:23:47:849
10.5377;-2.132;-2.6288;9.6322;1.8263;-0.2348;1.6316;-6.9106;-3.4678;1.5018;-0.2377;-2.2788;1.0;-5.31;16.35;1.69;7.22;6.48;-90.66;2.0;986.97;56.444;35.95832;-83.92445;828.58;NaN;;0.0;49.002983;;6 / 18;94020;2022-10-26 21:23:48:349
8.7733;4.3155;-1.9152;8.7792;4.084;-1.5546;3.4502;0.4482;0.0833;-1.3584;-1.3232;-0.1781;1.0;-4.22;7.35;-14.91;294.61;-22.81;-99.02;2.0;986.96;44.408;35.958317;-83.92446;830.43;NaN;;0.0;45.48417;;7 / 18;94520;2022-10-26 21:23:48:849
12.192;3.2357;-2.0231;8.759;4.2603;-1.1405;-0.8321;0.911;1.1012;1.2288;0.397;0.7634;1.0;-0.22;-6.77;-9.71;236.64;-31.46;-96.29;2.0;986.96;39.93;35.958317;-83.92446;830.43;NaN;;0.0;45.48417;;7 / 18;95021;2022-10-26 21:23:49:350
8.3375;3.7947;-0.0191;8.9068;4.0984;-0.207;-0.6725;-0.3996;0.608;0.049;0.3699;0.0683;0.0;6.99;-9.3;11.14;131.43;-23.12;-97.54;2.0;986.96;45.519;35.958317;-83.92446;830.43;NaN;;0.0;45.48417;;7 / 18;95521;2022-10-26 21:23:49:850
8.7972;-2.1715;-0.0622;9.2928;-1.8236;-2.5471;1.1934;-0.4509;2.7725;-1.1522;-0.9737;1.3907;0.0;2.12;-14.04;21.02;124.77;10.72;-105.33;2.0;986.96;44.782;35.958317;-83.92446;830.43;NaN;;0.0;45.48417;;7 / 18;96020;2022-10-26 21:23:50:349
11.1781;0.5554;-1.774;9.1464;-3.3773;-1.0525;2.2361;4.143;-0.8076;0.7678;0.1782;-1.3214;1.0;-8.72;-23.08;13.18;159.9;23.12;-108.14;2.0;986.93;38.498;35.958313;-83.92445;836.56;NaN;;0.0;44.368996;;7 / 18;96521;2022-10-26 21:23:50:850
11.1482;-5.1808;-4.1465;9.7453;-0.9744;0.5001;0.3361;-5.0968;-1.0649;1.1091;-0.0811;0.6837;1.0;-17.1;-15.26;30.39;118.1;5.7;-87.06;2.0;986.92;45.238;35.958313;-83.92445;836.56;NaN;;0.0;44.368996;;7 / 18;97020;2022-10-26 21:23:51:349
7.9352;-0.2357;1.4761;8.584;-4.264;-2.0745;3.4042;-0.9078;1.9385;-0.7188;0.1054;0.819;1.0;0.83;2.76;46.54;93.82;20.11;-102.89;2.0;986.91;46.24;35.958313;-83.92445;836.56;NaN;;0.0;44.368996;;7 / 18;97521;2022-10-26 21:23:51:850
11.2917;-7.9161;-1.4701;9.7525;-0.6564;-0.7931;-1.0019;-4.52;1.5554;-0.0998;0.6115;-0.8028;2.0;8.06;7.29;17.19;67.12;3.84;-94.65;2.0;986.88;51.035;35.958313;-83.92445;836.56;NaN;;0.0;44.368996;;7 / 18;98021;2022-10-26 21:23:52:350
10.3941;-3.4606;0.1352;8.6168;-3.7806;-2.7619;0.5295;1.2686;0.7735;-2.3331;0.0157;1.2783;3.0;-9.69;-8.34;-5.83;217.13;17.31;-100.67;2.0;986.86;46.55;35.95831;-83.924446;830.81;NaN;;0.0;45.77135;;6 / 18;98521;2022-10-26 21:23:52:850
7.2434;-4.8553;-0.0885;9.7972;0.3962;-0.1708;-0.3418;-6.0727;-0.3127;0.6871;0.6028;-2.156;3.0;-17.14;-1.86;-9.28;243.03;12.98;-96.42;2.0;986.83;46.609;35.95831;-83.924446;830.81;NaN;;0.0;45.77135;;6 / 18;99020;2022-10-26 21:23:53:349
11.4485;-0.3221;-1.7106;8.954;-3.7711;-1.3319;3.0383;-0.747;-0.3223;-0.8039;-0.2947;2.0889;5.0;-18.37;-12.47;-1.59;192.08;8.35;-93.51;2.0;986.83;45.862;35.95831;-83.924446;830.81;NaN;;0.0;45.77135;;6 / 18;99520;2022-10-26 21:23:53:849
10.1318;0.2548;-2.2062;9.1007;-2.1804;-2.9315;-1.1336;1.3707;0.8288;-0.3667;0.0602;0.7246;6.0;-21.32;-8.78;3.69;191.88;9.12;-107.71;2.0;986.82;41.847;35.95831;-83.924446;830.81;NaN;;0.0;45.77135;;6 / 18;100020;2022-10-26 21:23:54:349
8.4607;-1.5562;-2.1811;9.3344;1.709;-2.4734;0.0348;-3.6226;-1.4427;-0.2274;0.285;-1.2171;7.0;-20.4;-11.72;9.83;170.39;5.53;-110.44;2.0;986.8;47.416;35.958298;-83.92444;830.4;NaN;;0.0;41.6002;;4 / 18;100520;2022-10-26 21:23:54:849
7.6935;2.8513;-2.624;9.1952;2.6165;-2.1848;-1.4079;0.1509;-0.5441;0.2012;-0.0987;0.313;8.0;-17.53;-5.85;24.9;86.18;-18.1;-101.99;2.0;986.8;41.421;35.958298;-83.92444;830.4;NaN;;0.0;41.6002;;4 / 18;101020;2022-10-26 21:23:55:349
7.0699;2.3725;-2.7281;9.2944;2.1506;-2.2713;-0.0198;-1.647;-1.3924;-0.8736;0.0082;-0.5284;11.0;-19.89;0.96;18.13;64.14;-12.67;-103.73;2.0;986.8;42.141;35.958298;-83.92444;830.4;NaN;;0.0;41.6002;;4 / 18;101520;2022-10-26 21:23:55:849
10.7518;2.6145;-1.957;9.1887;3.3231;-0.8341;2.0103;1.3275;-0.1326;-0.8273;0.0153;-0.5623;12.0;-23.36;-15.13;9.13;131.43;-19.81;-95.19;2.0;986.8;40.736;35.958298;-83.92444;830.4;NaN;;0.0;41.6002;;4 / 18;102020;2022-10-26 21:23:56:349
13.9935;0.2213;-2.016;9.4031;-1.6881;-2.214;5.1665;0.3321;-1.4902;-2.1102;0.3316;2.4557;22.0;-27.88;-24.62;-0.43;189.61;-21.97;-94.42;2.0;986.8;42.797;35.958286;-83.924446;828.19;NaN;;0.0;33.158813;;5 / 18;102520;2022-10-26 21:23:56:849
14.5813;-2.4179;-1.8697;8.6684;-3.8531;-2.4864;2.1636;4.5833;1.8991;0.2251;0.0835;0.4564;20.0;-32.85;-6.19;-3.81;216.41;23.14;-106.0;2.0;986.8;46.625;35.958286;-83.924446;828.19;NaN;;0.0;33.158813;;5 / 18;103021;2022-10-26 21:23:57:350
12.3236;-1.5347;-2.6085;9.6087;0.7024;-1.8303;-2.2217;-4.8003;-1.7112;-0.8049;-1.1871;1.2053;16.0;-38.14;-13.42;-10.91;257.93;-15.11;-93.41;2.0;986.78;45.793;35.958275;-83.92447;814.84;NaN;;0.0;30.507198;;5 / 18;103520;2022-10-26 21:23:57:849
14.1622;-4.9642;-2.1416;9.0534;-3.3483;-1.7305;-1.1201;1.2681;2.7418;-1.2277;1.2021;1.8071;18.0;-46.89;-19.01;-14.04;214.6;19.96;-100.82;2.0;986.8;43.317;35.958275;-83.92447;814.84;NaN;;0.0;30.507198;;5 / 18;104021;2022-10-26 21:23:58:350
5.2131;-2.9853;-0.632;9.2456;0.4118;3.2433;-2.4419;-4.8004;-3.9214;-1.1915;1.9644;-1.634;11.0;-43.95;4.28;-26.94;266.72;6.84;-87.18;2.0;986.79;47.046;35.95829;-83.92448;810.86;NaN;;0.0;24.595207;;7 / 18;104520;2022-10-26 21:23:58:849
9.253;-2.9004;-0.2201;9.2714;-3.1052;-0.7547;0.0228;0.2988;0.5312;-1.372;0.1543;-0.2236;13.0;-35.01;-0.32;-39.11;252.62;21.5;-91.41;2.0;986.78;41.943;35.95829;-83.92448;810.86;NaN;;0.0;24.595207;;7 / 18;105020;2022-10-26 21:23:59:349
13.9409;-0.7887;0.9147;8.0524;-5.1727;-2.1384;3.855;3.5568;2.8523;-0.0158;-0.2333;0.6254;10.0;-47.08;9.09;-27.66;252.33;29.06;-101.63;2.0;986.8;43.931;35.9583;-83.92451;793.95;NaN;;0.0;21.030165;;7 / 18;105521;2022-10-26 21:23:59:850
14.3898;-3.1041;0.0156;9.7691;0.0262;0.857;-3.7761;-5.2632;-0.6123;-0.9121;1.1511;1.6407;10.0;-52.24;-7.54;1.22;355.42;-14.74;-91.59;2.0;986.77;48.386;35.9583;-83.92451;793.95;NaN;;0.0;21.030165;;7 / 18;106020;2022-10-26 21:24:00:349
8.9157;-3.1328;0.3365;8.7262;-4.2829;-1.2963;-0.2021;2.0;1.7131;-0.3912;-0.0538;0.2065;10.0;-46.22;-5.83;0.06;190.69;26.28;-96.04;2.0;986.75;43.335;35.95828;-83.9245;795.95;NaN;;0.0;16.948591;;9 / 18;106521;2022-10-26 21:24:00:850
8.3279;-5.3593;0.2046;9.7498;-0.486;-0.9353;0.1456;-5.0563;1.2929;1.5302;-0.0056;-2.1795;9.0;-33.17;10.74;8.38;85.07;17.58;-98.25;2.0;986.74;45.289;35.95828;-83.9245;795.95;NaN;;0.0;16.948591;;9 / 18;107020;2022-10-26 21:24:01:349
9.9655;-1.1755;-3.402;9.2822;-3.1076;-0.594;1.8384;-1.3886;-2.0828;0.4675;-0.9877;0.9738;13.0;-16.56;9.54;-22.29;291.46;3.95;-91.81;2.0;986.72;47.152;35.95826;-83.924515;794.67;NaN;;0.0;14.082455;;12 / 18;107521;2022-10-26 21:24:01:850
11.2834;-0.7349;-3.2345;8.5941;-4.2933;-1.9698;-0.719;0.7754;1.9775;0.5221;0.8143;1.1737;12.0;-23.64;14.55;-31.42;280.01;25.96;-102.91;2.0;986.7;47.244;35.95826;-83.924515;794.67;NaN;;0.0;14.082455;;12 / 18;108021;2022-10-26 21:24:02:350
10.7375;-6.4376;0.4167;9.66;-1.6048;-0.5276;1.8558;-5.3554;-1.7713;0.2742;0.2197;1.2605;12.0;-29.79;-2.89;-28.31;262.93;2.2;-98.41;2.0;986.68;44.19;35.95828;-83.924515;770.99;NaN;;0.0;14.307996;;13 / 18;108520;2022-10-26 21:24:02:849
8.5947;-7.3343;-1.5072;6.7979;-6.2424;-3.3155;1.5356;2.833;4.5383;-1.745;0.9359;0.8364;15.0;-30.6;-12.83;-19.76;234.9;39.53;-116.0;2.0;986.66;48.302;35.95828;-83.924515;770.99;NaN;;0.0;14.307996;;13 / 18;109020;2022-10-26 21:24:03:349
10.8021;-8.2083;4.4734;6.9545;0.293;6.908;3.8312;-9.3708;-2.2304;1.0427;5.6696;-1.7467;13.0;-28.09;1.28;-26.12;257.06;12.93;-86.79;2.0;986.66;53.385;35.958263;-83.92453;772.97;NaN;;0.0;13.938662;;13 / 18;109521;2022-10-26 21:24:03:850
3.0296;2.715;7.4252;2.7081;1.9531;9.2207;-0.1879;-0.6007;-3.4118;0.022;-0.6646;-0.2857;37.0;23.46;-17.04;-45.62;255.35;-11.49;-16.37;2.0;986.6;49.865;35.958263;-83.92453;772.97;NaN;;0.0;13.938662;;13 / 18;110020;2022-10-26 21:24:04:349
6.0643;1.7895;3.1735;7.7421;2.6435;5.4075;1.0856;-0.9908;2.9565;0.3285;-0.0731;-0.0832;57.0;32.85;-18.92;-45.73;251.91;-12.79;-54.16;2.0;986.55;51.128;35.95827;-83.92453;765.37;NaN;;0.0;13.154922;;14 / 18;110520;2022-10-26 21:24:04:849
11.6557;1.2724;8.6019;7.4106;2.036;6.0917;3.2567;0.7285;-1.7945;-2.6339;-0.106;-0.6463;39.0;1.54;-22.95;-48.17;250.77;-17.61;-55.42;2.0;986.57;50.198;35.95827;-83.92453;765.37;NaN;;0.0;13.154922;;14 / 18;111021;2022-10-26 21:24:05:350
0.626;1.0415;9.4519;1.93;0.1198;9.6141;-0.0256;1.2853;-0.7984;-1.7314;3.7281;0.1618;55.0;6.79;6.98;-43.74;295.82;-0.7;-11.35;2.0;986.58;51.953;35.958282;-83.92453;758.39;NaN;;0.0;12.470128;;14 / 18;111520;2022-10-26 21:24:05:849
2.6121;3.5097;8.4177;1.9069;3.5582;8.9372;-0.0653;-1.614;-2.383;0.124;-0.717;-0.8991;239.0;18.38;19.37;-34.31;318.59;-19.8;-11.86;2.0;986.57;52.068;35.958282;-83.92453;758.39;NaN;;0.0;12.470128;;14 / 18;112020;2022-10-26 21:24:06:349
1.8266;0.067;8.3853;2.0056;1.3396;9.5055;0.4476;-1.1321;6.2465;0.124;0.0479;-1.2886;266.0;4.44;19.8;-40.16;334.08;-7.85;-11.91;2.0;986.59;50.373;35.958275;-83.924545;763.07;NaN;;0.0;12.226105;;14 / 18;112520;2022-10-26 21:24:06:849
1.3848;0.4047;11.4509;1.3543;2.0667;9.4903;0.7055;-0.784;3.0705;0.1385;-0.4767;-0.1202;229.0;-8.49;24.92;-44.46;5.49;-11.9;-6.16;2.0;986.57;48.482;35.958275;-83.924545;763.07;NaN;;0.0;12.226105;;14 / 18;113021;2022-10-26 21:24:07:350
0.067;1.8434;8.0656;0.2151;2.8456;9.3823;0.7603;-1.0844;-0.077;-0.2388;0.7022;0.6486;236.0;-2.64;20.33;-50.36;3.15;-16.87;-1.31;2.0;986.55;48.026;35.958275;-83.924545;763.07;NaN;;0.0;12.226105;;14 / 18;113521;2022-10-26 21:24:07:850
0.1914;1.7357;10.0672;-1.1204;2.3981;9.4427;0.3858;-0.4247;1.2119;-0.2684;0.28;0.1272;271.0;12.66;15.47;-52.37;346.17;-16.14;6.34;2.0;986.52;49.783;35.958275;-83.924545;763.07;NaN;;0.0;12.226105;;14 / 18;114021;2022-10-26 21:24:08:350
-0.862;3.3984;9.2566;-1.3149;2.5071;9.3891;0.5984;0.3559;-0.4755;0.2203;0.0204;-0.5411;203.0;18.54;14.23;-51.71;337.03;-14.81;7.97;2.0;986.54;50.09;35.958275;-83.924545;763.07;NaN;;0.0;12.226105;;14 / 18;114521;2022-10-26 21:24:08:850
-3.1783;2.0626;5.9291;-3.0164;2.8092;8.8984;-1.0094;-2.4909;0.9571;-0.1714;-0.4861;-0.4322;187.0;15.99;12.84;-50.96;2.52;-16.65;18.73;2.0;986.48;51.399;35.958275;-83.924545;763.07;NaN;;0.0;12.226105;;14 / 18;115020;2022-10-26 21:24:09:349