sep=;
ACCELEROMETER X (m/s²);ACCELEROMETER Y (m/s²);ACCELEROMETER Z (m/s²);GRAVITY X (m/s²);GRAVITY Y (m/s²);GRAVITY Z (m/s²);LINEAR ACCELERATION X (m/s²);LINEAR ACCELERATION Y (m/s²);LINEAR ACCELERATION Z (m/s²);GYROSCOPE X (rad/s);GYROSCOPE Y (rad/s);GYROSCOPE Z (rad/s);LIGHT (lux);MAGNETIC FIELD X (μT);MAGNETIC FIELD Y (μT);MAGNETIC FIELD Z (μT);ORIENTATION Z (azimuth °);ORIENTATION X (pitch °);ORIENTATION Y (roll °);PROXIMITY (i);ATMOSPHERIC PRESSURE (hPa);SOUND LEVEL (dB);LOCATION Latitude : ;LOCATION Longitude : ;LOCATION Altitude ( m);LOCATION Altitude-google ( m);LOCATION Altitude-atmospheric pressure ( m);LOCATION Speed ( Kmh);LOCATION Accuracy ( m);LOCATION ORIENTATION (°);Satellites in range;Time since start in ms ;YYYY-MO-DD HH-MI-SS_SSS
-0.5052;2.819;10.9448;-1.7991;2.288;9.3647;0.2717;0.9265;-1.1654;-0.6857;-0.5861;-0.7271;3.0;17.79;-33.88;-2.64;208.45;-13.49;10.88;5.0;979.28;34.256;35.957973;-83.922646;;NaN;;;1612.9032;;0 / 17;8;2022-10-25 20:52:28:595
0.6823;1.5263;8.1206;0.5844;1.9026;9.6026;0.198;-1.5733;-1.1356;0.3853;-0.3984;-1.0025;2.0;20.98;-36.41;-15.49;212.79;-9.07;-1.71;5.0;979.26;40.019;35.957973;-83.922646;;NaN;;;1612.9032;;0 / 17;509;2022-10-25 20:52:29:096
-0.1783;0.4609;7.9077;-0.002;0.5281;9.7924;-1.0042;0.7964;2.0736;0.3675;-0.1791;0.4767;1.0;38.53;-38.08;-29.91;227.03;-3.09;0.01;5.0;979.25;47.135;35.957973;-83.922646;;NaN;;;1612.9032;;0 / 17;1010;2022-10-25 20:52:29:597
0.4609;-0.0191;7.9711;0.5939;0.9241;9.7449;1.1562;-0.1679;1.2665;-1.3295;-0.9498;-1.3151;2.0;47.85;-43.43;-34.52;233.72;-11.88;1.26;5.0;979.23;40.904;35.957973;-83.922646;;NaN;;;1612.9032;;0 / 17;1508;2022-10-25 20:52:30:095
-1.4988;0.7361;11.6641;-0.4754;0.8989;9.7538;-1.0635;0.294;1.2196;-0.3625;0.5124;-0.0123;1.0;67.05;-21.13;-41.34;255.44;-5.26;2.79;5.0;979.19;37.488;35.957973;-83.922646;;NaN;;;1612.9032;;0 / 17;2008;2022-10-25 20:52:30:595
0.7875;-0.3712;12.1035;0.3598;0.8316;9.7647;1.0476;0.5112;2.105;0.1116;-0.5782;-0.7812;2.0;75.32;-4.39;-32.57;268.1;-2.29;6.68;5.0;979.2;42.471;35.957973;-83.922646;;NaN;;;1612.9032;;0 / 17;2509;2022-10-25 20:52:31:096
0.3401;0.012;7.8108;0.1167;0.5063;9.7929;-0.181;-1.5918;4.3477;0.878;0.7327;0.9316;2.0;82.67;18.47;-38.89;283.44;-2.96;-0.68;5.0;979.18;40.21;35.957973;-83.922646;;NaN;;;1612.9032;;0 / 17;3008;2022-10-25 20:52:31:595
1.9729;0.6655;14.039;-0.2618;1.3363;9.7117;1.1274;1.1619;-0.5276;-0.3244;-0.374;-0.9712;2.0;93.47;19.2;-27.28;289.62;-13.87;5.96;5.0;979.2;45.868;35.957973;-83.922646;;NaN;;;1612.9032;;0 / 17;3508;2022-10-25 20:52:32:095
-0.2309;3.3984;9.9045;-0.2651;2.0573;9.5848;-0.0559;0.8562;-1.2168;-0.5228;-0.1185;-0.2886;2.0;79.58;27.96;-31.48;293.92;-14.22;1.23;5.0;979.12;51.852;35.957973;-83.922646;;NaN;;;1612.9032;;0 / 17;4008;2022-10-25 20:52:32:595
-5.0743;5.9973;7.1812;-2.4882;3.601;8.7756;3.3313;-1.9925;-1.5603;0.423;1.2925;-0.1193;3.0;67.11;28.13;-29.63;299.39;-17.01;3.36;5.0;979.11;44.167;35.957973;-83.922646;;NaN;;;1612.9032;;0 / 17;4508;2022-10-25 20:52:33:095
-3.6655;3.7253;4.3884;-3.2175;3.9991;8.3561;0.8915;-1.1476;-0.9926;0.3736;0.4418;-0.3519;2.0;70.09;22.11;-12.3;299.78;-24.07;21.06;5.0;979.11;46.43;35.957973;-83.922646;;NaN;;;1612.9032;;0 / 17;5008;2022-10-25 20:52:33:595
1.2939;0.6368;8.2167;-1.633;2.635;9.3038;2.663;-1.9186;-0.9397;0.1266;0.0205;-0.4967;3.0;66.21;14.01;-16.74;288.9;-14.56;11.36;5.0;979.08;46.652;35.957973;-83.922646;;NaN;;;1612.9032;;0 / 17;5509;2022-10-25 20:52:34:096
2.8813;-0.9135;10.7877;-1.1429;1.7856;9.5747;1.5325;1.7268;0.9189;-0.6315;-1.1556;-1.3152;7.0;47.85;1.48;-31.93;280.09;-10.49;6.81;5.0;979.15;36.864;35.957973;-83.922646;;NaN;;;1612.9032;;0 / 17;6009;2022-10-25 20:52:34:596
1.069;2.8119;12.8827;-1.4173;2.9529;9.2435;0.1757;-0.5627;1.6694;0.1704;0.7184;0.3306;5.0;37.82;8.21;-40.97;298.91;-14.99;4.62;5.0;979.08;44.12;35.957973;-83.922646;;NaN;;;1612.9032;;0 / 17;6508;2022-10-25 20:52:35:095
-0.2393;-0.0538;17.8337;-1.3472;2.067;9.4912;1.9103;0.7305;-0.4098;-1.1398;1.0295;-1.3736;3.0;29.68;-4.09;-42.94;284.12;-12.17;8.08;5.0;979.09;40.87;35.957973;-83.922646;;NaN;;;1612.9032;;0 / 17;7009;2022-10-25 20:52:35:596
-1.4545;0.006;13.2515;-2.8228;1.1782;9.3174;-1.8476;0.8485;0.2038;-0.1038;-0.4558;0.7125;5.0;33.62;-1.18;-39.19;287.94;-7.33;22.75;5.0;979.1;40.243;35.957973;-83.922646;;NaN;;;1612.9032;;0 / 17;7509;2022-10-25 20:52:36:096
1.908;3.6449;5.2884;0.1088;2.3566;9.5187;0.72;1.6002;-2.9211;-0.1025;-0.6952;-0.762;4.0;24.24;-6.3;-37.03;285.9;-17.3;5.12;5.0;979.06;40.5;35.957973;-83.922646;;NaN;;;1612.9032;;0 / 17;8009;2022-10-25 20:52:36:596
-0.65;1.7189;9.9858;-0.1599;1.7968;9.6393;0.3851;-0.6967;-1.1696;0.0076;0.0978;-1.4365;2.0;11.78;-0.83;-34.65;291.39;-10.1;-1.63;5.0;979.06;43.134;35.957973;-83.922646;;NaN;;;1612.9032;;0 / 17;8508;2022-10-25 20:52:37:095
-0.3808;3.0153;6.4869;-1.3443;3.539;9.0465;1.0712;-1.2584;-2.3154;0.3706;0.2596;0.1831;1.0;8.27;9.73;-36.32;348.74;-18.85;5.92;5.0;979.02;45.332;35.957973;-83.922646;;NaN;;;1612.9032;;0 / 17;9008;2022-10-25 20:52:37:595
-2.4706;2.9459;7.946;-0.8255;2.6525;9.4049;-1.159;-1.384;-2.7651;0.04;0.4873;-0.7122;1.0;6.06;11.36;-38.48;342.5;-17.53;3.61;5.0;979.01;41.547;35.957973;-83.922646;;NaN;;;1612.9032;;0 / 17;9509;2022-10-25 20:52:38:096
3.1149;2.333;8.4811;-0.4005;2.3794;9.5052;0.3802;-0.9651;-2.3932;0.2323;-0.5862;1.3828;1.0;-3.81;10.76;-33.32;26.47;-11.03;7.79;5.0;979.0;43.36;35.957973;-83.922646;;NaN;;;1612.9032;;0 / 17;10008;2022-10-25 20:52:38:595
-1.6292;2.6898;6.5037;-2.7429;3.0652;8.9023;-1.5135;-2.3939;4.3441;-0.0663;2.4443;0.1771;1.0;-4.01;10.5;-35.27;31.31;-12.59;13.76;5.0;978.98;61.033;35.957973;-83.922646;;NaN;;;1612.9032;;0 / 17;10509;2022-10-25 20:52:39:096
-4.3178;2.2983;7.2482;-4.9343;2.5155;8.0929;-2.3305;-1.1016;-2.3103;-0.3283;-0.0159;1.547;1.0;-3.88;5.61;-43.27;60.36;-14.86;31.37;5.0;978.97;45.19;35.957973;-83.922646;;NaN;;;1612.9032;;0 / 17;11008;2022-10-25 20:52:39:595
-4.0567;0.2142;6.9894;-4.1939;0.1348;8.8636;0.3434;-0.9991;-0.2952;0.3493;-0.4236;-1.0653;1.0;-6.21;23.04;-49.91;45.18;-14.97;33.17;5.0;978.94;46.916;35.957973;-83.922646;;NaN;;;1612.9032;;0 / 17;11508;2022-10-25 20:52:40:095
-0.2357;-0.1747;11.1027;-0.4698;1.6091;9.6623;-2.4313;-1.9642;2.0913;0.2259;0.4044;0.399;1.0;-42.97;18.66;-34.76;61.61;-9.44;2.78;5.0;978.93;46.106;35.957973;-83.922646;;NaN;;;1612.9032;;0 / 17;12008;2022-10-25 20:52:40:595
-3.5862;0.2345;11.6856;-1.9943;0.3199;9.5964;-1.9424;0.163;3.019;-0.9316;-0.9397;-0.6403;2.0;-30.02;25.24;-30.82;53.68;-9.96;18.27;5.0;978.88;40.547;35.957973;-83.922646;;NaN;;;1612.9032;;0 / 17;12509;2022-10-25 20:52:41:096
-5.5567;3.1101;7.617;-3.4434;2.5736;8.8142;1.3772;-1.082;0.3159;-1.4631;0.6512;-0.3144;3.0;-2.01;18.41;-36.45;29.94;-15.21;21.34;5.0;978.87;36.642;35.957973;-83.922646;;NaN;;;1612.9032;;0 / 17;13008;2022-10-25 20:52:41:595
-3.0607;3.2142;8.6713;-3.9496;2.9094;8.4916;0.3713;-1.2836;-2.5985;0.3408;0.0744;-0.2085;4.0;5.61;3.81;-47.81;40.97;-15.99;24.43;5.0;978.86;41.416;35.957973;-83.922646;;NaN;;;1612.9032;;0 / 17;13511;2022-10-25 20:52:42:098
-1.6555;1.5132;7.1716;-2.017;2.2506;9.3293;1.9146;-0.6225;-0.5564;0.7276;-0.1644;-1.2852;4.0;-11.12;-10.76;-48.86;97.65;-10.13;11.82;5.0;978.87;38.379;35.957973;-83.922646;;NaN;;;1612.9032;;0 / 17;14008;2022-10-25 20:52:42:595
-3.1771;2.1344;13.3005;-4.1887;1.8525;8.6714;2.3526;3.3457;4.7962;-0.4598;0.7371;-0.3015;7.0;-15.26;-27.41;-40.01;125.02;-11.91;20.88;5.0;978.86;33.072;35.957973;-83.922646;;NaN;;;1612.9032;;0 / 17;14508;2022-10-25 20:52:43:095
-1.9693;1.051;12.7068;-3.1961;2.7288;8.8605;0.625;1.4124;-0.1201;0.1171;-1.8664;-1.3682;4.0;3.41;-35.04;-30.19;152.76;-20.75;28.73;5.0;978.86;33.258;35.957973;-83.922646;;NaN;;;1612.9032;;0 / 17;15008;2022-10-25 20:52:43:595
-4.7907;3.3266;11.1841;-4.1644;1.5509;8.742;-1.0251;0.7884;1.0346;1.1011;-0.6873;-1.1385;4.0;7.97;-38.68;-22.76;178.53;-10.44;21.23;5.0;978.86;42.041;35.957973;-83.922646;;NaN;;;1612.9032;;0 / 17;15509;2022-10-25 20:52:44:096
-1.847;0.8752;7.3056;-3.4836;0.6967;9.1406;0.2297;-0.9814;-0.48;0.2795;-0.6967;-1.4111;5.0;23.01;-34.67;-15.56;203.62;-9.39;26.74;5.0;978.87;39.388;35.957973;-83.922646;;NaN;;;1612.9032;;0 / 17;16009;2022-10-25 20:52:44:596
-0.8354;0.0215;11.1171;-1.5855;-0.0505;9.6775;-0.3334;0.307;-0.0603;-0.1311;-0.2347;-0.0023;4.0;30.47;-20.4;-18.19;233.32;1.01;7.59;5.0;978.89;35.108;35.957973;-83.922646;;NaN;;;1612.9032;;0 / 17;16508;2022-10-25 20:52:45:095
-3.4235;0.4155;5.3172;-4.0341;0.4327;8.928;0.6357;-0.3407;-4.1597;-0.1531;0.2398;0.2001;3.0;32.74;-7.52;-21.21;253.0;-2.53;24.32;5.0;978.82;43.797;35.957973;-83.922646;;NaN;;;1612.9032;;0 / 17;17008;2022-10-25 20:52:45:595
0.5913;0.571;4.1285;-2.3711;1.1013;9.4517;4.2927;-0.6929;-4.9175;0.3644;-0.045;-0.771;2.0;40.39;-5.96;-19.39;256.09;4.11;16.82;5.0;978.76;60.445;35.957973;-83.922646;;NaN;;;1612.9032;;0 / 17;17508;2022-10-25 20:52:46:095
-1.6328;3.8689;17.2807;-1.8551;1.662;9.4851;0.1565;0.7876;-4.2187;-0.1093;0.1262;-0.427;0.0;36.19;-11.25;-33.71;262.07;-9.76;11.07;5.0;978.79;39.164;35.957973;-83.922646;;NaN;;;1612.9032;;0 / 17;18009;2022-10-25 20:52:46:596
-2.0124;0.0861;6.8686;-0.2179;2.5102;9.4774;-2.7367;-3.7284;-1.016;0.458;0.9973;0.1966;0.0;26.18;-5.49;-38.08;274.72;-12.22;-6.47;5.0;978.76;46.417;35.957973;-83.922646;;NaN;;;1612.9032;;0 / 17;18509;2022-10-25 20:52:47:096
2.3031;-3.044;19.7931;0.7591;1.6128;9.6433;-1.782;3.7481;-0.5578;0.4372;-0.6358;1.1918;1.0;24.28;-2.68;-39.88;276.93;-9.47;-4.5;5.0;978.8;35.015;35.957973;-83.922646;;NaN;;;1612.9032;;0 / 17;19008;2022-10-25 20:52:47:595
-1.9693;3.9108;7.1273;-1.0998;2.5737;9.3988;0.3525;-0.4012;-1.5789;0.3357;0.2876;-0.7022;1.0;23.85;7.93;-42.3;308.38;-12.65;2.96;5.0;978.73;40.358;35.957973;-83.922646;;NaN;;;1612.9032;;0 / 17;19508;2022-10-25 20:52:48:095
-0.7241;2.2923;5.5962;-2.4005;4.1405;8.5595;1.941;-2.7061;-1.605;1.0061;0.2373;-0.33;1.0;42.77;18.09;-41.72;315.34;-18.84;12.51;5.0;978.69;43.317;35.957973;-83.922646;;NaN;;;1612.9032;;0 / 17;20008;2022-10-25 20:52:48:595
-0.1077;4.1118;8.2358;0.0759;4.4542;8.7364;-0.6664;-1.0689;0.5529;0.3679;-0.5872;-0.4752;2.0;56.66;18.24;-51.88;305.06;-24.8;1.75;5.0;978.71;32.662;35.957973;-83.922646;;NaN;;;1612.9032;;0 / 17;20509;2022-10-25 20:52:49:096
1.1982;4.5894;10.0229;-0.6485;2.9357;9.3344;0.7247;0.8492;0.2153;-0.651;0.5148;-0.3952;4.0;39.26;5.01;-53.81;301.05;-20.5;-0.14;5.0;978.71;37.661;35.957973;-83.922646;;NaN;;;1612.9032;;0 / 17;21008;2022-10-25 20:52:49:595
1.6651;3.2608;5.7852;-0.2353;4.377;8.7725;1.9772;-0.8598;-0.0155;-0.2407;-0.8577;-0.9541;6.0;5.51;-2.55;-24.28;314.28;-21.16;4.59;5.0;978.69;38.071;35.957973;-83.922646;;NaN;;;1612.9032;;0 / 17;21508;2022-10-25 20:52:50:095
-1.1121;1.7572;12.2423;1.8662;1.5039;9.5093;-1.0448;0.9752;-1.8533;-1.3978;-0.2656;-1.4634;5.0;-3.71;-14.74;-13.5;175.2;-16.37;-12.54;5.0;978.73;34.213;35.957973;-83.922646;;NaN;;;1612.9032;;0 / 17;22008;2022-10-25 20:52:50:595
1.1982;2.2792;6.993;-0.0552;3.3364;9.2215;1.1658;-1.5034;-3.1837;-0.1135;-0.4284;-0.9089;6.0;7.91;-17.1;-7.42;209.45;-15.57;-1.9;5.0;978.71;38.482;35.957973;-83.922646;;NaN;;;1612.9032;;0 / 17;22509;2022-10-25 20:52:51:096
-1.9618;0.6428;12.2662;1.0895;0.8886;9.7054;-1.9578;-0.1214;-2.837;-0.9407;-0.7736;-1.7154;8.0;1.88;-4.93;2.21;198.81;-5.2;-6.41;5.0;978.7;36.971;35.957973;-83.922646;;NaN;;;1612.9032;;0 / 17;23008;2022-10-25 20:52:51:595
0.2584;3.8055;8.5505;-0.8452;3.5636;9.0971;1.0787;-0.1296;-0.9465;0.9922;-1.0911;-0.014;3.0;-6.6;-9.37;12.36;158.87;-14.82;10.68;5.0;978.74;40.034;35.957973;-83.922646;;NaN;;;1612.9032;;0 / 17;23509;2022-10-25 20:52:52:096
0.5806;1.0104;8.1915;0.2504;0.8049;9.7704;1.878;-1.1127;-0.6636;-0.0638;-0.0471;-1.0115;1.0;-6.58;-22.46;10.13;162.3;-4.71;-1.47;5.0;978.66;46.738;35.95848;-83.92434;753.23;NaN;;;250.32257;;0 / 17;24008;2022-10-25 20:52:52:595
2.5161;0.6165;22.3502;0.9721;1.2425;9.6789;-1.9483;2.5777;1.2743;-0.3619;-1.413;0.8928;1.0;2.87;-26.32;-0.54;186.42;-11.54;7.92;5.0;978.7;39.127;35.95848;-83.92434;753.23;NaN;;;250.32257;;0 / 17;24508;2022-10-25 20:52:53:095
-1.331;0.6392;8.2908;-1.758;2.7681;9.2422;-0.6412;-2.9256;-4.2978;0.3425;0.1151;1.1096;1.0;8.51;-13.44;-7.41;216.84;-16.4;10.77;5.0;978.63;40.091;35.95848;-83.92434;753.23;NaN;;;250.32257;;0 / 17;25008;2022-10-25 20:52:53:595
-0.1986;-0.9326;7.7402;-0.7787;-1.0019;9.7242;1.7543;2.3116;-2.0224;0.0776;0.376;-0.3789;1.0;14.42;-5.85;-6.19;243.64;7.41;2.49;5.0;978.57;44.755;35.95848;-83.92434;753.23;NaN;;;250.32257;;0 / 17;25509;2022-10-25 20:52:54:096
3.8821;0.4585;17.3848;1.8091;1.6315;9.4992;0.5503;1.6678;6.0325;-1.279;-1.8855;0.2166;2.0;1.63;-8.12;-1.44;194.62;-16.06;4.09;5.0;978.61;53.894;35.95848;-83.92434;753.23;NaN;;;250.32257;;0 / 17;26009;2022-10-25 20:52:54:596
2.4024;3.9993;6.3849;2.2372;3.6611;8.8183;-2.5652;-1.6646;-2.3805;0.6941;0.3406;0.3195;1.0;-12.28;-15.58;1.14;141.16;-16.61;-15.45;5.0;978.54;49.535;35.95848;-83.92434;753.23;NaN;;;250.32257;;0 / 17;26508;2022-10-25 20:52:55:095
4.2015;1.2353;6.6867;2.8549;1.3134;9.2895;4.2236;1.1886;-4.2082;-0.9194;0.3724;-0.8521;1.0;-26.74;-23.64;6.54;129.94;-10.28;-17.98;5.0;978.5;44.683;35.95848;-83.92434;753.23;NaN;;;250.32257;;0 / 17;27008;2022-10-25 20:52:55:595
5.8439;10.4157;18.4861;2.631;4.0232;8.5477;-0.1664;-0.8104;-1.7328;-0.0911;0.5245;0.9938;1.0;-26.68;-20.33;-0.77;118.26;-26.01;-20.63;5.0;978.54;40.307;35.95848;-83.92434;753.23;NaN;;;250.32257;;0 / 17;27508;2022-10-25 20:52:56:095
1.4043;4.6337;4.532;1.6933;5.4211;7.9947;0.2414;-1.4826;-2.6071;0.6651;-0.5331;-0.5983;2.0;-5.38;-11.76;-27.82;350.95;-33.56;-11.96;5.0;978.44;40.963;35.95848;-83.92434;753.23;NaN;;;250.32257;;0 / 17;28009;2022-10-25 20:52:56:596
2.7879;2.0877;7.5846;2.0699;4.4739;8.4776;0.6533;0.3071;1.3019;0.068;-0.9018;-1.4873;4.0;-2.59;-12.99;-31.72;338.79;-27.59;-7.67;5.0;978.46;43.775;35.95848;-83.92434;753.23;NaN;;;250.32257;;0 / 17;28508;2022-10-25 20:52:57:095
4.5918;3.268;9.1801;1.8427;4.7594;8.374;1.781;0.8916;1.5293;0.7594;-0.9054;0.1049;12.0;-12.22;-10.8;-25.74;57.16;-29.03;-12.41;5.0;978.47;39.214;35.95848;-83.92434;753.23;NaN;;;250.32257;;0 / 17;29008;2022-10-25 20:52:57:595
7.6337;6.3957;6.518;5.3735;5.223;6.3258;-0.729;0.0304;0.5128;-0.5885;-1.7282;-0.0166;9.0;-18.39;-22.12;-17.78;111.88;-37.14;-29.55;5.0;978.47;38.858;35.95848;-83.92434;753.23;NaN;;;250.32257;;0 / 17;29508;2022-10-25 20:52:58:095
1.89;4.1453;9.5154;1.8658;4.1796;8.6729;0.1931;0.1844;0.8476;0.3978;0.7366;-0.2431;8.0;4.56;-37.52;-4.91;190.28;-25.23;-12.14;5.0;978.48;37.762;35.95848;-83.92434;753.23;NaN;;;250.32257;;0 / 17;30009;2022-10-25 20:52:58:596
1.4127;4.6361;10.8811;0.9174;4.0505;8.8838;0.5798;0.85;0.1178;0.0778;-0.7013;-0.4009;16.0;36.17;-37.01;-4.07;227.95;-24.46;-2.13;5.0;978.47;31.358;35.95848;-83.92434;753.23;NaN;;;250.32257;;0 / 17;30508;2022-10-25 20:52:59:095
3.3613;3.7899;9.1753;3.107;2.5535;8.9441;-0.2476;-1.0717;-0.7609;-0.1264;-0.6331;-0.8877;5.0;45.86;-30.19;-7.09;235.73;-15.09;-19.16;5.0;978.49;38.078;35.95848;-83.92434;753.23;NaN;;;250.32257;;0 / 17;31008;2022-10-25 20:52:59:595
1.3525;1.9825;5.546;1.2804;5.0642;8.2997;1.7787;-2.1857;-0.0832;1.0089;1.1303;-0.2788;1.0;46.31;-17.14;-16.87;253.44;-23.41;-17.22;5.0;978.41;43.183;35.95848;-83.92434;753.23;NaN;;;250.32257;;0 / 17;31508;2022-10-25 20:53:00:095
-0.0502;1.829;8.8965;2.0777;1.0681;9.5243;-1.3746;1.1468;-2.3637;-0.7978;-0.4239;-1.2041;0.0;39.13;-13.48;-12.36;253.5;-9.64;-10.23;5.0;978.4;42.339;35.95848;-83.92434;753.23;NaN;;;250.32257;;0 / 17;32009;2022-10-25 20:53:00:596
1.555;-1.4809;6.9559;-0.2823;2.8404;9.3821;3.8582;-3.2532;0.5443;1.1494;1.9291;0.0394;2.0;33.9;-0.22;-20.19;272.2;-6.65;-12.13;5.0;978.35;47.826;35.95848;-83.92434;753.23;NaN;;;250.32257;;0 / 17;32508;2022-10-25 20:53:01:095
0.3461;0.0981;12.9365;3.7432;-1.6946;8.9044;-3.0434;2.1108;3.9307;-0.6525;-0.0418;-0.8197;2.0;33.26;4.31;-11.74;276.33;10.19;-19.58;5.0;978.36;46.277;35.95848;-83.92434;753.23;NaN;;;250.32257;;0 / 17;33008;2022-10-25 20:53:01:595
1.1492;-2.1894;5.8128;-0.1435;2.1884;9.5583;3.903;-6.6173;3.4713;1.8671;1.2574;1.3245;3.0;24.94;13.78;-13.63;294.81;8.34;-8.14;5.0;978.3;56.227;35.95848;-83.92434;753.23;NaN;;;250.32257;;0 / 17;33509;2022-10-25 20:53:02:096
2.6838;-0.6823;10.1438;4.2805;-1.6347;8.6704;-0.1487;0.6307;2.9108;-1.1156;-0.8968;-1.7529;2.0;21.98;8.14;-7.42;288.96;5.9;-17.01;5.0;978.36;48.951;35.95848;-83.92434;753.23;NaN;;;250.32257;;0 / 17;34008;2022-10-25 20:53:02:595
6.0583;-3.0775;9.7152;2.3724;-0.0636;9.5152;-1.6103;-2.7494;4.5204;3.2849;0.9327;1.0008;3.0;13.5;12.41;-7.14;306.88;9.93;-24.85;5.0;978.29;48.918;35.95848;-83.92434;753.23;NaN;;;250.32257;;0 / 17;34508;2022-10-25 20:53:03:095
6.2964;-5.2693;8.9527;6.6946;-2.4423;6.737;2.7365;-1.6763;2.5143;-3.6376;-1.3804;-2.3636;3.0;0.73;4.91;-13.01;285.41;14.42;-44.82;5.0;978.32;56.129;35.95848;-83.92434;753.23;NaN;;;250.32257;;0 / 17;35009;2022-10-25 20:53:03:596
8.814;-6.5444;9.4077;4.0786;-2.4794;8.5667;3.2937;-4.5536;2.4301;2.5982;0.9601;2.2923;4.0;-3.66;14.31;-3.99;1.9;20.51;-41.26;5.0;978.27;43.209;35.95848;-83.92434;753.23;NaN;;;250.32257;;0 / 17;35508;2022-10-25 20:53:04:095
4.3657;-1.5826;8.4643;3.1686;-3.3197;8.6666;1.82;1.1112;-3.564;-0.3616;-0.3173;-0.278;7.0;8.21;9.34;-19.61;281.94;19.79;-20.08;5.0;978.28;40.065;35.95848;-83.92434;753.23;NaN;;;250.32257;;0 / 17;36008;2022-10-25 20:53:04:595
5.0264;0.1519;9.8351;5.0824;-1.2026;8.3002;-0.8734;2.0197;-1.9598;0.4548;-1.5645;-1.4826;10.0;12.28;13.48;-26.25;289.65;15.06;-22.29;5.0;978.27;36.941;35.95848;-83.92434;753.23;NaN;;;250.32257;;0 / 17;36509;2022-10-25 20:53:05:096
2.4646;-1.1803;7.9077;4.1235;-0.3025;8.8924;1.8123;-2.0619;-3.8574;0.7883;2.0177;-0.1358;12.0;13.11;6.96;-33.02;283.66;1.77;-24.88;5.0;978.23;42.184;35.95848;-83.92434;753.23;NaN;;;250.32257;;0 / 17;37008;2022-10-25 20:53:05:595
4.2843;2.3821;6.2067;2.9483;3.1228;8.8163;1.4427;-2.1279;5.7576;1.3318;-0.4587;-0.2902;12.0;26.34;-1.41;-33.11;276.98;-10.6;-12.03;5.0;978.2;37.807;35.95848;-83.92434;753.23;NaN;;;250.32257;;0 / 17;37508;2022-10-25 20:53:06:095
3.8378;2.5606;6.0344;2.8681;3.3867;8.745;0.8521;-1.318;0.0433;0.698;-0.2978;-0.6367;13.0;25.99;-2.61;-30.19;273.86;-14.03;-16.59;5.0;978.27;39.103;35.95848;-83.92434;753.23;NaN;;;250.32257;;0 / 17;38008;2022-10-25 20:53:06:595
6.7083;0.9781;14.7691;4.8545;1.634;8.3627;0.4063;-0.9413;3.5651;-1.1495;-1.8662;-0.8156;13.0;18.84;-0.04;-27.77;281.45;-16.9;-20.97;5.0;978.25;34.728;35.95848;-83.92434;753.23;NaN;;;250.32257;;0 / 17;38509;2022-10-25 20:53:07:096
5.6668;2.3342;7.6421;5.0936;0.4325;8.3689;-0.6899;1.2398;1.3739;0.1867;-0.3354;0.3114;1.0;0.92;3.19;-26.57;289.78;-5.36;-29.74;5.0;978.25;35.59;35.95848;-83.92434;753.23;NaN;;;250.32257;;0 / 17;39009;2022-10-25 20:53:07:596
4.1596;3.3996;10.261;3.4143;2.631;8.8086;-0.2065;-0.7005;-3.7401;0.5939;0.4403;-0.7544;1.0;-2.57;-0.04;-29.72;299.87;-11.7;-25.16;5.0;978.23;44.552;35.95848;-83.92434;753.23;NaN;;;250.32257;;0 / 17;39508;2022-10-25 20:53:08:095
0.5351;2.7353;6.4678;2.2433;2.9161;9.0903;2.5259;-0.9064;-4.0472;0.1213;0.183;-0.5445;0.0;12.09;-16.2;-37.57;256.04;-17.3;-13.86;5.0;978.16;50.973;35.95848;-83.92434;753.23;NaN;;;250.32257;;0 / 17;40008;2022-10-25 20:53:08:595
2.9231;1.0152;10.6561;0.4435;2.188;9.5492;0.0095;1.8478;4.4346;0.1502;-0.6209;0.7048;0.0;12.09;-13.2;-36.69;273.69;-22.51;-9.79;5.0;978.14;46.929;35.95848;-83.92434;753.23;NaN;;;250.32257;;0 / 17;40509;2022-10-25 20:53:09:096
1.6436;5.4;14.3707;-0.4365;3.7744;9.0407;0.9629;-0.3525;-1.2685;0.2433;0.6441;0.221;1.0;3.15;-7.65;-34.84;347.94;-22.64;2.76;5.0;978.11;41.607;35.95848;-83.92434;753.23;NaN;;;250.32257;;0 / 17;41008;2022-10-25 20:53:09:595
0.6224;2.2588;6.4558;-0.2434;3.3968;9.1963;0.338;-1.5118;-0.8012;0.2882;-0.2516;-0.6373;1.0;0.88;-12.15;-33.06;177.37;-18.42;1.81;5.0;978.08;46.121;35.95848;-83.92434;753.23;NaN;;;250.32257;;0 / 17;41508;2022-10-25 20:53:10:095
1.3478;0.9505;7.9878;1.7588;3.8328;8.8536;-1.2877;-1.8174;3.0876;-0.3026;0.239;-0.8955;1.0;-1.86;-16.58;-34.2;242.17;-23.01;-11.24;5.0;978.07;41.472;35.95848;-83.92434;753.23;NaN;;;250.32257;;0 / 17;42008;2022-10-25 20:53:10:595
-2.1978;5.729;8.4595;-0.5629;4.0862;8.897;-0.941;0.1007;-1.1584;5.0E-4;0.6671;0.1296;1.0;4.31;-10.89;-42.94;332.86;-23.87;0.31;5.0;978.06;35.909;35.95848;-83.92434;753.23;NaN;;;250.32257;;0 / 17;42509;2022-10-25 20:53:11:096
2.6934;1.8398;6.2115;1.0693;3.6184;9.0518;3.9223;-1.1889;-1.6079;-0.4134;-0.8359;-0.9346;1.0;7.46;-7.73;-44.34;304.69;-21.65;-6.74;5.0;978.03;40.851;35.95848;-83.92434;753.23;NaN;;;250.32257;;0 / 17;43008;2022-10-25 20:53:11:595
1.2772;2.6504;14.0569;1.0472;1.9114;9.5614;-2.5742;1.2213;2.8208;0.1716;0.2052;-0.2095;3.0;2.01;-3.68;-43.95;293.38;-10.75;-9.82;5.0;978.04;39.91;35.95848;-83.92434;753.23;NaN;;;250.32257;;0 / 17;43508;2022-10-25 20:53:12:095
-1.5778;4.4471;14.7799;0.4647;4.3253;8.789;-0.183;1.2575;2.3117;-0.1653;-0.5608;-0.4713;7.0;11.27;-9.84;-29.46;285.8;-26.17;-3.03;5.0;978.02;42.962;35.95848;-83.92434;753.23;NaN;;;250.32257;;0 / 17;44008;2022-10-25 20:53:12:595
5.0527;1.5622;7.3654;3.7945;2.5174;8.6853;0.7512;-1.8797;-1.8092;0.3454;-1.1757;-0.9076;6.0;-0.24;-11.53;-25.97;228.62;-11.35;-17.5;5.0;978.03;48.514;35.95848;-83.92434;753.23;NaN;;;250.32257;;0 / 17;44509;2022-10-25 20:53:13:096
7.5221;3.778;13.3472;2.7175;3.1152;8.8928;-0.348;0.9181;4.8919;0.8116;0.6028;1.2869;7.0;-5.31;-24.15;-25.91;191.88;-14.3;-18.55;5.0;978.01;37.935;35.95848;-83.92434;753.23;NaN;;;250.32257;;0 / 17;45009;2022-10-25 20:53:13:596
2.0961;3.7014;7.9268;1.965;3.9847;8.7425;0.7105;0.7186;-2.3043;-0.0137;-1.3932;-0.7523;10.0;5.25;-32.85;-22.93;201.32;-26.2;-6.89;5.0;977.98;41.086;35.95848;-83.92434;753.23;NaN;;;250.32257;;0 / 17;45508;2022-10-25 20:53:14:095
1.3238;2.6001;11.8819;3.6557;1.8491;8.9099;-2.5309;0.5804;0.1781;-0.6799;-0.8228;-0.8575;5.0;17.76;-27.11;-29.79;231.17;-10.87;-22.31;5.0;977.97;40.521;35.95848;-83.92434;753.23;NaN;;;250.32257;;0 / 17;46008;2022-10-25 20:53:14:595
2.4179;3.3147;7.873;2.2037;3.3385;8.9537;1.2901;-2.6311;-1.5973;0.5574;0.3791;-0.0499;2.0;17.23;-14.96;-39.94;256.87;-13.92;-19.84;5.0;977.96;51.777;35.95848;-83.92434;753.23;NaN;;;250.32257;;0 / 17;46508;2022-10-25 20:53:15:095
1.3382;1.6412;3.9359;1.884;4.6604;8.4203;4.0595;-3.27;-3.6522;1.5029;-0.148;-0.0193;1.0;17.57;-26.08;-31.61;248.03;-28.37;-12.61;5.0;977.87;44.054;35.95848;-83.92434;753.23;NaN;;;250.32257;;0 / 17;47008;2022-10-25 20:53:15:595
2.5244;6.2952;14.2723;2.2071;3.3261;8.9575;-0.2409;2.5788;5.8618;0.4465;-1.5877;0.9236;0.0;16.29;-25.57;-29.49;228.76;-19.75;-1.89;5.0;977.91;48.345;35.95848;-83.92434;753.23;NaN;;;250.32257;;0 / 17;47508;2022-10-25 20:53:16:095
0.2752;3.256;5.8439;-0.6655;3.9891;8.9339;0.4936;-2.2624;-2.1317;-0.5967;0.1531;-0.5811;1.0;6.62;-24.24;-23.62;203.46;-24.0;4.26;5.0;977.83;42.726;35.958344;-83.92433;778.71;NaN;;;180.96774;;0 / 17;48008;2022-10-25 20:53:16:595
4.5918;-0.3975;9.702;2.3659;4.1445;8.5671;0.5128;-5.8265;0.3824;-1.4729;-0.0135;-0.525;0.0;5.49;-20.68;-15.58;226.33;-34.56;-20.22;5.0;977.84;43.312;35.958344;-83.92433;778.71;NaN;;;180.96774;;0 / 17;48508;2022-10-25 20:53:17:095
1.7249;6.9882;9.1059;1.4634;4.3644;8.6591;0.2722;-0.5305;-2.456;-0.121;-0.0698;-0.8957;1.0;-8.27;-16.89;-6.11;150.14;-26.43;-9.59;5.0;977.81;41.54;35.958344;-83.92433;778.71;NaN;;;180.96774;;0 / 17;49008;2022-10-25 20:53:17:595
1.6448;-1.3167;6.8088;-0.818;0.8132;9.7386;-0.5435;-1.527;-2.4978;-2.0404;3.0755;0.1468;1.0;-4.52;-22.29;-4.07;167.93;-11.08;-7.6;5.0;977.81;44.645;35.958344;-83.92433;778.71;NaN;;;180.96774;;0 / 17;49509;2022-10-25 20:53:18:096
-5.9889;3.2847;11.3743;-1.6131;3.7565;8.9139;-3.3715;-1.6711;0.7765;1.7066;1.2648;0.3284;5.0;14.34;-14.77;-13.2;228.95;-16.88;10.63;5.0;977.78;60.277;35.958344;-83.92433;778.71;NaN;;;180.96774;;0 / 17;50008;2022-10-25 20:53:18:595
-0.7265;2.2205;5.2705;-2.833;3.4242;8.7418;2.6452;-1.3863;-1.3817;0.5637;-0.1907;-0.515;4.0;32.27;-30.34;-9.88;231.69;-19.75;17.28;5.0;977.73;47.636;35.958344;-83.92433;778.71;NaN;;;180.96774;;0 / 17;50508;2022-10-25 20:53:19:095
-4.9678;6.2964;6.2964;-4.2492;4.7482;7.4544;2.3249;1.0406;2.534;0.3524;0.4004;-0.554;4.0;54.81;-37.48;-0.47;247.31;-31.01;21.3;5.0;977.74;60.508;35.958344;-83.92433;778.71;NaN;;;180.96774;;0 / 17;51008;2022-10-25 20:53:19:595
-2.0674;4.1297;7.497;-3.4818;4.7166;7.8613;0.0186;0.1476;-0.2647;0.1096;-1.5353;-0.5754;3.0;65.44;-32.57;15.28;257.16;-33.55;34.19;5.0;977.73;45.468;35.958344;-83.92433;778.71;NaN;;;180.96774;;0 / 17;51508;2022-10-25 20:53:20:095
-0.839;4.0388;7.9759;-0.9354;4.0107;8.9;-0.0316;0.3062;-1.0589;0.0683;-0.2501;-0.8501;8.0;61.91;-15.17;-16.48;265.68;-24.14;6.0;5.0;977.73;45.951;35.958344;-83.92433;778.71;NaN;;;180.96774;;0 / 17;52009;2022-10-25 20:53:20:596
-0.376;4.4255;7.0699;-1.3101;4.0742;8.8235;1.8556;-0.1024;1.4065;0.5249;-0.4069;-0.6122;14.0;43.01;-1.24;-26.04;284.69;-25.73;8.29;5.0;977.72;41.307;35.958344;-83.92433;778.71;NaN;;;180.96774;;0 / 17;52508;2022-10-25 20:53:21:095
-0.3413;3.8892;8.0632;-0.7317;3.8594;8.9856;0.2282;-0.8899;0.1318;0.2734;-0.2681;-0.531;3.0;24.04;1.11;-25.05;297.7;-23.18;4.66;5.0;977.73;44.161;35.958344;-83.92433;778.71;NaN;;;180.96774;;0 / 17;53009;2022-10-25 20:53:21:596
-2.0794;1.5646;9.1382;-1.3489;3.3423;9.1203;-0.5811;-1.3995;0.337;0.0314;0.0825;-0.0661;1.0;15.58;-2.06;-20.49;295.57;-20.76;9.18;5.0;977.73;38.294;35.958344;-83.92433;778.71;NaN;;;180.96774;;0 / 17;53509;2022-10-25 20:53:22:096
-0.5542;3.2776;10.0229;-1.4031;3.3589;9.106;-0.2895;0.5373;1.5659;0.0546;-0.3035;0.1428;1.0;19.97;-3.34;-14.94;280.7;-20.03;8.76;5.0;977.73;37.561;35.958344;-83.92433;778.71;NaN;;;180.96774;;0 / 17;54008;2022-10-25 20:53:22:595
0.7265;4.7871;9.8267;-0.6578;3.6646;9.0724;-0.2151;-0.4516;0.3747;0.1739;0.1598;-0.0567;0.0;21.71;-4.39;-14.87;275.04;-19.44;4.84;5.0;977.69;44.038;35.958344;-83.92433;778.71;NaN;;;180.96774;;0 / 17;54508;2022-10-25 20:53:23:095
-1.1228;3.2656;8.0321;-0.6353;3.665;9.0738;0.0478;-0.7213;-1.8566;-0.284;0.414;0.0376;0.0;18.47;-5.32;-13.91;273.54;-21.95;4.0;5.0;977.63;49.594;35.958344;-83.92433;778.71;NaN;;;180.96774;;0 / 17;55008;2022-10-25 20:53:23:595
-0.0239;1.6675;8.8367;-0.9717;3.3709;9.1577;0.0638;-1.7894;1.2893;0.3675;0.0564;-0.0487;0.0;16.29;-6.02;-10.03;263.91;-20.61;5.17;5.0;977.65;45.932;35.958344;-83.92433;778.71;NaN;;;180.96774;;0 / 17;55508;2022-10-25 20:53:24:095
-0.5495;1.4557;10.2885;-0.8844;2.8283;9.3482;-0.0702;0.7942;1.4909;-0.481;-0.0436;-0.0237;0.0;13.59;-10.58;-4.09;238.06;-20.33;6.31;5.0;977.66;40.07;35.958344;-83.92433;778.71;NaN;;;180.96774;;0 / 17;56008;2022-10-25 20:53:24:595
-1.9944;3.4008;9.9428;-1.5804;2.994;9.2037;-0.0381;0.2517;-1.0107;-0.0856;0.197;-0.0034;1.0;16.22;-11.12;-3.96;241.01;-18.28;9.49;5.0;977.62;42.437;35.958344;-83.92433;778.71;NaN;;;180.96774;;0 / 17;56508;2022-10-25 20:53:25:095
0.2429;2.7317;8.7805;-0.7676;2.3669;9.4857;1.0243;0.0769;-0.8191;-0.1713;-0.3987;-0.7467;1.0;22.5;-7.61;-2.46;254.02;-15.5;6.51;5.0;977.61;50.179;35.958344;-83.92433;778.71;NaN;;;180.96774;;0 / 17;57008;2022-10-25 20:53:25:595
0.5937;2.193;9.2928;0.2933;2.0663;9.582;-1.2387;-0.5737;0.3317;0.4684;0.1817;0.7259;1.0;23.38;-0.3;-5.31;272.89;-12.86;0.52;5.0;977.57;43.283;35.958344;-83.92433;778.71;NaN;;;180.96774;;0 / 17;57508;2022-10-25 20:53:26:095
0.7696;3.1316;8.3423;-0.072;3.1804;9.2763;0.5917;0.0842;0.5195;-0.6707;-0.498;-0.6102;1.0;26.36;5.53;-7.42;287.16;-18.92;0.44;5.0;977.58;40.01;35.958344;-83.92433;778.71;NaN;;;180.96774;;0 / 17;58008;2022-10-25 20:53:26:595
0.4753;2.8011;11.7263;0.0789;3.2128;9.2651;0.4586;0.0631;0.352;0.0507;0.1175;-0.3388;1.0;23.94;12.23;-8.23;299.49;-18.37;-1.62;5.0;977.56;37.398;35.958344;-83.92433;778.71;NaN;;;180.96774;;0 / 17;58508;2022-10-25 20:53:27:095
-1.0355;2.8107;8.5181;-0.7578;2.468;9.4607;0.1752;-0.165;-1.2841;-0.2358;0.1815;0.0686;1.0;12.47;15.98;-3.36;324.57;-14.58;4.58;5.0;977.51;45.239;35.958344;-83.92433;778.71;NaN;;;180.96774;;0 / 17;59008;2022-10-25 20:53:27:595
1.0032;-0.3712;14.307;0.0292;2.6321;9.4468;1.0196;-2.6061;5.2332;-0.8081;-0.5411;-0.2738;2.0;5.31;13.48;1.69;334.52;-12.62;1.69;5.0;977.55;44.183;35.958344;-83.92433;778.71;NaN;;;180.96774;;0 / 17;59509;2022-10-25 20:53:28:096
0.6488;4.9295;9.1849;-0.641;3.1817;9.254;2.0435;0.0854;-1.4299;-0.0452;-0.0061;-0.772;2.0;-2.53;10.05;4.99;18.81;-18.93;3.96;5.0;977.51;39.087;35.958344;-83.92433;778.71;NaN;;;180.96774;;0 / 17;60008;2022-10-25 20:53:28:595
-0.6009;2.6791;9.1825;-1.2707;3.6125;9.0281;-0.5981;-1.1922;-1.0606;0.0846;-0.1693;-0.4303;3.0;-7.05;6.36;3.54;60.33;-22.79;9.58;5.0;977.52;47.972;35.958344;-83.92433;778.71;NaN;;;180.96774;;0 / 17;60508;2022-10-25 20:53:29:095
1.3848;1.1575;10.4276;0.093;3.9002;8.9972;-0.4396;0.4094;1.1373;0.4371;-0.9286;-0.3992;4.0;-22.2;-7.16;7.52;113.31;-23.43;-0.59;5.0;977.51;42.466;35.958344;-83.92433;778.71;NaN;;;180.96774;;0 / 17;61008;2022-10-25 20:53:29:595
0.5626;2.8813;11.84;0.0913;3.3391;9.2202;0.7118;0.6816;0.4604;0.1939;-0.0176;-0.5867;5.0;-25.03;-25.09;18.84;138.57;-19.43;-3.08;5.0;977.51;40.049;35.958344;-83.92433;778.71;NaN;;;180.96774;;0 / 17;61508;2022-10-25 20:53:30:095
-0.7756;4.8625;7.2446;-1.0931;3.8829;8.9386;0.6289;0.6712;-1.8387;-0.2854;0.0155;-0.1842;7.0;-3.06;-47.89;20.18;178.54;-27.31;4.78;5.0;977.49;43.264;35.958344;-83.92433;778.71;NaN;;;180.96774;;0 / 17;62008;2022-10-25 20:53:30:595
-0.7684;2.5259;10.7806;-1.089;3.5505;9.0763;1.0623;-0.04;2.9313;-0.3878;-0.1574;-0.4985;8.0;10.86;-49.5;17.33;194.74;-26.83;9.0;5.0;977.48;43.259;35.958344;-83.92433;778.71;NaN;;;180.96774;;0 / 17;62508;2022-10-25 20:53:31:095
-1.3047;2.9088;10.5915;-1.3317;2.8441;9.2902;0.6121;0.6966;-1.4334;-0.2508;0.1526;-0.7548;7.0;36.58;-40.8;1.5;224.01;-18.74;5.5;5.0;977.5;35.158;35.958344;-83.92433;778.71;NaN;;;180.96774;;0 / 17;63009;2022-10-25 20:53:31:596
0.0766;2.5666;9.379;-0.9913;2.5068;9.4289;1.2865;-0.235;-0.4796;-0.1213;-0.5307;-1.0591;7.0;44.36;-29.08;-8.89;239.97;-14.03;8.95;5.0;977.5;36.944;35.958344;-83.92433;778.71;NaN;;;180.96774;;0 / 17;63508;2022-10-25 20:53:32:095
-2.1368;2.1272;10.0744;-1.0543;1.6428;9.6104;0.2392;1.0808;-1.1697;0.2592;-0.0886;-0.3821;3.0;46.29;-14.59;-28.28;257.72;-9.64;6.26;5.0;977.47;45.594;35.958344;-83.92433;778.71;NaN;;;180.96774;;0 / 17;64008;2022-10-25 20:53:32:595
-1.9463;0.9685;9.507;-2.6536;2.1704;9.1879;1.3185;-1.1036;-0.0511;0.7276;0.1382;0.6669;2.0;51.47;-5.06;-30.53;267.51;-4.31;13.09;5.0;977.45;41.261;35.958344;-83.92433;778.71;NaN;;;180.96774;;0 / 17;64508;2022-10-25 20:53:33:095
-1.2736;0.874;5.5759;-4.2599;2.0354;8.5954;2.096;-1.9247;-0.501;0.8002;0.3784;-0.0919;2.0;56.42;-9.67;-19.44;268.51;-11.98;26.36;5.0;977.42;45.17;35.958344;-83.92433;778.71;NaN;;;180.96774;;0 / 17;65009;2022-10-25 20:53:33:596
-4.258;1.2138;12.6541;-2.292;1.171;9.4629;-1.7442;0.663;1.0174;-0.0892;-0.2582;-0.1004;2.0;56.91;-6.81;-13.13;267.85;-9.49;18.67;5.0;977.44;39.98;35.958344;-83.92433;778.71;NaN;;;180.96774;;0 / 17;65508;2022-10-25 20:53:34:095
-3.3697;2.3713;9.1681;-3.2188;1.8515;9.0764;-0.1009;-0.0304;-0.3079;0.1494;0.3529;0.2198;1.0;46.65;-3.04;-21.49;275.75;-10.88;19.53;5.0;977.42;41.034;35.958344;-83.92433;778.71;NaN;;;180.96774;;0 / 17;66008;2022-10-25 20:53:34:595
-3.1854;1.2389;6.0643;-4.2834;1.631;8.6696;2.0161;-1.9401;-3.2812;0.0176;-0.0631;-0.6199;1.0;43.97;-1.07;-18.58;278.8;-9.15;26.22;5.0;977.36;46.211;35.958344;-83.92433;778.71;NaN;;;180.96774;;0 / 17;66508;2022-10-25 20:53:35:095
-3.4546;1.4581;7.8227;-3.123;1.3032;9.2043;-1.1047;-1.6974;1.2629;0.7957;-0.0415;0.7365;1.0;38.98;3.64;-19.16;284.58;-7.64;18.74;5.0;977.37;39.279;35.958344;-83.92433;778.71;NaN;;;180.96774;;0 / 17;67008;2022-10-25 20:53:35:595
-3.717;1.506;5.9889;-3.2005;1.1441;9.1988;1.4693;-0.325;-1.169;0.2327;-0.234;-0.5808;1.0;36.81;2.01;-19.2;279.84;-5.41;20.27;5.0;977.35;39.969;35.958344;-83.92433;778.71;NaN;;;180.96774;;0 / 17;67509;2022-10-25 20:53:36:096
0.9063;3.2333;6.9392;-0.3311;4.7003;8.6005;0.086;-2.5788;-0.8584;1.738;0.1548;1.9683;1.0;30.13;4.82;-24.38;292.79;-15.08;4.84;5.0;977.34;39.723;35.958344;-83.92433;778.71;NaN;;;180.96774;;0 / 17;68010;2022-10-25 20:53:36:597
-0.9769;2.0973;8.8427;-2.4427;1.9457;9.2961;1.2256;0.2403;5.8931;0.0121;0.503;-0.4161;1.0;32.1;-2.31;-25.84;290.24;-21.19;11.49;5.0;977.29;42.888;35.958344;-83.92433;778.71;NaN;;;180.96774;;0 / 17;68510;2022-10-25 20:53:37:097
-3.0332;2.8956;10.7471;-1.9453;3.7304;8.8584;0.2156;1.0452;2.7157;-0.3477;0.7281;-0.5379;1.0;41.34;11.12;-24.21;300.42;-24.55;7.35;5.0;977.3;42.859;35.958344;-83.92433;778.71;NaN;;;180.96774;;0 / 17;69008;2022-10-25 20:53:37:595
0.4107;3.4917;11.2343;-2.864;3.2178;8.8099;-2.1331;-1.9953;0.9154;-0.6237;-0.7847;0.0707;1.0;58.03;23.48;-22.57;309.45;-20.3;22.73;5.0;977.3;43.623;35.958344;-83.92433;778.71;NaN;;;180.96774;;0 / 17;69509;2022-10-25 20:53:38:096
-4.847;3.4044;5.5735;-2.197;2.2993;9.2767;0.1331;0.2635;-2.4702;-0.2317;-0.1355;0.7877;3.0;68.93;6.11;-32.36;285.75;-13.56;13.32;5.0;977.25;41.281;35.958344;-83.92433;778.71;NaN;;;180.96774;;0 / 17;70009;2022-10-25 20:53:38:596
-2.6408;1.1815;9.7211;-2.2376;2.5685;9.196;-0.3445;-0.2783;-2.2632;0.72;0.242;0.1412;4.0;66.64;-5.87;-37.01;272.6;-9.63;12.73;5.0;977.25;45.577;35.958344;-83.92433;778.71;NaN;;;180.96774;;0 / 17;70508;2022-10-25 20:53:39:095
-0.2405;-0.0491;11.4485;-3.0697;2.0985;9.0743;1.8239;0.8028;-1.8967;-1.5238;0.4025;0.8572;5.0;62.64;-18.73;-46.48;263.76;-12.36;18.69;5.0;977.27;40.009;35.958344;-83.92433;778.71;NaN;;;180.96774;;0 / 17;71008;2022-10-25 20:53:39:595
-6.1971;-0.0359;6.2246;-4.9341;1.0985;8.4035;0.2761;-0.0522;-2.1929;0.4309;0.7713;-1.7394;7.0;62.42;-9.67;-51.94;281.08;-10.78;32.95;5.0;977.3;42.86;35.958344;-83.92433;778.71;NaN;;;180.96774;;0 / 17;71508;2022-10-25 20:53:40:095
1.2293;3.0571;9.3407;-1.6422;2.8516;9.2381;1.5816;-0.8502;-2.3329;-0.3931;-1.8729;-1.8361;9.0;40.59;-20.21;-52.63;266.55;-16.9;10.08;5.0;977.22;46.618;35.958344;-83.92433;778.71;NaN;;;180.96774;;0 / 17;72008;2022-10-25 20:53:40:595
0.2058;2.5017;6.9858;0.9669;2.3952;9.4604;1.1143;-2.4207;-0.6307;-0.1833;0.7261;-0.3138;11.0;28.43;-28.28;-45.41;244.09;-15.11;-7.61;5.0;977.25;55.743;35.958344;-83.92433;778.71;NaN;;;180.96774;;0 / 17;72508;2022-10-25 20:53:41:095
-2.321;-0.8477;9.2399;-2.6989;0.1298;9.4271;0.7198;0.4874;3.7133;1.0141;0.7597;-0.4888;6.0;33.36;-9.62;-34.65;246.88;-0.76;15.98;5.0;977.25;45.732;35.958344;-83.92433;778.71;NaN;;;180.96774;;0 / 17;73009;2022-10-25 20:53:41:596
-0.3676;4.0531;9.8578;-0.9653;1.8813;9.576;-0.8187;0.4296;-1.6696;-0.4925;0.0132;-0.5414;3.0;28.13;-1.05;-31.05;280.71;-9.12;7.62;5.0;977.24;47.462;35.958344;-83.92433;778.71;NaN;;;180.96774;;0 / 17;73509;2022-10-25 20:53:42:096
0.3185;2.5953;8.517;-2.1305;2.5303;9.2319;2.4399;-0.0716;-0.825;0.3192;0.122;-0.7839;3.0;10.48;3.34;-34.93;334.69;-7.92;10.01;5.0;977.21;45.449;35.958344;-83.92433;778.71;NaN;;;180.96774;;0 / 17;74010;2022-10-25 20:53:42:597
-7.1512;1.6507;7.5616;-3.985;5.1425;7.3379;-0.6881;-6.8898;-3.1038;-1.64;1.2819;0.1776;2.0;11.31;-4.41;-36.49;9.82;-39.96;22.53;5.0;977.16;44.816;35.958344;-83.92433;778.71;NaN;;;180.96774;;0 / 17;74508;2022-10-25 20:53:43:095
-2.1631;7.1728;6.8016;-5.3283;5.4305;6.1878;3.9752;1.9162;1.1015;-1.9181;-0.2131;-1.3137;1.0;26.81;-1.88;-30.32;355.86;-36.92;39.66;5.0;977.16;47.385;35.958344;-83.92433;778.71;NaN;;;180.96774;;0 / 17;75008;2022-10-25 20:53:43:595
-3.766;5.036;6.5264;-3.4913;4.2156;8.137;0.5551;-0.1535;-0.8423;1.2566;-0.7105;-0.8631;2.0;31.41;2.93;-25.33;314.87;-22.1;26.65;5.0;977.12;44.036;35.958344;-83.92433;778.71;NaN;;;180.96774;;0 / 17;75509;2022-10-25 20:53:44:096
-6.792;2.5582;6.7382;-5.737;4.1112;6.8084;0.3173;-2.0258;-2.6694;-0.6566;0.3571;-0.184;1.0;30.0;-6.41;-32.49;349.81;-24.79;40.12;5.0;977.05;41.194;35.958344;-83.92433;778.71;NaN;;;180.96774;;0 / 17;76008;2022-10-25 20:53:44:595
-8.9958;2.9291;10.121;-7.3652;1.4732;6.305;2.3065;2.4816;0.2445;0.1303;1.6957;-0.7624;1.0;43.05;-0.19;-27.02;318.59;-20.08;41.03;5.0;977.1;38.489;35.958344;-83.92433;778.71;NaN;;;180.96774;;0 / 17;76508;2022-10-25 20:53:45:095
-2.8035;1.963;7.095;-5.0833;2.7057;7.9379;0.8194;-1.827;0.7782;1.0617;-0.8343;-0.2717;5.0;41.36;10.5;-26.14;317.93;-16.02;32.63;5.0;977.07;44.547;35.958344;-83.92433;778.71;NaN;;;180.96774;;0 / 17;77008;2022-10-25 20:53:45:595
-2.7712;5.042;9.9212;-4.1323;4.568;7.6307;0.7445;-0.2049;1.4887;0.2617;-1.9628;-0.3577;5.0;31.09;-5.55;-34.35;357.01;-29.0;41.25;5.0;977.06;39.668;35.958344;-83.92433;778.71;NaN;;;180.96774;;0 / 17;77508;2022-10-25 20:53:46:095
-5.7972;-2.1775;10.8847;-3.1202;4.9984;7.8391;-0.6925;3.0647;1.3341;0.0863;-0.7946;-0.6354;3.0;16.37;-19.33;-34.09;320.4;-30.64;21.7;5.0;977.05;43.685;35.958344;-83.92433;778.71;NaN;;;180.96774;;0 / 17;78010;2022-10-25 20:53:46:597
-1.051;1.3621;8.7182;-2.9886;1.4676;9.2241;3.1389;-1.1369;-1.3752;0.4782;0.0893;-2.0418;5.0;-9.64;-21.62;-28.78;135.8;-10.18;13.79;5.0;977.04;41.396;35.958344;-83.92433;778.71;NaN;;;180.96774;;0 / 17;78508;2022-10-25 20:53:47:095
-5.1257;2.5738;5.3112;-6.1725;2.5816;7.1698;-1.3008;-0.7134;1.1871;0.3305;-0.0783;-0.0567;6.0;15.51;-35.49;-11.17;189.74;-15.26;40.73;5.0;977.0;41.221;35.958344;-83.92433;778.71;NaN;;;180.96774;;0 / 17;79009;2022-10-25 20:53:47:596
-4.5583;4.7462;7.2577;-6.3067;3.6003;6.5905;1.3446;1.1368;-1.6716;0.2757;0.1041;-0.7284;4.0;26.74;-39.3;-5.14;209.71;-22.29;44.59;5.0;977.02;38.924;35.958344;-83.92433;778.71;NaN;;;180.96774;;0 / 17;79509;2022-10-25 20:53:48:096
-6.1205;3.9203;13.7145;-6.499;1.8502;7.107;-3.8215;0.2216;-2.5009;0.0315;0.1781;-0.5024;3.0;31.63;-35.53;10.69;224.88;-17.34;49.66;5.0;977.0;40.423;35.958344;-83.92433;778.71;NaN;;;180.96774;;0 / 17;80009;2022-10-25 20:53:48:596
-11.6557;0.0144;1.0822;-9.7807;-0.3339;-0.6303;-2.5623;-2.1296;3.1309;0.579;2.2;-1.0229;2.0;32.01;-28.71;16.41;223.54;-8.02;75.0;5.0;977.01;42.85;35.958344;-83.92433;778.71;NaN;;;180.96774;;0 / 17;80510;2022-10-25 20:53:49:097
-10.1833;-3.146;2.1763;-9.6508;-1.7139;0.3081;-4.5042;-1.2237;-0.29;0.887;-0.5333;0.7503;0.0;28.65;-16.37;20.36;224.08;9.48;90.16;5.0;976.99;43.006;35.958344;-83.92433;778.71;NaN;;;180.96774;;0 / 17;81008;2022-10-25 20:53:49:595
-15.5629;-0.3173;5.6237;-8.6919;-0.5172;4.5116;2.9203;2.0261;-1.9123;1.3062;-1.2229;0.2499;0.0;25.69;-21.37;7.95;215.81;0.01;73.25;5.0;976.94;52.286;35.958344;-83.92433;778.71;NaN;;;180.96774;;0 / 17;81508;2022-10-25 20:53:50:095
-5.0874;-0.449;-2.2241;-9.6922;0.8254;-1.2453;4.0374;-0.8687;0.2353;-0.847;1.9316;-1.9932;1.0;29.19;-14.59;4.33;181.25;-4.83;97.32;5.0;976.94;50.032;35.958344;-83.92433;778.71;NaN;;;180.96774;;0 / 17;82009;2022-10-25 20:53:50:596
-11.1565;-2.2074;-0.8043;-8.559;-4.2228;-2.2541;-7.0874;0.03;-3.7755;1.7885;0.5601;-1.0482;0.0;26.49;-9.32;13.67;201.85;11.04;107.04;5.0;976.91;49.684;35.958344;-83.92433;778.71;NaN;;;180.96774;;0 / 17;82509;2022-10-25 20:53:51:096
-8.3219;-1.1671;-3.0739;-9.696;-0.7553;-1.2597;1.6732;-0.603;1.159;0.4389;1.3252;0.8215;0.0;28.5;-3.34;0.15;144.33;4.42;97.4;5.0;976.88;47.378;35.958344;-83.92433;778.71;NaN;;;180.96774;;0 / 17;83009;2022-10-25 20:53:51:596
-7.5544;-2.9004;-1.762;-8.959;-2.0111;-3.4442;1.5325;-0.836;1.8881;-0.5885;1.8965;-0.4373;0.0;29.83;-5.46;-13.18;119.62;10.76;99.3;5.0;976.84;56.233;35.958344;-83.92433;778.71;NaN;;;180.96774;;0 / 17;83508;2022-10-25 20:53:52:095
-14.2328;-2.9315;-0.5495;-9.1496;-2.7744;-2.1811;-0.0486;2.0407;1.5783;2.5417;0.5755;0.7449;1.0;42.96;13.52;-5.59;82.83;16.43;103.41;5.0;976.86;43.961;35.958344;-83.92433;778.71;NaN;;;180.96774;;0 / 17;84008;2022-10-25 20:53:52:595
-5.7039;-4.0053;-0.0802;-8.5126;-2.6967;4.0539;1.452;-2.921;-5.2713;0.0076;-0.6541;-0.6002;2.0;45.3;16.56;-3.19;285.4;17.16;70.0;5.0;976.83;63.766;35.958344;-83.92433;778.71;NaN;;;180.96774;;0 / 17;84508;2022-10-25 20:53:53:095
-9.763;-3.5456;1.2066;-9.2577;-1.9965;2.5455;-0.0651;1.0607;-2.7166;0.406;0.993;0.0554;5.0;62.94;-0.09;-4.91;223.24;11.75;74.63;5.0;976.78;38.785;35.958344;-83.92433;778.71;NaN;;;180.96774;;0 / 17;85008;2022-10-25 20:53:53:595
-8.2346;-2.8083;-1.1515;-8.2363;-5.3123;0.3368;-1.2512;2.0641;1.1596;1.6792;0.2057;-0.6636;2.0;55.14;8.48;29.31;214.16;29.69;93.86;5.0;976.82;40.576;35.958344;-83.92433;778.71;NaN;;;180.96774;;0 / 17;85508;2022-10-25 20:53:54:095
-9.7211;-5.6716;2.7568;-9.2387;0.4982;3.2511;-0.4757;-6.4365;0.0834;2.4655;-0.963;1.2258;0.0;35.79;24.75;9.68;312.21;14.4;77.31;5.0;976.78;61.92;35.958344;-83.92433;778.71;NaN;;;180.96774;;0 / 17;86008;2022-10-25 20:53:54:595
-8.1051;2.9782;2.8645;-7.2451;2.5163;6.1112;1.5153;-1.0797;0.1932;1.6145;-0.3022;-0.8237;7.0;32.89;11.83;5.79;299.37;-12.79;43.6;5.0;976.78;51.219;35.958344;-83.92433;778.71;NaN;;;180.96774;;0 / 17;86508;2022-10-25 20:53:55:095
-4.3454;2.2086;6.853;-4.5788;2.826;8.1987;-0.597;-1.5553;2.522;0.3409;-0.8227;-0.6914;8.0;10.05;13.01;3.9;319.66;-18.02;26.57;5.0;976.77;47.382;35.958344;-83.92433;778.71;NaN;;;180.96774;;0 / 17;87008;2022-10-25 20:53:55:595
-14.4628;1.7058;7.8311;-8.132;4.2631;3.4448;-0.3395;0.6384;-2.1541;-1.929;1.065;-0.1295;4.0;-6.71;0.94;4.69;185.19;-23.49;55.98;5.0;976.75;43.669;35.958344;-83.92433;778.71;NaN;;;180.96774;;0 / 17;87509;2022-10-25 20:53:56:096
-9.987;7.6122;3.3721;-8.2485;4.7877;2.2827;-1.5303;-0.8726;3.0325;1.4056;-0.3876;2.292;3.0;-18.58;-3.45;-23.21;107.45;-29.22;74.53;5.0;976.75;54.675;35.958344;-83.92433;778.71;NaN;;;180.96774;;0 / 17;88009;2022-10-25 20:53:56:596
-3.6185;2.9758;2.3007;-6.299;5.5927;5.0214;1.1898;-2.0105;-0.3207;0.3142;-1.3981;-0.3663;3.0;-14.53;-6.77;-23.81;102.55;-35.51;60.09;5.0;976.73;51.133;35.958344;-83.92433;778.71;NaN;;;180.96774;;0 / 17;88509;2022-10-25 20:53:57:096
-7.1082;3.5707;5.2298;-5.1939;5.0504;6.6096;0.6256;-0.5718;-2.7743;-0.456;1.1875;0.1771;3.0;-10.18;-5.25;-14.02;96.22;-31.0;38.16;5.0;976.7;45.135;35.958344;-83.92433;778.71;NaN;;;180.96774;;0 / 17;89008;2022-10-25 20:53:57:595
-4.1106;8.7888;5.6644;-6.1846;5.5996;5.1541;3.4444;1.7344;-0.6045;0.1529;0.5622;-0.0628;4.0;-3.36;-11.42;-14.04;109.95;-36.76;47.58;5.0;976.64;41.505;35.958344;-83.92433;778.71;NaN;;;180.96774;;0 / 17;89509;2022-10-25 20:53:58:096
1.2676;-1.9968;9.6458;-3.7086;0.5105;9.064;-1.1704;4.1515;-4.5902;-4.3796;-3.3922;-1.6433;18.0;0.02;-16.5;-7.76;169.01;-2.98;22.25;5.0;976.61;51.409;35.958344;-83.92433;778.71;NaN;;;180.96774;;0 / 17;90008;2022-10-25 20:53:58:595
-8.3961;-1.2173;6.7274;-7.0103;1.1746;6.7562;0.0323;-2.8834;2.9851;0.941;-0.3886;-0.6855;26.0;7.2;-8.44;-9.56;187.29;-12.14;31.83;5.0;976.61;44.629;35.958344;-83.92433;778.71;NaN;;;180.96774;;0 / 17;90509;2022-10-25 20:53:59:096
-2.7688;3.0873;5.9004;-4.8395;2.272;8.2212;-0.1335;-0.2341;-1.2267;0.7793;-0.8974;0.0604;43.0;7.35;1.24;-22.46;39.65;-13.4;30.48;5.0;976.58;41.831;35.958344;-83.92433;778.71;NaN;;;180.96774;;0 / 17;91008;2022-10-25 20:53:59:595
-1.5347;4.2473;7.1285;-1.9997;3.9415;8.7542;0.4517;-1.0787;-0.8797;0.6889;0.0375;-0.6462;44.0;-1.84;-5.98;-27.07;64.75;-22.21;14.63;5.0;976.58;44.008;35.958344;-83.92433;778.71;NaN;;;180.96774;;0 / 17;91508;2022-10-25 20:54:00:095
-1.7656;5.1066;5.8247;-4.0702;4.9563;7.4188;0.1022;0.074;-0.6747;0.891;0.227;-0.3749;40.0;-3.88;-27.04;-27.99;125.22;-30.49;27.31;5.0;976.6;45.378;35.958344;-83.92433;778.71;NaN;;;180.96774;;0 / 17;92009;2022-10-25 20:54:00:596
-4.4734;1.6412;13.2455;-3.0908;4.0906;8.3597;-0.3105;0.1304;3.8131;1.0553;-2.3699;-1.8464;69.0;8.72;-35.18;-28.22;162.81;-25.95;29.26;5.0;976.59;43.431;35.95838;-83.924446;804.84;NaN;;;74.148384;;0 / 17;92509;2022-10-25 20:54:01:096
-5.3868;8.3267;4.2688;-5.8397;6.0241;5.0773;-0.6344;-0.0198;4.012;0.7003;-1.7053;-0.5714;86.0;27.84;-48.24;-17.85;209.2;-40.45;41.98;5.0;976.59;43.08;35.95836;-83.924416;803.03;NaN;;0.0;128.65706;;0 / 17;93009;2022-10-25 20:54:01:596
-2.7245;4.2508;10.9878;-6.0532;6.3042;4.4481;2.2715;0.4093;0.9399;0.568;0.5508;-0.6208;35.0;46.33;-45.49;1.39;246.83;-39.51;47.08;5.0;976.6;42.706;35.95836;-83.924416;803.03;NaN;;0.0;128.65706;;0 / 17;93508;2022-10-25 20:54:02:095
-7.0364;8.249;3.9431;-5.3505;6.9639;4.3642;0.0826;1.0114;2.6482;1.7064;1.2011;-1.2627;31.0;51.99;-33.6;-1.65;280.09;-45.25;50.8;5.0;976.57;43.335;35.95836;-83.924385;793.02;NaN;;0.0;105.6941;;6 / 17;94008;2022-10-25 20:54:02:595
-3.7816;4.8063;5.898;-5.0388;5.4576;6.4028;0.4284;0.094;-2.3054;-0.3762;0.9501;0.6593;35.0;52.97;-32.78;7.24;258.79;-34.54;46.1;5.0;976.55;45.29;35.95836;-83.924385;793.02;NaN;;0.0;105.6941;;6 / 17;94509;2022-10-25 20:54:03:096
-2.2995;3.9598;6.3718;-3.2858;4.4224;8.1127;-3.7008;-0.6245;5.2643;-0.0924;-2.0418;-0.0016;4.0;46.86;-38.1;7.26;237.98;-26.81;22.05;5.0;976.58;51.126;35.958355;-83.92437;784.54;NaN;;0.0;76.59261;;6 / 17;95008;2022-10-25 20:54:03:595
1.6101;7.733;16.1961;0.2372;3.1986;9.2673;1.8689;1.3879;2.1555;-1.0478;-1.0873;0.7403;4.0;39.94;-25.35;-8.36;242.75;-21.87;-1.97;5.0;976.58;59.285;35.958355;-83.92437;784.54;NaN;;0.0;76.59261;;6 / 17;95508;2022-10-25 20:54:04:095
-1.8924;2.5307;7.0854;-1.4268;2.1669;9.4572;-0.0673;-0.9003;1.0465;0.7344;0.7701;0.1325;7.0;30.96;-13.82;-18.28;252.72;-12.77;8.58;5.0;976.53;51.229;35.958344;-83.92437;796.26;NaN;;0.0;57.147007;;8 / 17;96009;2022-10-25 20:54:04:596
-2.0028;1.5682;8.875;2.3593;1.3034;9.429;-2.842;-1.1463;0.9822;-1.5445;-2.7116;-0.4909;8.0;34.73;-20.68;-15.9;247.49;-15.34;-0.38;5.0;976.47;51.521;35.958344;-83.92437;796.26;NaN;;0.0;57.147007;;8 / 17;96509;2022-10-25 20:54:05:096
-2.9267;4.5846;10.9675;-1.1808;5.2637;8.1896;0.8949;-1.1773;0.4205;0.9771;2.0223;0.8162;10.0;45.19;-20.98;-27.82;270.85;-32.46;8.2;5.0;976.46;49.395;35.958344;-83.92437;796.26;NaN;;0.0;57.147007;;8 / 17;97009;2022-10-25 20:54:05:596
-1.6902;3.9263;5.3665;-4.0215;4.0761;7.9614;0.9892;-0.7607;-0.9172;0.0693;0.27;0.29;12.0;67.56;-28.57;-7.67;258.66;-23.26;27.85;5.0;976.43;45.538;35.958344;-83.92437;796.26;NaN;;0.0;57.147007;;8 / 17;97510;2022-10-25 20:54:06:097
-4.3789;1.3609;9.428;-3.1515;3.4635;8.6164;-4.1388;-1.6228;1.3165;-0.2692;-0.5002;-0.5746;32.0;72.96;-29.59;5.25;254.41;-21.55;22.44;5.0;976.43;46.373;35.958336;-83.92439;780.38;NaN;;0.0;40.100468;;8 / 17;98009;2022-10-25 20:54:06:596
-0.1196;3.0093;9.1334;0.4046;2.6926;9.4211;-1.1201;0.2488;-1.2934;-0.3665;-2.011;-1.6707;44.0;66.32;-17.36;-7.67;262.58;-20.76;12.2;5.0;976.37;49.445;35.958336;-83.92439;780.38;NaN;;0.0;40.100468;;8 / 17;98509;2022-10-25 20:54:07:096
-0.7947;2.5594;7.6528;-1.4628;4.5102;8.5842;1.1445;-1.7181;-0.3456;0.4228;0.6841;-0.8601;40.0;51.94;-0.28;-30.19;286.59;-25.45;4.75;5.0;976.39;47.222;35.958313;-83.92439;854.64;NaN;;0.0;32.55371;;9 / 17;99009;2022-10-25 20:54:07:596
0.4274;4.4782;7.6158;-0.6817;3.0148;9.3068;-0.7022;1.6304;-0.4608;0.0127;-0.172;-0.5615;39.0;49.35;2.4;-28.07;285.55;-20.08;4.96;5.0;976.39;50.225;35.958313;-83.92439;854.64;NaN;;0.0;32.55371;;9 / 17;99508;2022-10-25 20:54:08:095
0.6308;-0.929;10.7542;-0.1442;0.9468;9.7598;1.4315;-0.8843;-0.9004;-0.43;1.38;-0.7842;103.0;26.25;17.08;-35.25;308.59;-5.54;0.85;5.0;976.37;51.461;35.958305;-83.92441;850.48;NaN;;0.0;29.127625;;11 / 17;100010;2022-10-25 20:54:08:597
0.0024;0.382;8.7254;0.4912;1.4583;9.6852;-0.9353;-1.3871;-0.5663;0.655;-0.0389;0.0899;124.0;20.93;25.09;-36.09;320.68;-5.1;-3.12;5.0;976.33;54.871;35.958305;-83.92441;850.48;NaN;;0.0;29.127625;;11 / 17;100509;2022-10-25 20:54:09:096
0.0323;3.1436;10.285;0.099;2.1631;9.5646;-0.1438;0.4963;-1.3047;-0.1481;-0.0796;-0.1165;127.0;15.02;17.57;-41.49;329.86;-12.74;-0.59;5.0;976.36;51.649;35.958298;-83.92443;847.16;NaN;;0.0;26.217459;;11 / 17;101008;2022-10-25 20:54:09:595
2.4479;1.0463;8.3997;1.1753;2.3308;9.4529;0.7726;-1.4571;-0.8186;0.1293;-0.0899;-0.273;127.0;11.34;15.04;-42.75;326.76;-11.56;-5.56;5.0;976.31;54.783;35.958298;-83.92443;847.16;NaN;;0.0;26.217459;;11 / 17;101509;2022-10-25 20:54:10:096
0.8441;3.0933;9.556;1.1356;3.0725;9.2434;0.5722;0.7839;0.5987;-0.032;-0.0137;-0.4465;127.0;2.96;10.09;-41.74;340.16;-18.26;-7.0;5.0;976.31;50.527;35.95829;-83.92444;811.0;NaN;;0.0;26.186323;;11 / 17;102008;2022-10-25 20:54:10:595
-0.4944;2.8334;8.8546;-0.0047;3.5623;9.1367;-0.8532;-1.0235;-0.6121;0.0328;0.197;0.617;107.0;2.12;9.32;-38.81;354.42;-20.26;-0.21;5.0;976.32;49.643;35.95829;-83.92444;811.0;NaN;;0.0;26.186323;;11 / 17;102508;2022-10-25 20:54:11:095