ACCELEROMETER X (m/s²);ACCELEROMETER Y (m/s²);ACCELEROMETER Z (m/s²);GRAVITY X (m/s²);GRAVITY Y (m/s²);GRAVITY Z (m/s²);LINEAR ACCELERATION X (m/s²);LINEAR ACCELERATION Y (m/s²);LINEAR ACCELERATION Z (m/s²);GYROSCOPE X (rad/s);GYROSCOPE Y (rad/s);GYROSCOPE Z (rad/s);LIGHT (lux);MAGNETIC FIELD X (μT);MAGNETIC FIELD Y (μT);MAGNETIC FIELD Z (μT);ORIENTATION Z (azimuth °);ORIENTATION X (pitch °);ORIENTATION Y (roll °);PROXIMITY (i);ATMOSPHERIC PRESSURE (hPa);SOUND LEVEL (dB);LOCATION Latitude : ;LOCATION Longitude : ;LOCATION Altitude ( m);LOCATION Altitude-google ( m);LOCATION Altitude-atmospheric pressure ( m);LOCATION Speed ( Kmh);LOCATION Accuracy ( m);LOCATION ORIENTATION (°);Satellites in range;Time since start in ms ;YYYY-MO-DD HH-MI-SS_SSS
1.4318;2.4849;10.0002;0.4319;2.2912;9.5255;-0.3966;0.6056;0.0177;-0.2327;-0.3634;0.3613;9.0;22.99;-24.79;-5.61;225.12;-13.51;-2.6;2.0;990.62;25.466;35.957146;-83.91967;;NaN;;;4516.1255;;0 / 15;9;2022-10-22 18:46:55:890
-0.1172;0.9446;9.0185;0.1156;1.4122;9.7038;-0.6279;-0.482;3.9917;-0.1164;0.2713;0.2801;5.0;20.4;-26.51;-18.09;219.92;-8.28;-0.68;2.0;990.61;27.085;35.957146;-83.91967;;NaN;;;4516.1255;;0 / 15;510;2022-10-22 18:46:56:391
1.6388;1.398;8.5134;0.8539;1.5177;9.6508;1.7506;-2.2467;0.2824;-0.0206;0.4672;-0.5499;5.0;26.08;-38.59;-31.88;220.23;-8.9;-5.06;2.0;990.62;35.14;35.957146;-83.91967;;NaN;;;4516.1255;;0 / 15;1009;2022-10-22 18:46:56:890
0.8871;1.0403;8.4942;0.0705;1.6224;9.6713;-3.3719;-1.3067;-1.4805;0.3244;0.5147;0.6145;4.0;39.45;-25.29;-40.97;245.49;-9.52;-0.42;2.0;990.61;45.511;35.957146;-83.91967;;NaN;;;4516.1255;;0 / 15;1510;2022-10-22 18:46:57:391
0.4131;3.5324;7.6672;0.8246;2.1536;9.5317;1.0431;-2.0454;2.2293;1.039;0.2566;-0.8065;4.0;60.62;-17.94;-40.28;261.18;-12.69;-4.94;2.0;990.56;41.968;35.957146;-83.91967;;NaN;;;4516.1255;;0 / 15;2009;2022-10-22 18:46:57:890
-0.839;1.3155;7.8239;-1.4511;1.902;9.5104;1.0918;-0.9427;-1.8939;0.1452;0.8648;0.7562;4.0;66.99;10.41;-43.39;283.42;-7.88;0.54;2.0;990.55;43.885;35.957146;-83.91967;;NaN;;;4516.1255;;0 / 15;2509;2022-10-22 18:46:58:390
-0.5052;1.4833;7.5544;-0.3287;2.5551;9.4622;0.1452;-1.5556;0.5389;0.4845;-0.6294;-0.1565;4.0;86.27;22.18;-33.77;290.01;-15.1;1.99;2.0;990.52;35.713;35.957146;-83.91967;;NaN;;;4516.1255;;0 / 15;3009;2022-10-22 18:46:58:890
-0.6272;2.9004;8.4894;-1.3061;2.924;9.269;-0.1177;-0.6988;-0.2746;0.2209;0.2157;0.5525;4.0;81.06;26.98;-33.07;296.64;-15.5;8.22;2.0;990.53;50.608;35.957146;-83.91967;;NaN;;;4516.1255;;0 / 15;3509;2022-10-22 18:46:59:390
-0.1424;3.2189;8.5337;-1.3042;2.7463;9.3235;1.1444;-0.4803;0.3864;0.1911;0.5882;-0.7917;4.0;74.66;17.18;-27.49;290.75;-16.26;7.96;2.0;990.5;42.58;35.957146;-83.91967;;NaN;;;4516.1255;;0 / 15;4009;2022-10-22 18:46:59:890
-2.2002;1.3573;9.623;-1.6868;2.2724;9.3894;-0.0311;0.2394;1.2761;-0.374;0.4235;-0.3628;6.0;62.27;22.41;-25.57;297.62;-16.24;7.15;2.0;990.47;39.311;35.957146;-83.91967;;NaN;;;4516.1255;;0 / 15;4509;2022-10-22 18:47:00:390
0.3604;-1.2987;15.2252;-1.3013;0.2804;9.7159;0.7796;-0.0185;0.4119;-1.3276;-0.7029;2.6371;10.0;54.36;13.84;-19.82;286.19;-1.64;7.63;2.0;990.45;46.496;35.957146;-83.91967;;NaN;;;4516.1255;;0 / 15;5009;2022-10-22 18:47:00:890
2.9303;0.923;8.2681;2.2029;0.7729;9.5247;0.2839;-1.8587;-1.4941;0.2619;-1.0865;-1.3107;29.0;41.96;-11.31;-25.91;257.81;-3.85;-3.68;2.0;990.45;41.927;35.957146;-83.91967;;NaN;;;4516.1255;;0 / 15;5509;2022-10-22 18:47:01:390
5.6752;0.3592;7.2996;5.8998;-0.1358;7.8322;-0.533;-0.2765;-0.7543;-0.1826;0.6338;-0.7934;27.0;-1.99;-24.15;-44.83;226.11;0.79;-36.99;2.0;990.41;39.329;35.957146;-83.91967;;NaN;;;4516.1255;;0 / 15;6010;2022-10-22 18:47:01:891
2.6216;0.2417;5.9327;3.7856;0.4573;9.035;0.7632;-1.9328;1.4547;-0.5989;0.9327;-1.4344;13.0;-15.54;-21.22;-47.59;210.15;-0.47;-32.11;2.0;990.42;53.492;35.957146;-83.91967;;NaN;;;4516.1255;;0 / 15;6509;2022-10-22 18:47:02:390
1.3322;0.7983;8.4248;3.2042;0.8162;9.2324;-1.2348;-1.4793;2.1898;0.3696;-0.0709;-0.656;10.0;-9.71;-14.53;-47.87;209.99;-4.77;-19.14;2.0;990.56;57.31;35.957146;-83.91967;;NaN;;;4516.1255;;0 / 15;7010;2022-10-22 18:47:02:891
4.8015;-2.0315;8.5732;3.5032;-0.3012;9.1546;2.6772;-1.1242;-0.0614;-0.7154;0.0537;-1.8782;30.0;-12.9;-10.05;-45.62;201.48;-1.0;-22.0;2.0;990.43;39.491;35.957146;-83.91967;;NaN;;;4516.1255;;0 / 15;7510;2022-10-22 18:47:03:391
3.5169;1.3968;8.2597;0.6867;0.6318;9.7622;3.1407;-0.8618;1.2136;1.4531;2.2488;0.0692;21.0;-6.79;-1.29;-43.01;65.62;-3.69;-4.02;2.0;990.43;32.528;35.957146;-83.91967;;NaN;;;4516.1255;;0 / 15;8009;2022-10-22 18:47:03:890
1.9741;-0.6811;7.4982;2.2079;0.5483;9.5391;0.1798;-0.6514;-1.8887;-0.5517;0.9245;-0.4025;2.0;1.26;-0.22;-39.06;270.07;-0.03;-17.35;2.0;990.4;33.645;35.957146;-83.91967;;NaN;;;4516.1255;;0 / 15;8509;2022-10-22 18:47:04:390
1.7584;1.1228;9.2761;2.23;-0.8631;9.5106;-1.745;-0.1167;-2.2652;-0.2225;-0.4136;-1.0022;2.0;10.07;17.74;-37.63;308.94;5.05;-13.2;2.0;990.36;39.953;35.957146;-83.91967;;NaN;;;4516.1255;;0 / 15;9010;2022-10-22 18:47:04:891
2.1033;-0.2213;6.233;2.8591;0.0372;9.3806;-2.1796;-1.6699;-0.2844;0.904;-0.0415;0.8807;2.0;8.81;21.75;-35.59;319.18;-0.22;-16.95;2.0;990.32;38.68;35.957146;-83.91967;;NaN;;;4516.1255;;0 / 15;9509;2022-10-22 18:47:05:390
0.5028;-0.4119;9.2833;0.4147;0.1879;9.7961;-0.0981;-1.8374;-1.325;0.3987;0.3225;-0.6614;3.0;23.91;20.08;-37.28;309.0;-1.1;-2.42;2.0;990.31;38.462;35.957146;-83.91967;;NaN;;;4516.1255;;0 / 15;10009;2022-10-22 18:47:05:890
1.8482;-0.256;7.678;-0.2315;-1.3595;9.7092;-7.161;1.4074;4.1262;0.4875;-2.2753;1.5367;5.0;25.26;28.61;-25.71;315.77;7.97;1.37;2.0;990.27;34.343;35.957146;-83.91967;;NaN;;;4516.1255;;0 / 15;10510;2022-10-22 18:47:06:391
2.7951;-3.7947;7.9113;1.6569;-2.7483;9.2667;-0.8122;-1.8748;-1.0306;-0.6074;0.7268;-1.1954;4.0;24.19;32.33;-19.41;314.05;10.72;-10.42;2.0;990.28;40.801;35.957146;-83.91967;;NaN;;;4516.1255;;0 / 15;11009;2022-10-22 18:47:06:890
2.1547;-3.0691;9.7726;2.2979;-0.4024;9.5251;-3.6288;-4.0184;3.9218;2.7391;0.2072;2.8929;6.0;12.06;50.48;-6.04;344.25;19.44;-11.91;2.0;990.34;43.586;35.957146;-83.91967;;NaN;;;4516.1255;;0 / 15;11509;2022-10-22 18:47:07:390
2.077;-4.9642;10.5497;3.0166;-1.9795;9.1188;0.3861;-0.9171;-2.3302;-1.1542;0.2448;-0.8922;5.0;19.74;46.76;-19.69;329.83;11.65;-18.3;2.0;990.25;38.221;35.957146;-83.91967;;NaN;;;4516.1255;;0 / 15;12009;2022-10-22 18:47:07:890
-1.5359;-1.2485;10.85;0.9558;-0.9603;9.7126;-0.1028;0.9236;1.7207;0.3511;0.3693;-0.1514;6.0;10.59;50.74;-13.14;345.53;8.25;-7.47;2.0;990.24;44.948;35.957146;-83.91967;;NaN;;;4516.1255;;0 / 15;12510;2022-10-22 18:47:08:391
-0.9099;-2.2421;12.9341;-0.5964;-0.0093;9.7885;2.3926;0.2403;-1.9939;0.4;1.2311;-0.571;14.0;1.33;41.08;-26.91;353.22;1.78;-7.9;2.0;990.26;46.547;35.957146;-83.91967;;NaN;;;4516.1255;;0 / 15;13009;2022-10-22 18:47:08:890
1.258;-0.3173;7.0699;0.6929;-0.6558;9.7601;-0.9323;-2.3376;-2.2211;0.3842;-1.0369;-0.8295;41.0;2.79;39.98;-30.9;352.2;3.83;-4.06;2.0;990.2;49.68;35.957146;-83.91967;;NaN;;;4516.1255;;0 / 15;13509;2022-10-22 18:47:09:390
3.1579;0.9697;7.2147;3.818;1.3504;8.9314;-0.5995;-1.3524;0.9115;0.1936;-0.1832;-0.5204;48.0;-26.49;36.54;-39.0;11.28;-7.92;-23.15;2.0;990.2;40.486;35.957146;-83.91967;;NaN;;;4516.1255;;0 / 15;14010;2022-10-22 18:47:09:891
3.3302;-0.2166;7.8897;3.2948;0.5941;9.2175;-1.1873;-2.2968;1.0378;-0.474;0.1457;-1.5487;37.0;-43.05;25.28;-33.26;45.63;-3.88;-20.55;2.0;990.25;41.814;35.957146;-83.91967;;NaN;;;4516.1255;;0 / 15;14509;2022-10-22 18:47:10:390
2.5271;1.2676;7.552;3.4188;1.7079;9.0314;-0.4354;1.1062;-0.0309;-0.7093;-0.8833;-0.1518;24.0;-43.18;1.31;-24.88;76.19;-10.03;-20.73;2.0;990.27;34.792;35.957146;-83.91967;;NaN;;;4516.1255;;0 / 15;15009;2022-10-22 18:47:10:890
3.5109;-2.6456;10.686;3.3305;0.2758;9.2197;4.9227;-0.6147;-0.6119;-1.7326;0.8489;-2.212;19.0;-46.27;1.61;-16.03;80.39;-6.64;-25.01;2.0;990.3;44.839;35.957146;-83.91967;;NaN;;;4516.1255;;0 / 15;15509;2022-10-22 18:47:11:390
1.1934;-0.2572;11.7371;3.1519;0.7781;9.2537;-0.1963;0.1675;1.281;-0.0166;-0.3079;-0.0237;54.0;-42.15;-6.17;-16.74;99.29;-0.95;-20.1;2.0;990.24;42.578;35.957146;-83.91967;;NaN;;;4516.1255;;0 / 15;16009;2022-10-22 18:47:11:890
3.687;0.4071;9.9559;2.8568;0.3657;9.3742;0.6318;0.0737;0.2963;-0.2097;0.0345;-0.0586;38.0;-29.21;-13.29;-17.04;116.63;-3.73;-17.27;2.0;990.21;30.157;35.957146;-83.91967;;NaN;;;4516.1255;;0 / 15;16509;2022-10-22 18:47:12:390
-0.2716;-2.4933;9.7116;1.2289;-1.4502;9.6207;1.1418;-1.7222;0.2323;-0.0667;1.4133;-2.1005;9.0;-18.69;-9.51;-21.86;130.0;8.5;-7.28;2.0;990.22;37.268;35.957146;-83.91967;;NaN;;;4516.1255;;0 / 15;17009;2022-10-22 18:47:12:890
1.9307;-0.8943;8.5409;2.0835;-0.9316;9.5374;-1.8348;-0.4075;-1.1477;0.3205;-0.3653;0.3627;5.0;-12.19;-9.79;-30.13;157.71;5.45;-12.32;2.0;990.18;58.394;35.957146;-83.91967;;NaN;;;4516.1255;;0 / 15;17509;2022-10-22 18:47:13:390
0.9553;-1.9908;7.5616;1.4016;-1.1626;9.6361;-1.048;-2.0104;1.6688;0.482;0.1305;-0.4788;4.0;-16.07;-8.76;-36.02;141.59;6.81;-8.28;2.0;990.2;38.726;35.957146;-83.91967;;NaN;;;4516.1255;;0 / 15;18010;2022-10-22 18:47:13:891
1.0738;-1.1587;10.8643;1.4641;-0.9799;9.6471;0.1111;0.9019;-0.7493;-0.2201;0.4067;0.4066;4.0;-10.93;-8.64;-41.79;160.98;5.73;-8.63;2.0;990.21;35.016;35.957146;-83.91967;;NaN;;;4516.1255;;0 / 15;18509;2022-10-22 18:47:14:390
0.3162;-2.3222;9.7319;1.1115;-1.1592;9.6743;-0.3963;0.6714;-0.0254;-0.0436;-0.1426;0.338;4.0;-4.24;-5.29;-44.59;186.44;6.79;-6.55;2.0;990.16;33.172;35.957146;-83.91967;;NaN;;;4516.1255;;0 / 15;19009;2022-10-22 18:47:14:890
0.1914;-0.6236;9.1956;0.5806;-1.8714;9.6089;1.1742;0.018;-2.047;-0.004;-0.1519;0.1151;5.0;-1.14;0.26;-45.41;191.3;11.0;-3.46;2.0;990.07;50.586;35.957146;-83.91967;;NaN;;;4516.1255;;0 / 15;19509;2022-10-22 18:47:15:390
0.1125;-0.9446;10.2981;0.9909;-1.2879;9.6711;1.0391;0.7181;-1.3706;-0.1327;-0.4807;0.1469;5.0;4.22;0.26;-49.65;234.48;7.55;-5.85;2.0;990.13;59.41;35.957146;-83.91967;;NaN;;;4516.1255;;0 / 15;20010;2022-10-22 18:47:15:891
0.9817;-2.8143;8.9922;0.9148;-2.4395;9.4542;-0.4999;-0.7709;0.6225;-0.1435;0.0484;-1.0393;5.0;3.9;-4.78;-52.39;202.65;13.38;-3.34;2.0;990.07;37.777;35.957146;-83.91967;;NaN;;;4516.1255;;0 / 15;20510;2022-10-22 18:47:16:391
-2.5582;-0.923;9.9129;0.1919;-1.4304;9.6999;1.4704;-2.7861;6.5295;1.4815;2.9628;-1.0487;7.0;21.99;2.14;-45.47;258.83;8.39;-1.13;2.0;990.2;38.181;35.957146;-83.91967;;NaN;;;4516.1255;;0 / 15;21009;2022-10-22 18:47:16:890
0.8728;-0.0694;9.4101;0.9738;-0.7614;9.7284;-1.5803;0.9082;-1.4793;0.2375;-0.5594;0.8271;13.0;45.54;11.64;-40.35;279.18;6.4;-1.82;2.0;990.07;43.479;35.957146;-83.91967;;NaN;;;4516.1255;;0 / 15;21509;2022-10-22 18:47:17:390
0.8991;-1.4174;9.0927;1.082;-1.1174;9.6825;-1.4173;-1.2009;-0.8009;0.2778;0.2129;-0.0273;14.0;45.28;-6.64;-49.88;263.47;5.97;-4.42;2.0;990.03;46.035;35.957146;-83.91967;;NaN;;;4516.1255;;0 / 15;22009;2022-10-22 18:47:17:890
1.4163;-2.217;10.4264;0.8699;-0.5216;9.7541;0.2968;-1.6083;2.7144;0.1418;-0.3211;-0.0105;22.0;40.13;-17.25;-42.58;245.59;3.33;-3.52;2.0;990.02;35.67;35.957146;-83.91967;;NaN;;;4516.1255;;0 / 15;22510;2022-10-22 18:47:18:391
3.0153;-4.684;10.7782;2.1955;-2.359;9.262;0.8611;-2.24;2.2231;-1.1006;0.3912;-1.8458;27.0;19.01;1.56;-26.08;262.81;13.92;-13.34;2.0;990.09;44.921;35.957146;-83.91967;;NaN;;;4516.1255;;0 / 15;23009;2022-10-22 18:47:18:890
1.081;-1.4773;10.4181;1.0268;-1.3334;9.6612;-0.5285;0.6993;-0.052;0.1336;0.0549;-0.3354;22.0;0.13;18.43;-16.87;350.59;9.4;-8.41;2.0;990.08;50.728;35.957146;-83.91967;;NaN;;;4516.1255;;0 / 15;23509;2022-10-22 18:47:19:390
3.1352;-1.7309;7.6863;3.5885;-1.2077;9.0463;-0.327;0.0358;-2.8025;-1.3723;-0.6249;-0.9318;18.0;-22.03;7.29;-13.74;74.13;7.07;-21.64;2.0;990.01;40.068;35.957146;-83.91967;;NaN;;;4516.1255;;0 / 15;24010;2022-10-22 18:47:19:891
1.9008;-0.2898;8.7171;2.2525;-1.9489;9.3434;-0.8685;0.2048;-1.0449;-0.0744;-0.0695;-0.7831;23.0;-17.29;-3.22;-7.13;108.86;11.46;-13.55;2.0;990.04;32.675;35.957146;-83.91967;;NaN;;;4516.1255;;0 / 15;24509;2022-10-22 18:47:20:390
1.8697;-2.0195;8.1111;2.1931;-1.1328;9.4909;-1.154;-1.086;-1.0866;-0.1487;-0.3392;-0.567;27.0;-1.52;9.68;4.14;15.42;6.63;-13.01;2.0;990.05;32.439;35.957146;-83.91967;;NaN;;;4516.1255;;0 / 15;25009;2022-10-22 18:47:20:890
2.575;-1.7572;8.3172;2.7074;-2.5146;9.0839;-0.0597;-0.382;-0.5389;-0.133;0.254;-0.5566;17.0;-7.67;15.54;21.38;34.29;14.86;-16.6;2.0;990.09;39.68;35.957146;-83.91967;;NaN;;;4516.1255;;0 / 15;25509;2022-10-22 18:47:21:390
0.5554;-2.898;6.9595;1.7778;-2.5185;9.3095;-0.5918;-2.4008;2.3191;0.6613;-0.2349;0.0634;4.0;-22.42;0.54;25.67;76.28;14.88;-10.81;2.0;990.03;45.352;35.957146;-83.91967;;NaN;;;4516.1255;;0 / 15;26009;2022-10-22 18:47:21:890
0.5243;-5.2238;11.1709;1.0583;-3.4895;9.1035;1.5776;-2.9939;2.799;0.1285;1.1889;-0.722;3.0;-28.89;1.76;16.89;79.68;20.25;-10.85;2.0;990.09;36.207;35.957146;-83.91967;;NaN;;;4516.1255;;0 / 15;26509;2022-10-22 18:47:22:390
2.394;-2.8011;12.9855;2.2862;-3.6829;8.7966;0.1436;2.3643;-0.1858;-0.5003;0.1045;0.0061;2.0;-30.17;-3.69;-1.35;103.49;22.06;-14.57;2.0;990.05;33.593;35.957146;-83.91967;;NaN;;;4516.1255;;0 / 15;27009;2022-10-22 18:47:22:890
3.1747;-4.4471;11.0692;2.9244;-2.2658;9.0821;-1.0202;-0.3163;0.3744;-0.0877;-0.0085;0.3109;2.0;-23.23;-10.82;-7.95;125.17;11.69;-17.67;2.0;989.96;34.639;35.957146;-83.91967;;NaN;;;4516.1255;;0 / 15;27509;2022-10-22 18:47:23:390
3.1902;-2.0351;8.5493;3.2876;-2.3405;8.9378;0.2386;-0.2127;-2.7734;-0.3829;0.4969;-0.6281;1.0;-7.41;-25.69;1.07;164.89;13.81;-20.19;2.0;989.97;38.132;35.957146;-83.91967;;NaN;;;4516.1255;;0 / 15;28009;2022-10-22 18:47:23:890
1.3848;-2.4311;7.8826;2.5788;-2.5941;9.099;-0.4397;-0.6319;0.0193;0.4377;-0.8457;0.1076;2.0;-3.62;-7.8;-2.62;159.03;17.81;-11.01;2.0;989.92;39.832;35.957146;-83.91967;;NaN;;;4516.1255;;0 / 15;28509;2022-10-22 18:47:24:390
0.7481;-3.833;11.9728;1.5143;-2.8751;9.2526;0.5093;-1.2326;3.1427;-0.0025;0.1818;-0.2866;4.0;-10.37;2.55;-1.91;79.23;17.05;-9.29;2.0;989.98;28.467;35.957146;-83.91967;;NaN;;;4516.1255;;0 / 15;29011;2022-10-22 18:47:24:892
-0.1819;-5.2298;14.9848;1.4264;-2.9264;9.2505;0.7032;1.0268;-0.0613;-0.116;0.4209;0.2307;5.0;-14.31;5.31;-1.82;75.49;16.17;-12.25;2.0;989.97;32.169;35.957146;-83.91967;;NaN;;;4516.1255;;0 / 15;29509;2022-10-22 18:47:25:390
1.7895;-1.6866;9.3969;1.824;-1.685;9.4871;-0.6281;0.2034;-1.4957;0.1242;0.6706;0.0855;5.0;-22.14;18.39;1.8;51.71;9.89;-10.88;2.0;989.93;40.241;35.957146;-83.91967;;NaN;;;4516.1255;;0 / 15;30010;2022-10-22 18:47:25:891
2.5917;-1.7656;8.1135;1.9469;-2.4427;9.2959;0.8258;0.1584;-2.5872;-0.0044;-0.0554;-0.5423;5.0;-30.62;24.43;3.08;54.12;14.42;-11.83;2.0;989.92;47.578;35.957146;-83.91967;;NaN;;;4516.1255;;0 / 15;30509;2022-10-22 18:47:26:390
1.6866;-1.6926;7.855;1.6917;-2.9707;9.1915;-0.514;0.0542;-1.3506;0.1972;-0.8483;0.6249;8.0;-38.93;26.33;0.04;59.45;17.63;-10.43;2.0;989.82;34.732;35.957146;-83.91967;;NaN;;;4516.1255;;0 / 15;31009;2022-10-22 18:47:26:890
1.6962;-4.0364;7.1548;1.3856;-2.8332;9.2856;0.2539;-1.448;-0.1071;-0.3144;0.2501;-0.9746;8.0;-37.28;34.01;-2.61;50.21;16.79;-8.49;2.0;989.81;40.306;35.957146;-83.91967;;NaN;;;4516.1255;;0 / 15;31509;2022-10-22 18:47:27:390
2.4371;-3.7038;14.8301;1.6979;-3.466;9.0152;-0.5397;0.3775;0.6434;-0.2892;-0.2834;-0.552;11.0;-34.07;18.11;-14.34;72.44;20.7;-10.67;2.0;989.9;39.799;35.957146;-83.91967;;NaN;;;4516.1255;;0 / 15;32010;2022-10-22 18:47:27:891
2.0877;-1.3813;11.0154;2.6725;-1.5362;9.3096;-0.3696;0.1174;-3.0037;0.3212;0.9562;0.1332;19.0;-23.81;18.26;-16.58;50.57;12.19;-24.3;2.0;989.85;38.266;35.957146;-83.91967;;NaN;;;4516.1255;;0 / 15;32509;2022-10-22 18:47:28:390
2.3127;-4.282;8.9312;1.1237;-3.3953;9.1312;-4.725;-3.0477;3.5248;-0.9679;-1.2687;0.6595;24.0;-6.58;18.36;-28.26;26.85;20.26;-7.02;2.0;989.8;44.763;35.957146;-83.91967;;NaN;;;4516.1255;;0 / 15;33009;2022-10-22 18:47:28:890
3.6018;-3.2752;9.7116;2.2911;-3.0397;9.0378;0.4091;-0.6602;0.2065;-0.0833;0.2133;-0.8207;55.0;-3.77;23.4;-29.64;343.14;18.83;-14.54;2.0;989.83;33.075;35.957146;-83.91967;;NaN;;;4516.1255;;0 / 15;33509;2022-10-22 18:47:29:390
2.2528;-1.4234;8.5373;2.7171;-1.2161;9.3439;-0.8509;-1.8897;1.3777;-0.0489;0.1607;-1.0006;56.0;-4.95;24.23;-29.08;351.63;9.29;-15.22;2.0;989.79;36.893;35.957146;-83.91967;;NaN;;;4516.1255;;0 / 15;34009;2022-10-22 18:47:29:890
2.4849;-4.6875;9.3084;2.5555;-2.7693;9.0538;-0.4237;-1.8255;1.4544;-0.8495;-0.1362;-1.2987;28.0;-18.84;23.98;-26.16;35.79;11.84;-13.22;2.0;989.78;30.096;35.957146;-83.91967;;NaN;;;4516.1255;;0 / 15;34510;2022-10-22 18:47:30:391
1.9932;-4.168;13.9146;2.8754;-1.6408;9.2309;-0.7894;-3.3206;4.9895;0.8353;-0.4794;-0.6799;26.0;-36.32;2.51;-23.7;95.59;9.63;-17.3;2.0;989.89;36.189;35.957146;-83.91967;;NaN;;;4516.1255;;0 / 15;35009;2022-10-22 18:47:30:890
4.282;-0.7481;8.0548;3.403;0.1362;9.1963;-0.7436;-0.6283;-0.3319;-0.0744;-0.4392;-0.6739;50.0;-33.71;-19.33;-19.46;125.71;0.7;-17.1;2.0;989.8;40.452;35.957146;-83.91967;;NaN;;;4516.1255;;0 / 15;35511;2022-10-22 18:47:31:392
-1.6723;-1.8326;11.974;0.0416;-2.8201;9.3923;-2.2177;0.5998;4.1188;-0.1052;0.3425;-0.6126;46.0;-11.79;-39.19;-19.37;164.45;16.71;-0.25;2.0;989.9;48.474;35.957146;-83.91967;;NaN;;;4516.1255;;0 / 15;36010;2022-10-22 18:47:31:891
-0.5626;-4.7581;9.0784;0.4342;-2.437;9.4891;-0.4796;0.5103;-2.5064;0.1985;0.1122;-0.0369;8.0;9.23;-37.82;-24.43;193.3;14.39;-2.62;2.0;989.76;41.001;35.957146;-83.91967;;NaN;;;4516.1255;;0 / 15;36509;2022-10-22 18:47:32:390
2.3545;-4.5153;6.664;0.3789;-4.1237;8.8894;-0.5953;-0.7977;0.8051;1.2596;-1.0395;0.4981;7.0;12.98;-25.2;-24.73;203.1;24.87;-2.44;2.0;989.79;37.092;35.95819;-83.92418;782.26;NaN;;;374.5161;;0 / 15;37009;2022-10-22 18:47:32:890
1.9439;-2.1033;8.3471;0.9058;-3.0628;9.272;0.1242;0.6863;0.5749;1.0085;-1.2401;0.9454;6.0;3.79;-25.76;-24.22;191.15;18.2;-5.58;2.0;989.69;38.796;35.95819;-83.92418;782.26;NaN;;;374.5161;;0 / 15;37509;2022-10-22 18:47:33:390
1.561;-2.5391;7.4073;0.6192;-2.0024;9.5801;-0.8656;-2.3917;1.2051;-0.4419;0.0109;-0.2563;4.0;-7.39;-30.82;-16.99;170.15;11.78;-3.7;2.0;989.76;37.545;35.95819;-83.92418;782.26;NaN;;;374.5161;;0 / 15;38009;2022-10-22 18:47:33:890
-3.5049;-2.4251;12.1956;-0.9163;-1.8892;9.5792;0.2054;1.7908;3.4738;-0.1603;0.4052;0.8398;4.0;1.71;-28.28;-18.77;183.05;10.55;1.05;2.0;989.78;44.865;35.95819;-83.92418;782.26;NaN;;;374.5161;;0 / 15;38509;2022-10-22 18:47:34:390
-1.5706;-6.9775;6.7513;1.6414;-2.6809;9.2892;1.0167;0.7752;-2.1811;-0.3859;1.8531;-1.7957;5.0;5.14;-23.51;-17.59;196.22;15.87;-10.02;2.0;989.74;37.561;35.95819;-83.92418;782.26;NaN;;;374.5161;;0 / 15;39009;2022-10-22 18:47:34:890
-2.7544;-5.9842;8.4416;0.0608;-6.8515;7.0159;-3.0594;1.6044;1.6341;0.265;0.5392;-0.8177;7.0;17.81;-6.0;-16.29;228.06;46.47;0.92;2.0;989.73;41.144;35.95819;-83.92418;782.26;NaN;;;374.5161;;0 / 15;39510;2022-10-22 18:47:35:391
-1.0594;-4.4698;5.2131;-0.3631;-4.6085;8.6487;0.3613;-3.3631;-1.2145;0.9546;0.2076;0.1563;11.0;18.98;7.76;-6.19;281.67;28.03;2.4;2.0;989.62;40.674;35.95819;-83.92418;782.26;NaN;;;374.5161;;0 / 15;40009;2022-10-22 18:47:35:890
-0.821;-4.0125;7.2673;-0.2562;-5.323;8.2323;0.2782;0.3987;-0.5325;0.0531;-0.1733;-1.3457;15.0;12.83;7.29;-4.22;283.0;32.27;7.93;2.0;989.76;41.6;35.95819;-83.92418;782.26;NaN;;;374.5161;;0 / 15;40509;2022-10-22 18:47:36:390
-1.8194;-6.1122;9.082;-1.0783;-5.0601;8.3308;-1.6864;-0.9844;2.3076;0.5204;-1.5833;1.6109;16.0;13.33;10.89;-5.06;296.11;31.06;7.38;2.0;989.67;48.582;35.95819;-83.92418;782.26;NaN;;;374.5161;;0 / 15;41009;2022-10-22 18:47:36:890
-0.3604;-0.4262;2.0303;4.3004;-2.0701;8.5669;-2.0967;-13.748;11.4412;5.6351;-1.0772;-3.3581;19.0;8.93;10.82;-9.56;269.02;48.86;-1.15;2.0;989.85;36.627;35.95819;-83.92418;782.26;NaN;;;374.5161;;0 / 15;41509;2022-10-22 18:47:37:390
1.9956;-6.536;4.1716;1.6638;-7.2474;6.3936;0.0573;1.4555;-0.6149;-0.2927;0.3244;0.5158;22.0;-0.04;15.11;-18.94;233.94;47.65;-14.59;2.0;989.63;39.392;35.95819;-83.92418;782.26;NaN;;;374.5161;;0 / 15;42009;2022-10-22 18:47:37:890
3.5204;-3.8462;8.7876;2.6162;-3.8696;8.6228;-3.6532;3.7195;-7.7049;-2.0831;0.2823;2.4264;22.0;1.99;7.95;-26.06;256.7;23.24;-16.88;2.0;989.4;42.097;35.95819;-83.92418;782.26;NaN;;;374.5161;;0 / 15;42509;2022-10-22 18:47:38:390
-0.4095;-3.8833;6.3443;-1.0106;-3.4457;9.1256;-2.9418;-1.9682;2.397;0.7304;-0.7336;0.914;25.0;-2.74;-1.28;-40.5;153.47;20.57;6.32;2.0;989.63;36.932;35.95819;-83.92418;782.26;NaN;;;374.5161;;0 / 15;43009;2022-10-22 18:47:38:890
1.0128;-3.8282;8.5397;-0.5867;-2.8762;9.357;1.5764;-2.1649;0.3269;0.2235;0.0842;-0.6061;44.0;-5.72;-3.79;-44.32;152.22;17.06;3.59;2.0;989.59;30.754;35.95819;-83.92418;782.26;NaN;;;374.5161;;0 / 15;43509;2022-10-22 18:47:39:390
0.1962;-3.9395;10.5879;1.7143;-2.5758;9.3058;-0.9085;0.158;-1.4122;-0.5827;0.0935;-1.703;45.0;-4.84;-10.44;-43.16;187.79;15.23;-10.44;2.0;989.54;41.209;35.95819;-83.92418;782.26;NaN;;;374.5161;;0 / 15;44010;2022-10-22 18:47:39:891
0.3353;-5.2777;7.5353;0.7653;-3.4076;9.1637;-1.2083;-3.6705;4.2211;0.3153;1.2183;-2.1628;39.0;0.09;-7.59;-39.06;194.54;20.18;-7.97;2.0;989.62;34.131;35.95819;-83.92418;782.26;NaN;;;374.5161;;0 / 15;44510;2022-10-22 18:47:40:391
-1.5467;-6.8028;15.5031;0.2442;-2.8837;9.3699;-1.0065;0.2115;1.4804;0.2301;-0.5572;-0.3415;36.0;21.34;4.41;-27.19;259.68;17.1;-1.49;2.0;989.63;42.156;35.95819;-83.92418;782.26;NaN;;;374.5161;;0 / 15;45009;2022-10-22 18:47:40:890
0.4406;-5.9279;12.5868;1.0423;-2.3471;9.4644;0.8741;-0.2676;0.193;-1.1517;0.5499;-1.0448;21.0;16.69;6.28;-26.23;278.93;6.73;-8.16;2.0;989.58;44.884;35.95819;-83.92418;782.26;NaN;;;374.5161;;0 / 15;45509;2022-10-22 18:47:41:390
0.9793;-2.6671;10.7877;0.8388;-2.8218;9.3544;-0.2377;1.1712;-0.7284;0.2973;-0.2036;0.2757;5.0;8.25;15.69;-29.83;295.91;14.96;-5.94;2.0;989.66;32.026;35.95819;-83.92418;782.26;NaN;;;374.5161;;0 / 15;46009;2022-10-22 18:47:41:890
0.9206;-1.7417;9.1717;0.8859;-1.3903;9.6671;-0.5872;-0.3691;-1.9412;0.1898;0.0406;-0.3907;3.0;-2.27;9.88;-38.98;330.29;9.82;-5.62;2.0;989.57;40.564;35.95819;-83.92418;782.26;NaN;;;374.5161;;0 / 15;46509;2022-10-22 18:47:42:390
0.8414;-2.4036;8.2454;1.3325;-3.0358;9.2292;0.1259;0.7362;-1.9404;-0.2042;0.1063;-0.764;3.0;-0.64;0.94;-46.56;202.99;18.03;-8.22;2.0;989.49;45.362;35.95819;-83.92418;782.26;NaN;;;374.5161;;0 / 15;47010;2022-10-22 18:47:42:891
0.2142;-3.6811;10.6837;0.6451;-3.0801;9.288;-1.4485;-1.2024;2.7954;0.6554;-0.1231;0.7845;4.0;1.78;4.65;-44.64;212.12;20.8;-6.38;2.0;989.61;36.298;35.95819;-83.92418;782.26;NaN;;;374.5161;;0 / 15;47509;2022-10-22 18:47:43:390
0.358;-5.3868;12.2207;0.296;-3.843;9.0174;0.1466;0.805;0.8146;-1.1693;0.4458;0.0018;4.0;2.14;5.51;-41.29;197.65;23.07;-1.88;2.0;989.55;37.185;35.95819;-83.92418;782.26;NaN;;;374.5161;;0 / 15;48009;2022-10-22 18:47:43:890
1.4593;-2.6982;8.3818;1.2276;-3.3106;9.149;-0.321;0.3884;-1.6052;-0.3074;-0.4879;-0.232;5.0;4.22;11.76;-36.49;266.27;19.73;-7.64;2.0;989.51;40.943;35.95819;-83.92418;782.26;NaN;;;374.5161;;0 / 15;48509;2022-10-22 18:47:44:390
0.5423;-2.059;8.8534;1.8517;-1.7269;9.4741;-1.8516;0.5035;-3.8726;-0.1051;0.6869;0.1371;4.0;-5.61;18.45;-30.6;359.73;10.14;-11.06;2.0;989.47;44.897;35.95819;-83.92418;782.26;NaN;;;374.5161;;0 / 15;49010;2022-10-22 18:47:44:891
1.349;-3.9933;5.4443;1.225;-3.9127;8.9085;1.1452;-0.3703;-2.1453;0.2333;-0.1186;-0.8144;3.0;-6.94;22.13;-23.79;19.58;23.51;-7.83;2.0;989.42;43.817;35.95819;-83.92418;782.26;NaN;;;374.5161;;0 / 15;49510;2022-10-22 18:47:45:391
3.5874;-2.5702;6.6162;2.4634;-3.5913;8.7866;-0.4738;-1.1324;2.5931;0.6166;-1.097;0.563;4.0;-17.23;24.88;-20.72;37.04;21.48;-15.66;2.0;989.37;45.047;35.95819;-83.92418;782.26;NaN;;;374.5161;;0 / 15;50009;2022-10-22 18:47:45:890
2.266;-4.8709;8.1497;1.2158;-4.1071;8.8218;1.1119;-2.6522;1.7067;-0.3516;0.1479;-0.1182;3.0;-20.49;21.92;-24.53;55.83;20.93;-9.63;2.0;989.47;47.234;35.95819;-83.92418;782.26;NaN;;;374.5161;;0 / 15;50509;2022-10-22 18:47:46:390
1.1539;-3.8785;14.7787;1.2119;-4.2882;8.7357;1.5802;0.9434;0.0526;-0.059;1.424;-0.7739;4.0;-13.48;23.16;-31.76;54.52;25.93;-7.9;2.0;989.48;40.884;35.95819;-83.92418;782.26;NaN;;;374.5161;;0 / 15;51009;2022-10-22 18:47:46:890
10.0433;-1.1324;10.4013;4.3619;-2.1992;8.5034;-0.8227;1.7206;-1.364;-0.2269;-2.068;0.6376;7.0;-6.98;20.33;-38.03;341.07;11.9;-16.37;2.0;989.39;34.705;35.95819;-83.92418;782.26;NaN;;;374.5161;;0 / 15;51509;2022-10-22 18:47:47:390
6.2976;-2.4909;7.156;4.5478;-0.7873;8.6526;-1.9623;-4.1727;2.6884;0.1355;-0.0252;-0.0155;5.0;-17.79;12.94;-42.22;338.8;4.6;-27.73;2.0;989.28;45.832;35.95819;-83.92418;782.26;NaN;;;374.5161;;0 / 15;52010;2022-10-22 18:47:47:891
5.5412;-3.4307;9.993;3.2452;-1.9853;9.0387;-0.5767;1.6522;1.4784;-0.2011;0.6282;-0.1532;6.0;-16.37;10.18;-43.18;304.88;8.88;-25.47;2.0;989.48;47.893;35.95819;-83.92418;782.26;NaN;;;374.5161;;0 / 15;52509;2022-10-22 18:47:48:390
1.4294;-2.825;9.9835;1.4611;-1.1326;9.6308;0.6285;-0.4151;0.6244;-0.5944;0.4661;-0.4837;18.0;-10.26;13.65;-34.78;17.7;5.01;-12.29;2.0;989.39;57.596;35.95819;-83.92418;782.26;NaN;;;374.5161;;0 / 15;53009;2022-10-22 18:47:48:890
0.7062;-2.7281;11.123;1.4106;-4.0277;8.8294;0.3711;1.412;-2.5201;-1.2777;0.5314;-1.8422;23.0;-12.26;20.36;-30.43;34.2;16.88;-9.7;2.0;989.39;47.729;35.95819;-83.92418;782.26;NaN;;;374.5161;;0 / 15;53509;2022-10-22 18:47:49:390
1.2066;-1.7249;8.1939;0.7275;-2.793;9.3723;-0.2009;0.0362;-2.5241;0.066;0.2798;-0.1589;22.0;-16.24;14.51;-33.34;70.84;16.55;-4.44;2.0;989.3;48.207;35.95819;-83.92418;782.26;NaN;;;374.5161;;0 / 15;54009;2022-10-22 18:47:49:890
0.297;-6.0918;5.977;-1.1575;-4.0458;8.8579;1.1264;-2.0261;3.8314;-0.3993;0.9078;-0.2661;28.0;-17.16;8.27;-39.07;109.5;24.37;7.44;2.0;989.23;50.777;35.95819;-83.92418;782.26;NaN;;;374.5161;;0 / 15;54509;2022-10-22 18:47:50:390
-0.9206;0.3485;8.3542;-0.9215;-0.2236;9.7607;0.3609;-0.2278;1.2331;1.8776;0.4031;-0.1829;29.0;-9.41;-3.58;-39.47;111.07;1.31;5.39;2.0;989.37;36.148;35.95819;-83.92418;782.26;NaN;;;374.5161;;0 / 15;55012;2022-10-22 18:47:50:893
-0.2082;0.5794;9.2052;0.1092;0.927;9.7621;-1.5633;-1.3003;-1.0745;-0.6241;0.1386;-0.6763;17.0;-5.51;-21.11;-33.71;162.37;-5.42;-0.64;2.0;989.36;44.931;35.95819;-83.92418;782.26;NaN;;;374.5161;;0 / 15;55510;2022-10-22 18:47:51:391
-0.4322;-2.2816;7.8826;-0.9449;-2.5524;9.4214;-0.3683;-0.7438;-1.161;0.2382;0.0957;-0.8309;9.0;7.37;-13.88;-38.16;187.68;15.09;5.73;2.0;989.28;39.798;35.95819;-83.92418;782.26;NaN;;;374.5161;;0 / 15;56009;2022-10-22 18:47:51:890
-0.7038;-0.9661;7.4958;-0.2347;-1.8682;9.6242;-1.9691;-0.1517;-0.1424;0.396;-0.9616;0.8295;7.0;12.96;-5.61;-40.67;205.77;13.55;7.41;2.0;989.25;39.009;35.95819;-83.92418;782.26;NaN;;;374.5161;;0 / 15;56510;2022-10-22 18:47:52:391
-0.9936;-3.451;9.2363;-1.274;-2.5873;9.373;0.9327;-1.7363;1.773;-0.0173;1.2889;-0.4852;7.0;2.03;-4.56;-42.02;166.96;15.3;7.74;2.0;989.24;47.971;35.95819;-83.92418;782.26;NaN;;;374.5161;;0 / 15;57009;2022-10-22 18:47:52:890
-2.0435;-1.5981;12.0867;-0.8394;-2.3028;9.4954;0.7709;-0.6411;4.1012;0.5883;0.4732;-0.1704;8.0;3.56;-2.36;-40.07;186.17;16.42;3.66;2.0;989.26;39.386;35.95819;-83.92418;782.26;NaN;;;374.5161;;0 / 15;57509;2022-10-22 18:47:53:390
1.1133;-4.7605;10.1222;1.3717;-0.4924;9.6978;-1.5535;0.1713;-1.9003;-0.3004;0.6087;0.2253;8.0;-9.73;-2.06;-33.71;126.17;2.88;-8.05;2.0;989.25;32.445;35.95819;-83.92418;782.26;NaN;;;374.5161;;0 / 15;58009;2022-10-22 18:47:53:890
0.5925;-1.3155;9.8459;0.6245;-3.691;9.064;-0.668;1.8567;0.1052;-0.1645;-0.2841;-1.0406;6.0;-11.08;3.9;-27.53;127.34;21.13;0.02;2.0;989.25;43.783;35.95819;-83.92418;782.26;NaN;;;374.5161;;0 / 15;58510;2022-10-22 18:47:54:391
1.7584;-4.829;5.5531;5.7861;-2.9483;7.3484;-3.5168;-1.4632;-0.4603;1.0553;-1.0616;0.0336;8.0;-16.41;13.31;-16.09;25.34;17.5;-38.22;2.0;989.21;38.328;35.95819;-83.92418;782.26;NaN;;;374.5161;;0 / 15;59009;2022-10-22 18:47:54:890
3.7253;-4.678;6.5815;3.2898;-5.7013;7.2693;0.6809;0.9529;-2.7341;-0.7749;0.2907;-0.5443;5.0;-16.22;19.52;-5.48;55.79;33.06;-22.76;2.0;989.17;40.161;35.95819;-83.92418;782.26;NaN;;;374.5161;;0 / 15;59509;2022-10-22 18:47:55:390
1.0905;-6.9583;6.9906;2.1863;-4.0376;8.6654;-1.5818;-3.7649;1.8921;1.9323;-1.859;0.6245;9.0;-18.43;19.84;-3.47;53.58;33.57;-19.44;2.0;989.2;43.422;35.95819;-83.92418;782.26;NaN;;;374.5161;;0 / 15;60013;2022-10-22 18:47:55:894
1.7417;-6.5444;11.4341;1.0371;-3.4162;9.1337;0.679;-0.9376;0.6474;-1.0374;0.4437;0.5523;11.0;-19.84;26.12;-0.88;40.37;20.39;-6.48;2.0;989.17;34.285;35.95819;-83.92418;782.26;NaN;;;374.5161;;0 / 15;60510;2022-10-22 18:47:56:391
2.1368;-3.2883;7.6349;2.2268;-5.2059;8.0069;0.2073;-1.3314;4.1587;0.2543;0.2299;0.2543;14.0;-29.06;26.03;2.06;56.38;32.06;-15.54;2.0;989.2;42.916;35.95819;-83.92418;782.26;NaN;;;374.5161;;0 / 15;61009;2022-10-22 18:47:56:890
5.4586;-1.2748;10.4791;2.3646;-1.2054;9.4407;-1.6965;-0.5215;-4.1538;-0.4833;-0.283;-0.0906;20.0;-45.19;12.77;-10.52;75.96;7.06;-14.06;2.0;989.05;51.177;35.95819;-83.92418;782.26;NaN;;;374.5161;;0 / 15;61509;2022-10-22 18:47:57:390
0.6619;-4.3621;5.971;2.1043;-3.0614;9.0758;-1.485;-2.8243;0.321;-0.301;-0.7592;-1.5341;26.0;-39.77;-11.16;-33.0;126.49;18.19;-13.05;2.0;989.01;44.725;35.95819;-83.92418;782.26;NaN;;;374.5161;;0 / 15;62009;2022-10-22 18:47:57:890
-1.7788;-1.7142;11.275;-0.4452;-2.0452;9.5807;1.2454;0.8143;1.979;1.1514;2.3366;0.6419;56.0;-17.93;-26.1;-42.37;166.01;18.11;-11.05;2.0;989.11;35.852;35.95819;-83.92418;782.26;NaN;;;374.5161;;0 / 15;62509;2022-10-22 18:47:58:390
-0.2237;1.0726;7.4563;-0.933;1.5082;9.645;1.2982;-2.5743;-1.0615;1.3371;0.6129;0.0653;49.0;12.92;-51.64;-32.78;191.95;-8.85;5.53;2.0;989.05;45.451;35.95819;-83.92418;782.26;NaN;;;374.5161;;0 / 15;63009;2022-10-22 18:47:58:890
1.7812;-1.6424;8.7625;1.2269;-2.7013;9.3471;-0.7564;0.9665;-0.622;-0.8284;0.2388;-1.2259;36.0;26.76;-51.17;-25.26;208.13;10.41;-4.83;2.0;989.07;39.441;35.95819;-83.92418;782.26;NaN;;;374.5161;;0 / 15;63509;2022-10-22 18:47:59:390
0.9817;-1.8398;7.0687;0.8356;-1.9379;9.5769;0.8389;-2.1973;-0.4554;0.191;0.0594;-0.9937;39.0;29.16;-13.95;-42.04;236.55;11.4;-4.99;2.0;989.06;37.278;35.95819;-83.92418;782.26;NaN;;;374.5161;;0 / 15;64009;2022-10-22 18:47:59:890
2.211;-2.1452;7.375;3.266;-2.8922;8.7828;1.0149;-1.2672;-1.4818;-0.474;1.691;-1.3301;22.0;13.43;-5.48;-34.57;244.7;17.6;-25.39;2.0;989.08;41.788;35.95819;-83.92418;782.26;NaN;;;374.5161;;0 / 15;64509;2022-10-22 18:48:00:390
2.9578;-3.1603;6.5408;2.8465;-3.3952;8.7487;-1.3652;-0.3229;-1.2831;0.335;-0.9626;0.0588;3.0;2.44;5.83;-20.87;262.74;20.26;-18.02;2.0;989.08;42.148;35.95819;-83.92418;782.26;NaN;;;374.5161;;0 / 15;65009;2022-10-22 18:48:00:890
2.1248;-4.4542;6.093;1.5145;-4.5674;8.5449;1.2824;-2.1383;0.9784;-0.3389;1.3805;-0.4913;2.0;0.32;4.18;-19.72;234.46;24.09;-16.92;2.0;989.06;47.091;35.95819;-83.92418;782.26;NaN;;;374.5161;;0 / 15;65509;2022-10-22 18:48:01:390
1.4016;-6.2557;10.2443;1.5783;-4.2928;8.6748;-0.9429;-2.0758;3.8123;0.4367;-0.6457;0.6872;2.0;6.23;4.26;-22.91;239.77;25.96;-10.31;2.0;989.12;45.986;35.95819;-83.92418;782.26;NaN;;;374.5161;;0 / 15;66009;2022-10-22 18:48:01:890
-0.1412;-5.036;7.6457;-0.2117;-2.0641;9.5846;1.7175;0.1553;-1.5083;-0.1263;1.7162;0.3099;2.0;5.46;-0.09;-19.67;227.12;12.15;1.27;2.0;989.06;36.535;35.95819;-83.92418;782.26;NaN;;;374.5161;;0 / 15;66509;2022-10-22 18:48:02:390
-0.8776;-1.8912;8.432;-0.2817;-3.9034;8.9919;0.3704;0.8722;0.3423;-0.0371;0.0659;-0.2961;4.0;5.04;1.35;-15.77;214.86;20.9;4.48;2.0;989.01;47.671;35.95819;-83.92418;782.26;NaN;;;374.5161;;0 / 15;67009;2022-10-22 18:48:02:890
-1.6328;-2.4251;5.5735;-0.2267;-3.592;9.1223;0.171;-1.9173;1.4124;-0.0593;0.0964;-0.358;6.0;1.73;3.66;-15.81;216.63;21.49;1.42;2.0;989.0;38.48;35.95819;-83.92418;782.26;NaN;;;374.5161;;0 / 15;67512;2022-10-22 18:48:03:393
-3.9132;-3.4714;8.7506;-1.5752;-6.0095;7.5878;-0.6238;1.5736;-0.0992;-0.2902;0.2395;-1.0119;8.0;6.98;3.32;-8.29;237.73;37.79;11.73;2.0;989.01;50.325;35.95819;-83.92418;782.26;NaN;;;374.5161;;0 / 15;68009;2022-10-22 18:48:03:890
-2.2732;-6.1756;6.8686;-1.1117;-4.5211;8.631;0.0629;-0.7761;-2.1494;-0.0056;0.4999;0.1532;10.0;8.93;6.73;-3.13;297.24;27.63;4.23;2.0;988.91;58.051;35.958393;-83.9244;778.71;NaN;;;63.577415;;0 / 15;68509;2022-10-22 18:48:04:390
0.437;-3.7804;7.7809;-1.0298;-4.5669;8.617;0.0525;-0.2481;-0.5502;0.566;-0.4423;-0.1235;11.0;15.54;4.44;0.02;279.49;27.76;6.82;2.0;988.91;51.564;35.958393;-83.9244;778.71;NaN;;;63.577415;;0 / 15;69009;2022-10-22 18:48:04:890
-0.7361;-1.5191;4.9678;0.0315;-2.9014;9.3676;1.8649;-0.5156;-2.0187;1.1229;0.4062;-1.3814;14.0;15.83;2.27;2.18;278.68;24.32;1.7;2.0;988.9;50.001;35.958393;-83.9244;778.71;NaN;;;63.577415;;0 / 15;69509;2022-10-22 18:48:05:390
-0.0766;-7.3439;7.8993;-0.5731;-5.7934;7.8916;-0.0512;-1.5982;3.2694;0.5084;0.3175;-0.601;16.0;6.11;0.6;7.07;305.76;36.21;4.15;2.0;988.92;45.967;35.958393;-83.9244;778.71;NaN;;;63.577415;;0 / 15;70010;2022-10-22 18:48:05:891
0.7241;-1.8601;7.7701;0.4139;-4.0373;8.9274;-0.228;1.3198;-1.5275;0.2117;0.1539;-0.5423;21.0;-2.66;0.11;7.95;43.42;26.22;-2.14;2.0;988.93;38.754;35.958393;-83.9244;778.71;NaN;;;63.577415;;0 / 15;70510;2022-10-22 18:48:06:391
0.2838;-5.4861;8.3853;-0.051;-2.3652;9.517;-0.6909;-4.1646;0.4123;0.4887;-0.2375;-0.4092;23.0;-18.41;4.33;10.78;69.92;13.96;0.31;2.0;988.92;37.49;35.958393;-83.9244;778.71;NaN;;;63.577415;;0 / 15;71010;2022-10-22 18:48:06:891
3.5599;-1.8529;12.125;2.1052;-1.8115;9.4052;-0.2608;0.5083;-0.828;0.5224;-1.0593;-0.0626;22.0;-33.3;11.79;10.22;68.49;13.09;-4.97;2.0;988.95;57.61;35.958393;-83.9244;778.71;NaN;;;63.577415;;0 / 15;71510;2022-10-22 18:48:07:391
2.187;-2.6731;6.3144;1.7488;-1.4412;9.5412;0.302;-2.0627;-1.6014;0.2346;0.0435;-0.7995;21.0;-49.26;-19.14;0.49;112.63;8.45;-10.39;2.0;988.82;44.995;35.958393;-83.9244;778.71;NaN;;;63.577415;;0 / 15;72010;2022-10-22 18:48:07:891
0.923;0.0227;11.2092;2.0603;0.0945;9.5873;-0.1799;-0.1534;1.2084;0.6001;-0.1947;-0.2041;24.0;-37.07;-38.34;-7.16;137.49;-0.55;-12.13;2.0;988.88;35.591;35.958393;-83.9244;778.71;NaN;;;63.577415;;0 / 15;72509;2022-10-22 18:48:08:390
3.2656;-3.2584;10.2168;2.2493;-0.4894;9.5327;0.2158;-1.3999;0.8433;-0.9292;0.3259;-1.5338;31.0;-16.99;-38.7;-16.58;162.45;2.86;-13.28;2.0;988.87;37.726;35.958393;-83.9244;778.71;NaN;;;63.577415;;0 / 15;73010;2022-10-22 18:48:08:891
1.2162;-1.6603;12.0915;0.5967;-0.9978;9.7375;0.0116;0.6419;-0.0431;0.0395;-0.3099;0.3525;12.0;3.24;-29.63;-32.46;188.51;5.84;-3.51;2.0;988.84;50.948;35.958393;-83.9244;778.71;NaN;;;63.577415;;0 / 15;73510;2022-10-22 18:48:09:391
0.3042;-2.1511;10.5473;0.4876;-1.7063;9.6448;-4.3767;0.8612;-2.5567;-1.3429;0.2594;-0.3117;7.0;16.24;-21.77;-41.91;212.13;10.02;-2.89;2.0;988.93;38.829;35.958393;-83.9244;778.71;NaN;;;63.577415;;0 / 15;74009;2022-10-22 18:48:09:890
-4.0268;-7.5918;7.605;-0.9493;-7.2592;6.5248;-1.3632;-0.9529;1.5076;-0.0854;2.9059;-2.2458;7.0;29.36;6.71;-38.98;224.64;44.82;6.54;2.0;988.83;41.744;35.958393;-83.9244;778.71;NaN;;;63.577415;;0 / 15;74509;2022-10-22 18:48:10:390
-3.1412;-8.0094;5.6106;-3.1008;-6.5413;6.6156;-2.9024;-0.8492;2.2186;0.044;-1.8154;2.2714;6.0;38.72;30.98;-16.11;274.79;41.84;25.11;2.0;988.83;65.284;35.958393;-83.9244;778.71;NaN;;;63.577415;;0 / 15;75009;2022-10-22 18:48:10:890
-0.6236;-11.639;0.9553;-1.2358;-8.3128;5.0537;0.9949;-4.6164;-1.2508;-2.0185;1.1338;-0.824;7.0;36.77;14.89;-32.96;243.65;40.34;12.13;2.0;988.87;48.618;35.958393;-83.9244;778.71;NaN;;;63.577415;;0 / 15;75510;2022-10-22 18:48:11:391
-1.9415;-11.1254;4.3226;0.0013;-9.7017;1.4305;-1.7777;-0.0836;5.2017;-0.5899;-0.6282;0.5015;7.0;26.91;39.69;-13.35;255.47;81.61;-0.05;2.0;988.83;37.132;35.958393;-83.9244;778.71;NaN;;;63.577415;;0 / 15;76009;2022-10-22 18:48:11:890
-2.4084;-11.1577;-0.2572;0.8336;-7.0935;6.72;-2.8179;-1.4696;-5.7571;1.4006;-0.6379;0.1149;5.0;20.61;39.21;-14.12;296.54;56.76;-4.14;2.0;988.78;38.537;35.958393;-83.9244;778.71;NaN;;;63.577415;;0 / 15;76509;2022-10-22 18:48:12:390
1.2078;-7.7306;6.428;0.6458;-9.5605;2.0855;0.4228;2.5051;4.0272;-0.5389;1.164;-0.2872;7.0;8.25;25.73;-26.76;222.51;77.14;-17.21;2.0;988.83;52.413;35.958393;-83.9244;778.71;NaN;;;63.577415;;0 / 15;77009;2022-10-22 18:48:12:890
-2.0806;-8.8606;1.1982;0.5793;-8.6391;4.6044;0.8354;-1.1456;-2.2318;1.2461;-1.114;-0.5766;6.0;13.16;30.68;-13.2;243.23;72.7;10.51;2.0;988.7;40.397;35.958393;-83.9244;778.71;NaN;;;63.577415;;0 / 15;77511;2022-10-22 18:48:13:392
0.8055;-7.2506;4.6923;0.9241;-8.7935;4.2416;0.0954;1.2418;-0.9079;-0.2307;1.446;-0.7575;10.0;11.79;20.08;-10.84;276.11;63.73;-12.29;2.0;988.71;46.378;35.958393;-83.9244;778.71;NaN;;;63.577415;;0 / 15;78010;2022-10-22 18:48:13:891
-0.3939;-8.3985;4.3705;-0.0878;-9.2588;3.2306;-1.1264;0.1856;2.3841;-1.1473;-1.2561;0.762;12.0;11.16;26.57;-3.34;297.92;70.76;1.56;2.0;988.73;49.596;35.958393;-83.9244;778.71;NaN;;;63.577415;;0 / 15;78509;2022-10-22 18:48:14:390
2.0901;-8.3925;4.7752;0.6632;-8.8639;4.1426;1.4658;-3.2325;-2.6945;-1.036;0.9906;-0.4206;14.0;8.59;23.14;-10.01;281.87;64.67;-9.1;2.0;988.69;45.845;35.958393;-83.9244;778.71;NaN;;;63.577415;;0 / 15;79010;2022-10-22 18:48:14:891
0.7947;-8.6186;6.5216;1.3624;-8.328;4.9958;-1.2044;0.9161;0.322;-0.5839;-0.0831;0.6666;20.0;11.21;24.08;-4.5;315.46;58.13;-15.25;2.0;988.7;39.05;35.958393;-83.9244;778.71;NaN;;;63.577415;;0 / 15;79509;2022-10-22 18:48:15:390
0.3437;-6.1935;7.6911;0.1172;-5.9889;7.7646;-0.8179;-0.6721;-1.746;1.4447;0.0829;0.3063;24.0;32.01;21.83;1.03;299.81;37.64;-0.86;2.0;988.65;42.497;35.958393;-83.9244;778.71;NaN;;;63.577415;;0 / 15;80010;2022-10-22 18:48:15:891
1.8242;-4.0101;7.0184;1.3962;-3.7499;8.9532;1.0706;-0.6152;-2.6663;0.5388;-0.9506;-0.5944;37.0;42.56;9.21;-26.34;264.73;27.82;-0.53;2.0;988.69;61.292;35.958393;-83.9244;778.71;NaN;;;63.577415;;0 / 15;80509;2022-10-22 18:48:16:390
1.8278;-0.6763;8.9587;1.9988;-0.9871;9.5499;0.6063;-0.1942;-1.858;0.4448;0.8425;-0.5793;43.0;12.94;-4.89;-64.78;254.38;10.12;-16.9;2.0;988.64;42.515;35.958393;-83.9244;778.71;NaN;;;63.577415;;0 / 15;81009;2022-10-22 18:48:16:890
1.1503;-1.3645;7.7115;1.2249;-0.9395;9.6844;0.2463;-0.2034;-2.1099;-0.1561;0.2747;-0.9765;44.0;1.14;-8.94;-63.99;211.17;5.48;-7.26;2.0;988.61;44.573;35.958393;-83.9244;778.71;NaN;;;63.577415;;0 / 15;81510;2022-10-22 18:48:17:391
1.4916;-1.0546;8.1497;0.7416;-2.1461;9.5402;1.1306;-0.8255;-0.7889;-0.0653;0.2888;-0.7872;41.0;0.9;-9.81;-55.29;193.6;12.64;-4.44;2.0;988.61;50.542;35.958393;-83.9244;778.71;NaN;;;63.577415;;0 / 15;82010;2022-10-22 18:48:17:891
-0.8895;-3.0981;10.2359;0.7377;-1.8291;9.6063;-0.2399;-1.302;-2.1631;-0.1184;-0.2786;-0.5821;20.0;12.21;-5.89;-44.72;220.4;12.05;-1.2;2.0;988.61;37.985;35.958393;-83.9244;778.71;NaN;;;63.577415;;0 / 15;82511;2022-10-22 18:48:18:392
-0.358;-4.2891;9.6888;0.5546;-3.8732;8.9923;-1.2782;-0.7558;0.9617;-0.6437;-0.2958;-1.1409;9.0;14.19;7.01;-33.11;248.71;23.26;-3.53;2.0;988.62;43.162;35.958393;-83.9244;778.71;NaN;;;63.577415;;0 / 15;83009;2022-10-22 18:48:18:890
-0.0479;-2.6563;8.0955;-0.1702;-3.021;9.3282;-2.0879;2.0357;2.1185;-0.4102;0.3311;1.1146;10.0;4.41;21.45;-28.44;336.28;16.56;-2.81;2.0;988.58;37.902;35.958393;-83.9244;778.71;NaN;;;63.577415;;0 / 15;83510;2022-10-22 18:48:19:391
0.0395;-4.6373;8.1784;0.9181;-2.3633;9.4732;-0.1241;-0.9246;-1.9384;-0.8667;1.2039;-0.0653;9.0;-6.69;15.06;-26.68;28.85;13.95;-5.54;2.0;988.54;40.738;35.958393;-83.9244;778.71;NaN;;;63.577415;;0 / 15;84010;2022-10-22 18:48:19:891
1.3274;-3.7588;8.3578;0.748;-4.2305;8.8155;0.1756;0.0622;-0.3519;0.1246;0.2167;-0.633;4.0;-5.61;13.37;-22.24;63.51;25.56;-4.85;2.0;988.57;42.756;35.958393;-83.9244;778.71;NaN;;;63.577415;;0 / 15;84509;2022-10-22 18:48:20:390
1.0786;-2.3545;8.286;2.6302;-2.1938;9.1891;-1.7436;0.1832;-2.2869;0.5449;-1.2721;0.4319;4.0;0.04;10.41;-20.44;314.69;12.93;-15.97;2.0;988.47;47.576;35.958393;-83.9244;778.71;NaN;;;63.577415;;0 / 15;85009;2022-10-22 18:48:20:890
-0.7839;-3.5013;7.5858;1.0376;-3.8793;8.9468;2.4075;-1.3664;1.4593;-0.26;0.8153;-1.4608;5.0;5.03;6.73;-17.4;269.81;23.3;-6.62;2.0;988.48;43.065;35.958393;-83.9244;778.71;NaN;;;63.577415;;0 / 16;85509;2022-10-22 18:48:21:390
-4.089;-7.4109;16.1279;-0.0779;-4.8242;8.5377;-2.5432;1.22;3.1719;-0.8392;-0.1826;1.7361;7.0;-2.59;25.22;-16.07;12.74;29.47;0.52;2.0;988.63;46.648;35.958393;-83.9244;778.71;NaN;;;63.577415;;0 / 16;86010;2022-10-22 18:48:21:891
-1.0893;-5.9674;9.8495;-0.4708;-2.7046;9.4146;1.1303;-2.1881;-1.2298;-0.9338;0.9359;-0.8098;7.0;2.16;27.13;-18.96;353.72;9.22;-1.81;2.0;988.52;43.279;35.958393;-83.9244;778.71;NaN;;;63.577415;;0 / 16;86509;2022-10-22 18:48:22:390
-0.7098;-1.9331;9.4137;0.0202;-3.8156;9.0339;-1.2953;1.484;-0.0038;0.0552;-0.219;-0.5198;8.0;-0.06;32.27;-21.02;359.87;22.9;-0.13;2.0;988.5;46.199;35.958393;-83.9244;778.71;NaN;;;63.577415;;0 / 16;87009;2022-10-22 18:48:22:890
-2.9925;-1.9331;7.0675;-1.7142;-2.3919;9.3547;-0.1128;0.5055;-2.6903;0.0924;-0.241;0.45;13.0;6.36;32.76;-19.72;356.18;15.82;11.92;2.0;988.46;47.39;35.958393;-83.9244;778.71;NaN;;;63.577415;;0 / 15;87510;2022-10-22 18:48:23:391
-1.1611;-1.9403;8.0979;-2.4106;-2.6288;9.135;1.0223;-0.1207;-1.169;0.5295;-0.3274;-0.0231;15.0;24.56;25.2;-21.04;311.99;15.55;14.78;2.0;988.39;69.458;35.958393;-83.9244;778.71;NaN;;;63.577415;;0 / 15;88009;2022-10-22 18:48:23:890
-2.333;-2.3139;5.91;-3.3577;-3.2812;8.6099;-1.5092;-2.1382;4.0207;0.1461;0.317;-0.0362;20.0;26.21;19.91;-26.53;296.26;18.96;18.61;2.0;988.54;63.542;35.958393;-83.9244;778.71;NaN;;;63.577415;;0 / 16;88509;2022-10-22 18:48:24:390
-1.2377;-2.6647;9.1741;-2.3029;-2.43;9.2175;0.4952;0.0048;-0.117;-0.1087;-0.0869;-0.1863;23.0;20.03;18.06;-31.26;306.46;14.35;14.03;2.0;988.41;50.238;35.958393;-83.9244;778.71;NaN;;;63.577415;;0 / 16;89009;2022-10-22 18:48:24:890
-1.3908;-1.8517;8.123;-2.2473;-3.0448;9.047;-1.3175;-0.3618;-0.7525;0.6673;0.849;-1.487;25.0;10.35;19.11;-33.49;336.03;19.95;12.32;2.0;988.44;35.516;35.958393;-83.9244;778.71;NaN;;;63.577415;;0 / 16;89509;2022-10-22 18:48:25:390
1.9199;-2.9997;9.5189;2.2582;-1.5423;9.4177;-1.1511;-1.428;-1.1207;0.055;-1.3359;0.1301;24.0;-12.11;14.19;-32.01;26.36;9.05;-13.48;2.0;988.37;45.214;35.958393;-83.9244;778.71;NaN;;;63.577415;;0 / 16;90009;2022-10-22 18:48:25:890
-2.4096;-0.14;10.0493;1.7;-1.0105;9.6052;1.7695;0.2014;-1.6869;-0.316;1.358;-1.0262;21.0;-26.87;16.22;-23.17;59.88;5.91;-10.04;2.0;988.41;38.617;35.958393;-83.9244;778.71;NaN;;;63.577415;;0 / 16;90510;2022-10-22 18:48:26:391
-0.3915;-3.7217;8.286;-0.514;-3.4318;9.1722;0.7151;-0.4691;-2.4734;-0.1959;0.5494;-2.1079;20.0;-30.54;1.78;-24.28;100.36;20.48;3.21;2.0;988.34;50.397;35.958393;-83.9244;778.71;NaN;;;63.577415;;0 / 16;91010;2022-10-22 18:48:26:891
-0.8859;-3.699;8.1413;-0.9153;-2.7751;9.3612;-1.3631;1.0292;1.8801;0.8013;-0.3582;-0.7404;27.0;-12.58;-12.94;-33.86;143.16;16.44;5.58;2.0;988.42;37.728;35.958393;-83.9244;778.71;NaN;;;63.577415;;0 / 16;91510;2022-10-22 18:48:27:391
-2.4347;-5.024;12.6793;-0.4938;-2.2899;9.5228;0.3002;-0.0664;0.4048;-0.3977;0.452;-1.0146;25.0;3.21;-27.38;-33.71;182.07;13.5;2.97;2.0;988.37;40.491;35.958393;-83.9244;778.71;NaN;;;63.577415;;0 / 16;92009;2022-10-22 18:48:27:890
-2.2038;-1.7333;9.3969;-0.9287;-2.0745;9.5396;-0.2416;-0.3346;1.7429;0.4494;-0.0325;0.3038;10.0;9.9;-26.68;-31.37;194.4;16.17;2.02;2.0;988.33;33.212;35.958393;-83.9244;778.71;NaN;;;63.577415;;0 / 16;92509;2022-10-22 18:48:28:390
0.201;-0.5794;6.9284;0.3025;-1.3472;9.709;-1.091;-0.804;-2.4154;0.5888;-0.1878;-0.3692;8.0;8.98;-24.69;-26.4;196.8;12.43;-0.13;2.0;988.27;41.124;35.958393;-83.9244;778.71;NaN;;;63.577415;;0 / 16;93009;2022-10-22 18:48:28:890
1.951;-3.9275;7.4348;2.2322;-1.1558;9.479;-0.6301;-3.9501;1.7913;0.0838;0.2333;-0.032;6.0;-4.27;-23.64;-16.87;181.95;4.73;-16.08;2.0;988.18;44.966;35.95833;-83.924385;768.15;NaN;;0.0;313.13782;;0 / 16;93510;2022-10-22 18:48:29:391
1.4306;-2.6815;11.8854;2.2912;0.4073;9.5265;-2.0967;-0.4175;-0.335;-1.3404;0.2046;1.2042;7.0;-6.28;-16.56;-18.77;175.08;-2.38;-13.52;2.0;988.28;38.571;35.95833;-83.924385;768.15;NaN;;0.0;313.13782;;0 / 16;94010;2022-10-22 18:48:29:891
-0.1256;-0.1364;5.1592;1.4478;0.3764;9.6919;-1.9854;-0.6757;-3.0706;1.2832;0.2086;0.4776;12.0;-7.84;-9.98;-21.92;163.83;7.67;-10.72;2.0;988.18;41.124;35.958336;-83.9244;768.17;NaN;;0.0;223.58682;;6 / 16;94509;2022-10-22 18:48:30:390
1.0834;-3.2489;10.2132;0.3988;-0.5483;9.7832;0.4667;-2.1536;-0.0829;-0.5356;0.1769;-0.7066;14.0;-10.95;1.91;-21.9;85.79;3.21;-2.33;2.0;988.14;39.604;35.958336;-83.9244;768.17;NaN;;0.0;223.58682;;6 / 16;95009;2022-10-22 18:48:30:890
2.0746;3.2991;8.8929;0.5577;1.3489;9.6974;-1.0018;0.7981;-3.1423;0.6296;-0.0244;-0.3921;16.0;-14.12;9.23;-24.3;51.22;-2.45;-3.5;2.0;988.21;36.258;35.958344;-83.92441;768.2;NaN;;0.0;179.08817;;7 / 17;95509;2022-10-22 18:48:31:390
-1.5658;0.6129;8.7362;-1.0808;1.2411;9.6676;-1.3311;-0.6615;-1.6183;0.0927;-0.3285;-0.513;17.0;-7.95;-1.57;-28.8;82.1;-7.27;6.38;2.0;988.09;55.579;35.958344;-83.92441;768.2;NaN;;0.0;179.08817;;7 / 17;96009;2022-10-22 18:48:31:890
3.4235;3.1412;9.6362;0.6634;1.7932;9.6185;0.3632;0.7376;-2.6343;-0.0344;-0.0054;0.0202;21.0;2.08;-13.13;-32.87;212.16;-10.54;-3.95;2.0;988.13;44.221;35.958344;-83.92441;768.2;NaN;;0.0;179.08817;;8 / 17;96509;2022-10-22 18:48:32:390
-0.8103;-3.4642;8.1473;0.4195;-2.0589;9.5789;-0.6138;-2.3547;1.1634;-0.0075;1.0787;-0.3105;22.0;-0.88;-14.74;-38.98;181.77;12.12;-2.51;2.0;988.08;52.796;35.958344;-83.92441;768.2;NaN;;0.0;179.08817;;8 / 17;97009;2022-10-22 18:48:32:890
2.8478;-0.5554;9.1705;2.1099;-0.9717;9.5276;0.3985;-0.6515;-2.064;0.5481;0.2245;-0.6625;46.0;3.43;-16.07;-45.97;212.37;5.69;-12.49;2.0;988.13;65.261;35.95835;-83.92445;768.28;NaN;;0.0;92.25893;;8 / 17;97509;2022-10-22 18:48:33:390
1.5909;-0.8788;9.9512;2.2637;0.4678;9.5303;0.6293;-0.8686;-0.642;-0.2274;0.0753;-0.9675;49.0;9.79;-20.89;-40.14;224.61;-2.73;-13.36;2.0;988.09;52.583;35.95835;-83.92445;768.28;NaN;;0.0;92.25893;;8 / 17;98009;2022-10-22 18:48:33:890
1.069;-2.205;8.9336;1.3509;-2.3034;9.4361;-0.1833;-1.7688;1.2121;-0.568;0.9408;-1.7695;41.0;8.36;-11.59;-37.91;219.19;10.53;-10.77;2.0;988.15;53.57;35.95835;-83.92445;768.28;NaN;;0.0;92.25893;;9 / 17;98509;2022-10-22 18:48:34:390
0.8091;-3.7158;7.599;0.9232;-1.82;9.592;1.8763;-2.672;2.069;0.4813;-0.4191;-0.5707;40.0;19.54;7.73;-25.95;278.66;10.7;-5.5;2.0;988.1;45.089;35.95835;-83.92445;768.28;NaN;;0.0;92.25893;;9 / 17;99010;2022-10-22 18:48:34:891
0.4705;-5.0587;11.0608;0.7093;-2.5944;9.4306;1.1823;-1.2112;1.2588;-0.6106;1.6811;-1.2883;27.0;21.79;7.29;-15.73;280.03;12.29;-10.45;2.0;988.12;48.994;35.95835;-83.92445;768.28;NaN;;0.0;92.25893;;9 / 17;99510;2022-10-22 18:48:35:391
0.4071;-1.5766;9.7738;-0.0012;-2.8057;9.3967;-0.245;0.3663;0.2136;0.2346;0.0215;-0.0342;12.0;8.06;10.33;4.63;324.0;16.63;0.01;2.0;988.12;40.782;35.95835;-83.92445;768.28;NaN;;0.0;92.25893;;9 / 17;100009;2022-10-22 18:48:35:890
-0.7337;-1.7465;6.9404;0.5494;-1.9791;9.5891;-0.6899;-1.7873;0.1477;0.4623;0.1026;-0.4801;12.0;-11.1;5.87;10.13;54.67;15.1;-3.51;2.0;988.11;39.376;35.958347;-83.92446;768.2;NaN;;0.0;94.626335;;9 / 17;100510;2022-10-22 18:48:36:391
-1.7429;-4.101;9.0736;-0.077;-3.6605;9.0976;-1.4321;-0.8879;1.0376;-0.034;-0.2291;-0.2237;11.0;-30.17;8.93;10.69;67.23;21.92;0.48;2.0;988.12;34.958;35.958347;-83.92446;768.2;NaN;;0.0;94.626335;;9 / 17;101009;2022-10-22 18:48:36:890
-2.3521;-3.5468;11.0943;-0.6994;-3.6412;9.0787;0.7943;0.1047;1.917;-0.133;0.8724;0.1977;17.0;-35.27;6.77;7.28;76.04;20.63;-1.28;2.0;988.08;39.448;35.958347;-83.92446;768.2;NaN;;0.0;94.626335;;8 / 17;101509;2022-10-22 18:48:37:390
0.4394;-6.585;12.4899;-1.0216;-3.1663;9.225;1.7308;-1.8503;-0.8902;-0.9559;2.5782;-0.2549;15.0;-28.16;16.11;10.59;53.54;18.84;6.32;2.0;988.02;37.1;35.958347;-83.92446;768.2;NaN;;0.0;94.626335;;8 / 17;102009;2022-10-22 18:48:37:890
-1.2688;-1.0187;8.5313;-1.4231;-3.1369;9.1818;0.4646;0.5676;-0.1985;0.2062;0.0886;-0.304;24.0;-30.49;13.95;2.51;61.75;18.66;8.81;2.0;988.04;44.955;35.958347;-83.92446;768.2;NaN;;0.0;94.626335;;7 / 17;102509;2022-10-22 18:48:38:390
-2.1332;-7.7737;7.922;-0.396;-5.0405;8.4028;0.9351;0.5299;-4.394;-1.0604;1.1879;-0.8643;32.0;-23.01;-1.05;-5.81;98.27;30.93;2.7;2.0;987.97;47.109;35.958347;-83.92446;768.2;NaN;;0.0;94.626335;;7 / 17;103010;2022-10-22 18:48:38:891
-3.6162;-6.0894;5.7936;-1.6881;-8.235;5.0503;0.6466;-0.5176;2.8244;-0.2239;-0.2724;-1.0145;28.0;-6.69;-4.27;-10.61;131.85;57.11;18.48;2.0;988.01;44.096;35.958347;-83.92446;768.2;NaN;;0.0;94.626335;;6 / 17;103509;2022-10-22 18:48:39:390
-2.3402;-9.5106;6.5611;-1.3722;-8.3542;4.9491;-0.9464;-0.1891;3.766;0.1811;-1.3745;0.8567;30.0;5.44;4.86;-12.56;188.32;58.42;15.5;2.0;988.07;44.272;35.958347;-83.92446;768.2;NaN;;0.0;94.626335;;6 / 17;104009;2022-10-22 18:48:39:890
-0.7708;-6.6473;10.7219;-1.0919;-5.297;8.1804;-0.2196;-1.2945;-1.3135;-1.2826;-0.5872;0.6651;37.0;-1.59;4.52;-14.47;107.71;25.45;8.65;2.0;987.95;60.638;35.958347;-83.92446;768.2;NaN;;0.0;94.626335;;6 / 17;104510;2022-10-22 18:48:40:391
1.9872;-1.9092;7.9998;1.3986;-2.1322;9.4693;0.644;-1.2286;-2.072;1.0958;-0.8253;-0.265;36.0;-13.27;10.65;-9.21;54.0;12.56;-8.4;2.0;987.96;59.939;35.958347;-83.92446;768.2;NaN;;0.0;94.626335;;6 / 17;105009;2022-10-22 18:48:40:890
0.7863;0.9852;8.3602;0.3526;0.2556;9.797;-0.072;0.6343;-0.4962;-0.0674;0.3985;0.0109;30.0;-13.11;16.28;-14.27;37.68;-0.11;-2.5;2.0;987.87;42.457;35.958347;-83.92445;768.19;NaN;;0.0;108.675446;;6 / 17;105509;2022-10-22 18:48:41:390
4.4495;-0.4214;10.3615;2.4665;1.0203;9.4364;0.7714;-1.3202;-0.8249;-0.01;-0.3144;-0.8579;39.0;-7.46;22.39;-20.49;4.07;-5.97;-14.65;2.0;987.93;54.233;35.958347;-83.92445;768.19;NaN;;0.0;108.675446;;6 / 17;106009;2022-10-22 18:48:41:890
5.1209;2.1416;8.1808;3.5406;2.4952;8.7982;0.019;-0.5178;-0.7446;-0.0429;-0.239;-0.7536;52.0;-10.35;16.71;-24.99;1.83;-12.74;-20.27;2.0;987.91;41.362;35.95836;-83.924446;768.27;NaN;;0.0;102.14056;;6 / 17;106509;2022-10-22 18:48:42:390
4.544;2.3749;7.0819;3.8988;3.6877;8.2079;0.1376;-1.3473;-0.6614;0.002;-0.0373;-0.1595;87.0;-23.46;8.89;-31.39;16.5;-21.36;-24.11;2.0;987.94;38.691;35.95836;-83.924446;768.27;NaN;;0.0;102.14056;;6 / 17;107009;2022-10-22 18:48:42:890
2.5283;3.8916;7.4348;3.8698;4.1982;7.9731;-1.0755;-1.7568;1.016;-0.129;-0.9341;-1.5199;212.0;-31.88;-2.12;-33.32;46.53;-23.5;-23.53;2.0;987.94;45.433;35.95836;-83.924446;768.27;NaN;;0.0;102.14056;;6 / 17;107509;2022-10-22 18:48:43:390
3.6233;3.256;7.0819;3.7353;4.4094;7.9231;0.3523;0.4916;0.7641;-0.3604;0.5731;-0.2772;183.0;-45.34;-23.44;-27.77;91.05;-26.72;-25.24;2.0;987.91;39.759;35.95836;-83.924446;768.27;NaN;;0.0;102.14056;;6 / 17;108010;2022-10-22 18:48:43:891
1.5132;1.5299;11.6186;2.9409;2.7673;8.9366;0.3293;-0.3216;2.2008;-0.337;0.0736;-0.3812;169.0;-40.67;-24.77;-34.95;111.42;-16.39;-18.22;2.0;987.94;42.044;35.95836;-83.924446;768.27;NaN;;0.0;102.14056;;7 / 17;108510;2022-10-22 18:48:44:391
6.7119;1.4641;9.7247;3.6548;3.0686;8.5672;2.598;-0.9835;0.5166;0.3015;0.1273;-1.0513;80.0;-36.32;-24.26;-26.25;115.43;-18.23;-23.1;2.0;987.94;37.634;35.95836;-83.924446;768.27;NaN;;0.0;102.14056;;7 / 17;109010;2022-10-22 18:48:44:891
3.7373;4.1285;7.6469;2.6445;4.404;8.3535;-0.759;1.2222;-1.0969;-0.5992;0.3706;-0.2349;25.0;-33.11;-26.12;-22.72;109.97;-26.68;-17.57;2.0;987.93;45.413;35.95836;-83.924446;768.27;NaN;;0.0;102.14056;;6 / 17;109509;2022-10-22 18:48:45:390
1.3298;2.4802;7.6911;2.9132;2.5484;9.0105;-2.1407;0.5629;-0.8049;-0.6708;-0.648;-0.2714;24.0;-38.89;-25.24;-20.34;117.45;-15.06;-17.92;2.0;987.88;41.199;35.95836;-83.924446;768.27;NaN;;0.0;102.14056;;6 / 17;110009;2022-10-22 18:48:45:890
3.3757;3.8055;7.4862;2.9179;3.2646;8.7749;-0.9647;2.0395;-0.5277;-0.5543;0.2692;-0.3581;24.0;-28.99;-28.5;-12.06;130.6;-20.9;-21.69;2.0;987.88;39.034;35.958344;-83.924416;768.3;NaN;;0.0;78.97376;;6 / 17;110509;2022-10-22 18:48:46:390
-1.1396;1.8817;10.0624;1.1754;1.3299;9.6447;1.1477;0.5507;-0.7874;-0.7532;0.431;-0.2218;20.0;-14.29;-23.36;-12.77;149.36;-7.79;-6.95;2.0;987.86;52.854;35.958344;-83.924416;768.3;NaN;;0.0;78.97376;;6 / 17;111009;2022-10-22 18:48:46:890
-1.0403;2.1978;11.767;0.5696;2.5028;9.4648;0.2087;-0.3643;2.1247;0.8166;0.9345;0.2027;21.0;-8.61;-18.99;-14.66;158.49;-8.24;-9.18;2.0;987.86;44.741;35.958332;-83.9244;768.71;NaN;;0.0;66.49966;;9 / 17;111509;2022-10-22 18:48:47:390
2.9267;3.4032;8.6151;0.8105;4.0079;8.9135;0.0717;0.2009;-1.2137;0.3269;0.7953;0.5001;30.0;-8.64;-21.45;-13.61;149.64;-24.12;-5.2;2.0;987.82;42.098;35.958332;-83.9244;768.71;NaN;;0.0;66.49966;;9 / 17;112010;2022-10-22 18:48:47:891
0.0479;0.7253;10.5927;0.3033;1.0861;9.7416;-0.5343;-1.8049;-1.3513;-0.0898;0.1807;-0.6825;44.0;-17.89;-15.38;-21.39;125.77;-7.12;-2.95;2.0;987.82;47.947;35.958324;-83.924385;768.55;NaN;;0.0;51.571568;;10 / 17;112509;2022-10-22 18:48:48:390
4.8673;5.2178;5.3833;2.5868;6.0879;7.2399;2.5402;-0.9636;-2.879;-0.0416;0.8424;-0.1687;55.0;-33.9;-31.76;-20.29;103.97;-38.37;-19.66;2.0;987.79;45.338;35.958324;-83.924385;768.55;NaN;;0.0;51.571568;;10 / 17;113012;2022-10-22 18:48:48:893
0.9494;5.3498;6.9224;1.6665;6.8818;6.7848;-1.943;1.588;4.3005;0.7125;-1.186;0.0431;86.0;-43.35;-38.89;-4.31;116.91;-41.75;-10.96;2.0;987.78;43.76;35.958324;-83.924385;768.55;NaN;;0.0;51.571568;;9 / 17;113510;2022-10-22 18:48:49:391
-0.8067;7.794;8.2525;0.2188;4.8234;8.5357;0.4754;0.5797;-0.94;0.8251;0.8811;0.3186;100.0;-33.36;-53.59;-4.03;143.62;-29.46;-1.47;2.0;987.74;45.935;35.958324;-83.924385;768.55;NaN;;0.0;51.571568;;9 / 17;114009;2022-10-22 18:48:49:890
0.3413;2.7173;9.8483;0.0424;4.8319;8.5335;1.4058;-1.1768;0.4435;-0.2542;0.0504;-0.6622;145.0;-29.12;-58.56;-5.21;149.3;-29.52;-0.28;2.0;987.75;44.761;35.958317;-83.9244;770.23;NaN;;0.0;37.78649;;12 / 17;114510;2022-10-22 18:48:50:391
1.4713;1.7752;8.8451;1.4885;2.6621;9.3203;-0.998;-1.9525;-0.3906;0.5177;-0.7863;-0.6136;159.0;-7.99;-61.44;-9.79;173.52;-15.75;-9.07;2.0;987.75;46.644;35.958317;-83.9244;770.23;NaN;;0.0;37.78649;;12 / 17;115009;2022-10-22 18:48:50:890
0.4777;2.9052;8.4763;0.5897;3.4674;9.1542;-1.9084;-0.3868;-2.2284;-0.0932;-0.0463;0.4244;128.0;3.81;-59.25;-11.72;185.33;-20.71;-3.69;2.0;987.68;52.524;35.958286;-83.92444;773.01;NaN;;0.0;26.634169;;13 / 17;115509;2022-10-22 18:48:51:390
-1.2808;1.9223;11.8555;1.2826;2.2367;9.4616;1.4937;-0.4236;0.7247;-0.4103;0.1682;-0.8392;179.0;1.43;-50.47;-17.62;184.37;-13.18;-7.72;2.0;987.71;45.454;35.958286;-83.92444;773.01;NaN;;0.0;26.634169;;13 / 17;116009;2022-10-22 18:48:51:890
2.9375;2.4311;8.7733;1.2831;2.8013;9.31;1.4375;-1.0368;0.0334;-0.0232;0.0452;-2.005;212.0;9.92;-42.06;-21.51;201.59;-14.56;-11.36;2.0;987.69;43.542;35.95826;-83.924446;772.67;NaN;;0.0;24.532305;;13 / 17;116509;2022-10-22 18:48:52:390
-2.2277;3.4786;7.6863;-1.7607;4.0106;8.7742;0.0754;0.2997;-0.4182;0.0042;-0.2009;-0.9866;223.0;25.99;-24.6;-24.06;240.26;-22.39;8.89;2.0;987.71;46.328;35.95826;-83.924446;772.67;NaN;;0.0;24.532305;;13 / 17;117009;2022-10-22 18:48:52:890
-0.5052;-0.3556;8.6629;-0.1943;3.4654;9.1719;0.0558;-0.9313;1.1657;0.7473;-1.2484;-1.8155;245.0;31.16;6.6;-32.19;300.71;-19.1;2.59;2.0;987.72;45.197;35.95827;-83.92446;772.38;NaN;;0.0;24.695356;;13 / 17;117509;2022-10-22 18:48:53:390
-2.4562;2.9554;10.6514;-2.3109;3.0117;9.0421;0.1419;1.0006;-0.8015;-0.4764;-0.3991;-0.5429;293.0;11.83;16.01;-44.59;359.06;-17.89;14.34;2.0;987.71;45.46;35.95827;-83.92446;772.38;NaN;;0.0;24.695356;;13 / 17;118009;2022-10-22 18:48:53:890
-3.2082;2.8071;8.0429;-2.3468;2.7841;9.1056;-0.3953;-0.3701;-0.2958;-0.0405;0.2805;-0.0131;257.0;15.08;16.54;-45.69;355.1;-16.26;15.03;2.0;987.66;44.74;35.95827;-83.92447;773.2;NaN;;0.0;22.74864;;13 / 17;118509;2022-10-22 18:48:54:390
-1.5634;2.3773;8.9264;-1.9959;3.0637;9.0995;-0.4878;-0.8925;2.091;-0.1824;-0.025;-0.1455;245.0;17.31;12.36;-47.51;346.91;-18.2;12.37;2.0;987.68;47.64;35.95827;-83.92447;773.2;NaN;;0.0;22.74864;;13 / 17;119010;2022-10-22 18:48:54:891
-2.2552;4.0017;9.2411;-1.784;3.2618;9.0746;0.8455;0.1753;-0.6609;0.2652;0.128;-0.5508;235.0;11.12;9.69;-48.92;350.92;-18.1;8.08;2.0;987.64;46.403;35.958263;-83.9245;774.34;NaN;;0.0;20.677414;;13 / 17;119509;2022-10-22 18:48:55:390
-4.7246;2.7413;7.8586;-3.4833;3.4882;8.4776;-0.5988;-1.1716;-0.436;0.3709;0.292;0.1257;155.0;5.01;5.98;-46.65;29.0;-18.32;19.73;2.0;987.62;52.297;35.958263;-83.9245;774.34;NaN;;0.0;20.677414;;13 / 17;120011;2022-10-22 18:48:55:892