ACCELEROMETER X (m/s²);ACCELEROMETER Y (m/s²);ACCELEROMETER Z (m/s²);GRAVITY X (m/s²);GRAVITY Y (m/s²);GRAVITY Z (m/s²);LINEAR ACCELERATION X (m/s²);LINEAR ACCELERATION Y (m/s²);LINEAR ACCELERATION Z (m/s²);GYROSCOPE X (rad/s);GYROSCOPE Y (rad/s);GYROSCOPE Z (rad/s);LIGHT (lux);MAGNETIC FIELD X (μT);MAGNETIC FIELD Y (μT);MAGNETIC FIELD Z (μT);ORIENTATION Z (azimuth °);ORIENTATION X (pitch °);ORIENTATION Y (roll °);PROXIMITY (i);ATMOSPHERIC PRESSURE (hPa);SOUND LEVEL (dB);LOCATION Latitude : ;LOCATION Longitude : ;LOCATION Altitude ( m);LOCATION Altitude-google ( m);LOCATION Altitude-atmospheric pressure ( m);LOCATION Speed ( Kmh);LOCATION Accuracy ( m);LOCATION ORIENTATION (°);Satellites in range;Time since start in ms ;YYYY-MO-DD HH-MI-SS_SSS
-1.2233;2.9004;9.2088;-2.0544;2.8722;9.1488;-0.8502;1.1381;-1.0732;-0.2377;-0.8485;0.1543;11.0;25.26;-19.37;-4.01;237.81;-19.08;19.16;2.0;990.46;25.744;35.958664;-83.924835;791.29;NaN;;;47.503223;;0 / 15;24;2022-10-22 18:33:23:288
-4.7139;-4.0567;11.8125;-3.6961;-2.6417;8.6909;-0.0126;2.8829;-0.6694;-1.6147;0.0123;-1.3895;8.0;24.9;-20.62;-14.98;217.24;3.96;22.97;2.0;990.46;31.989;35.958664;-83.924835;791.29;NaN;;;47.503223;;0 / 15;524;2022-10-22 18:33:23:788
-2.3521;-2.0614;10.1892;-1.3309;-0.5941;9.6977;0.1643;-1.7395;-0.0882;1.0158;0.0474;-0.8154;5.0;31.58;-19.05;-18.66;227.82;9.93;15.49;2.0;990.44;29.158;35.958664;-83.924835;791.29;NaN;;;47.503223;;0 / 15;1023;2022-10-22 18:33:24:287
-0.5554;-0.1938;10.82;-1.2834;0.8016;9.6892;-0.7444;-0.2375;-0.0699;0.1305;-0.982;0.7165;4.0;41.46;-19.71;-30.75;241.54;-2.88;12.64;2.0;990.43;37.549;35.958664;-83.924835;791.29;NaN;;;47.503223;;0 / 15;1523;2022-10-22 18:33:24:787
-3.1304;-0.4334;10.783;-0.6976;0.4507;9.7714;-2.2022;-0.3947;-0.4473;-0.1935;-0.0965;-0.5847;4.0;43.82;-25.72;-35.59;241.51;-5.17;4.26;2.0;990.39;33.494;35.958664;-83.924835;791.29;NaN;;;47.503223;;0 / 15;2023;2022-10-22 18:33:25:287
0.577;0.4286;10.0409;-1.5357;0.9148;9.6424;0.9802;-2.1839;1.2;0.3685;0.9979;1.248;4.0;47.42;-3.22;-35.57;269.83;-4.16;4.34;2.0;990.4;45.302;35.958664;-83.924835;791.29;NaN;;;47.503223;;0 / 15;2524;2022-10-22 18:33:25:788
-0.0383;-0.1974;8.4715;-1.476;-0.2442;9.6919;0.8403;-1.1968;-0.6838;0.1287;-0.3682;-0.9538;5.0;63.64;7.76;-24.47;280.62;-3.06;16.72;2.0;990.36;34.963;35.958664;-83.924835;791.29;NaN;;;47.503223;;0 / 15;3024;2022-10-22 18:33:26:288
-1.8182;-2.6204;13.1495;-1.7671;-1.0863;9.5848;-3.6408;1.0652;2.1998;1.2842;0.1225;2.3935;6.0;51.04;37.84;-17.12;306.55;6.36;10.45;2.0;990.41;36.139;35.958664;-83.924835;791.29;NaN;;;47.503223;;0 / 15;3523;2022-10-22 18:33:26:787
2.5463;-0.2022;10.8512;0.7687;0.6147;9.7571;0.7191;1.0498;-0.5721;-1.0789;-1.3507;-1.1326;5.0;63.09;25.95;-15.02;295.17;-11.41;3.26;2.0;990.33;37.592;35.958664;-83.924835;791.29;NaN;;;47.503223;;0 / 15;4024;2022-10-22 18:33:27:288
-0.8366;2.5666;8.6163;0.0054;1.7854;9.6428;0.2149;1.9314;-0.0663;-0.2966;-0.2675;0.8894;7.0;59.1;22.91;-30.22;295.44;-10.49;-0.03;2.0;990.32;38.883;35.958664;-83.924835;791.29;NaN;;;47.503223;;0 / 15;4524;2022-10-22 18:33:27:788
-0.0658;1.8829;6.4845;-0.271;2.3031;9.5285;1.0809;-0.625;2.3198;0.2682;-0.5395;-0.4985;10.0;60.88;16.76;-23.53;290.06;-12.06;1.69;2.0;990.33;47.214;35.958664;-83.924835;791.29;NaN;;;47.503223;;0 / 15;5023;2022-10-22 18:33:28:287
2.0399;1.0032;9.6015;1.1159;2.7793;9.3381;-0.0495;-2.264;2.1726;0.5342;-0.0149;-0.7077;11.0;61.43;-5.59;-27.43;268.44;-13.64;-8.87;2.0;990.34;48.122;35.958664;-83.924835;791.29;NaN;;;47.503223;;0 / 15;5523;2022-10-22 18:33:28:787
0.1077;4.6409;7.6672;-0.1315;3.6284;9.1098;-0.2479;0.3357;-1.9302;0.1859;-0.2569;-0.6038;18.0;37.89;-3.0;-41.47;286.89;-20.32;0.25;2.0;990.28;51.141;35.958664;-83.924835;791.29;NaN;;;47.503223;;0 / 15;6023;2022-10-22 18:33:29:287
-0.5578;1.6412;9.2593;-0.0056;2.0048;9.5995;0.7046;0.1108;-0.9494;-0.4719;-0.3861;-2.2296;16.0;30.49;-0.28;-45.39;289.65;-13.71;0.11;2.0;990.29;40.842;35.958664;-83.924835;791.29;NaN;;;47.503223;;0 / 15;6524;2022-10-22 18:33:29:788
-0.3257;1.3741;9.5249;-1.6996;1.5443;9.534;0.7768;0.9903;1.9688;0.8249;0.3903;0.2078;6.0;23.49;7.35;-49.59;319.74;-13.4;7.7;2.0;990.27;38.26;35.958664;-83.924835;791.29;NaN;;;47.503223;;0 / 15;7024;2022-10-22 18:33:30:288
-1.5;2.7281;7.7964;-1.9532;2.3575;9.3165;-0.1658;-1.4924;0.2294;-0.0072;-0.422;-0.8498;8.0;26.98;-5.06;-44.91;296.37;-15.35;12.28;2.0;990.33;33.349;35.958664;-83.924835;791.29;NaN;;;47.503223;;0 / 15;7523;2022-10-22 18:33:30:787
-3.2608;1.0881;9.0078;-2.7657;2.7337;9.0027;0.0611;-1.7098;0.5355;0.3988;0.1096;-0.2855;10.0;24.81;-7.46;-41.47;293.66;-14.96;16.94;2.0;990.31;37.53;35.958664;-83.924835;791.29;NaN;;;47.503223;;0 / 15;8024;2022-10-22 18:33:31:288
-0.1472;-0.5016;9.1789;-1.6618;1.4016;9.5627;0.9574;-1.0674;2.8459;-0.52;-0.7774;-1.2754;6.0;17.36;-5.44;-38.85;309.58;-14.16;14.66;2.0;990.31;42.418;35.958664;-83.924835;791.29;NaN;;;47.503223;;0 / 15;8523;2022-10-22 18:33:31:787
-1.4222;2.8178;8.2035;-1.0323;2.0422;9.5359;-0.39;0.358;0.0994;0.4671;-0.0503;0.9197;2.0;9.77;4.8;-39.92;333.48;-7.75;6.76;2.0;990.27;42.027;35.958664;-83.924835;791.29;NaN;;;47.503223;;0 / 15;9023;2022-10-22 18:33:32:287
0.1878;2.1081;6.6305;0.3651;2.1729;9.5559;-0.3444;-2.3162;2.6101;-0.1214;-0.0162;-1.5987;2.0;5.04;13.29;-42.88;343.32;-12.8;-2.19;2.0;990.25;45.403;35.958664;-83.924835;791.29;NaN;;;47.503223;;0 / 15;9523;2022-10-22 18:33:32:787
-2.6874;-0.8536;11.6964;-1.7963;0.4089;9.6321;-3.3272;0.4303;2.6342;-0.4461;1.0596;0.8988;2.0;-5.49;16.5;-41.87;13.03;-9.11;0.58;2.0;990.22;40.205;35.958664;-83.924835;791.29;NaN;;;47.503223;;0 / 15;10023;2022-10-22 18:33:33:287
0.5638;1.0534;11.2726;-0.7457;3.0203;9.3001;0.9749;-1.2754;-1.9302;-0.3635;-0.1348;-0.7512;2.0;-8.92;20.61;-39.54;20.8;-17.94;4.58;2.0;990.21;39.134;35.958664;-83.924835;791.29;NaN;;;47.503223;;0 / 15;10524;2022-10-22 18:33:33:788
0.0048;1.1815;8.2418;0.0382;2.5911;9.4581;-1.6609;1.0783;4.7351;0.8025;0.7359;0.626;2.0;-20.29;18.88;-36.84;34.73;-11.2;-3.01;2.0;990.18;41.404;35.958664;-83.924835;791.29;NaN;;;47.503223;;0 / 15;11023;2022-10-22 18:33:34:287
2.1966;2.1739;8.9216;1.1327;2.1581;9.4989;2.1442;0.1023;1.0452;-0.4572;-0.3468;-0.9563;2.0;-35.94;21.64;-35.14;46.07;-16.19;-4.85;2.0;990.18;38.23;35.958664;-83.924835;791.29;NaN;;;47.503223;;0 / 15;11524;2022-10-22 18:33:34:788
-2.1165;1.5407;7.8335;-0.1788;1.6363;9.6675;-0.8852;0.1325;1.4967;-0.0705;0.9557;0.7366;3.0;-43.16;24.77;-29.51;52.86;-9.8;-5.18;2.0;990.13;37.427;35.958664;-83.924835;791.29;NaN;;;47.503223;;0 / 15;12023;2022-10-22 18:33:35:287
1.0403;1.9801;10.899;-0.4598;1.6213;9.6608;1.1259;0.7537;-0.6425;-0.3507;-1.4037;-0.2879;4.0;-30.82;25.84;-37.74;49.82;-12.21;11.39;2.0;990.14;38.781;35.958664;-83.924835;791.29;NaN;;;47.503223;;0 / 15;12523;2022-10-22 18:33:35:787
-0.4334;2.8262;9.5656;-0.3683;2.9752;9.3372;-1.7583;-0.0341;-1.2755;-0.4326;-0.2397;0.0472;6.0;-19.35;23.03;-43.37;35.43;-13.07;4.86;2.0;990.09;44.501;35.958664;-83.924835;791.29;NaN;;;47.503223;;0 / 15;13023;2022-10-22 18:33:36:287
2.4598;0.2838;7.9388;2.7484;0.2395;9.4106;1.3327;0.3472;-0.4122;0.5834;0.7513;-0.7029;7.0;-31.29;8.27;-47.57;70.87;2.96;-17.84;2.0;990.1;43.308;35.958664;-83.924835;791.29;NaN;;;47.503223;;0 / 15;13524;2022-10-22 18:33:36:788
4.0376;0.2022;8.8558;0.9839;-1.1823;9.6853;2.4746;1.0923;-0.1103;0.3198;1.7306;-0.4187;52.0;-41.38;17.14;-33.99;70.51;7.75;-14.58;2.0;990.12;54.315;35.958664;-83.924835;791.29;NaN;;;47.503223;;0 / 15;14023;2022-10-22 18:33:37:287
-1.6627;1.7824;7.9902;-2.3442;0.3681;9.5152;-1.1083;-2.0568;-0.0455;1.2795;0.1803;-1.0901;48.0;-42.81;6.64;-39.53;85.04;5.01;12.99;2.0;990.12;35.131;35.958664;-83.924835;791.29;NaN;;;47.503223;;0 / 15;14523;2022-10-22 18:33:37:787
1.9295;0.6966;5.2597;-1.881;1.9557;9.4238;-0.508;-2.1429;-0.7153;0.6533;-0.9862;-0.5017;18.0;-20.94;-18.66;-43.95;114.64;-5.66;18.11;2.0;990.12;31.228;35.958664;-83.924835;791.29;NaN;;;47.503223;;0 / 15;15023;2022-10-22 18:33:38:287
-1.1647;1.0295;8.2155;-3.1743;0.5068;9.2649;-0.0949;0.1202;-0.5033;0.0753;0.0875;-0.2628;19.0;-16.5;-27.6;-33.88;135.45;-2.96;18.91;2.0;990.12;33.327;35.958664;-83.924835;791.29;NaN;;;47.503223;;0 / 15;15523;2022-10-22 18:33:38:787
-2.8083;-0.2512;7.9256;-3.5327;0.4867;9.1353;-1.3628;-2.6661;1.5609;0.9979;-0.5526;-0.939;26.0;-10.44;-25.76;-34.76;137.77;-2.94;21.69;2.0;990.11;43.489;35.958664;-83.924835;791.29;NaN;;;47.503223;;0 / 15;16023;2022-10-22 18:33:39:287
-8.5612;-0.9458;11.1218;-4.6078;1.0753;8.5897;-0.971;-1.1932;-1.5295;-0.2805;0.089;-0.2724;13.0;8.74;-24.49;-22.61;172.09;-6.29;28.21;2.0;990.09;37.253;35.958664;-83.924835;791.29;NaN;;;47.503223;;0 / 15;16523;2022-10-22 18:33:39:787
-4.4865;-0.0311;7.8742;-5.5389;0.4739;8.0788;1.0104;-0.6099;2.6299;0.2825;0.7804;-0.6338;5.0;15.08;-20.04;-21.92;183.81;-2.11;31.56;2.0;990.09;40.576;35.95848;-83.92435;753.23;NaN;;;335.80643;;0 / 15;17024;2022-10-22 18:33:40:288
-2.6336;0.4442;7.8215;-1.9687;2.8013;9.1895;-1.2165;-3.0825;0.0413;0.4952;-0.2151;0.1192;5.0;22.59;-19.35;-28.88;235.65;-12.92;12.43;2.0;990.05;37.785;35.95848;-83.92435;753.23;NaN;;;335.80643;;0 / 15;17523;2022-10-22 18:33:40:787
-3.323;2.3641;9.2495;-3.1494;2.8571;8.8368;0.5969;2.4558;-2.1037;-1.3356;0.5539;0.608;4.0;22.41;-22.8;-34.67;242.08;-22.29;15.56;2.0;990.03;46.395;35.95848;-83.92435;753.23;NaN;;;335.80643;;0 / 15;18023;2022-10-22 18:33:41:287
-7.4707;0.4167;8.5624;-5.175;0.9398;8.2769;-1.502;-1.0685;1.146;-0.871;1.7111;0.1562;3.0;25.54;-16.56;-35.83;233.95;-11.36;21.13;2.0;990.04;43.451;35.95848;-83.92435;753.23;NaN;;;335.80643;;0 / 15;18524;2022-10-22 18:33:41:788
-4.0101;1.8601;10.4719;-5.4155;1.4561;8.0451;1.1219;0.4531;0.0799;-0.3577;0.4278;-0.6034;6.0;32.85;-9.94;-32.32;248.53;-7.68;33.39;2.0;990.03;38.311;35.95848;-83.92435;753.23;NaN;;;335.80643;;0 / 15;19024;2022-10-22 18:33:42:288
-5.8534;1.6244;5.6776;-3.4542;3.54;8.468;-0.9685;-1.0123;-1.5844;0.8726;-0.5707;-0.3358;8.0;39.54;-7.5;-29.04;279.91;-16.02;24.85;2.0;990.0;41.77;35.95848;-83.92435;753.23;NaN;;;335.80643;;0 / 15;19525;2022-10-22 18:33:42:789
-2.7796;3.2166;8.1664;-4.7944;1.3999;8.4395;1.2826;0.9252;-0.5718;0.057;-0.2863;0.336;6.0;45.99;-0.37;-23.51;278.06;-6.96;30.91;2.0;989.97;33.731;35.95848;-83.92435;753.23;NaN;;;335.80643;;0 / 15;20023;2022-10-22 18:33:43:287
-3.0655;-0.5207;9.2243;-3.0677;0.6464;9.292;-2.3187;-2.4739;3.5283;0.3377;-1.0845;-0.3231;11.0;49.93;-3.13;-16.01;268.71;-3.78;18.27;2.0;989.98;42.838;35.95848;-83.92435;753.23;NaN;;;335.80643;;0 / 15;20523;2022-10-22 18:33:43:787
-1.1671;1.7345;9.2483;-0.9217;2.6604;9.3938;0.1984;-0.1304;-0.6623;-0.3758;-1.8254;-0.4909;14.0;50.23;-0.73;-22.26;284.4;-19.91;15.59;2.0;989.96;39.415;35.95848;-83.92435;753.23;NaN;;;335.80643;;0 / 15;21023;2022-10-22 18:33:44:287
0.4083;2.0638;9.2542;-0.9561;2.4239;9.4541;1.1995;0.7084;-0.5735;0.2277;-0.4286;-1.5092;14.0;35.93;10.69;-30.32;299.99;-14.31;5.77;2.0;989.95;32.701;35.95848;-83.92435;753.23;NaN;;;335.80643;;0 / 15;21523;2022-10-22 18:33:44:787
-1.0917;2.2277;8.9504;-1.0515;2.8331;9.3294;-0.193;-0.955;-0.951;0.4522;0.0308;-0.2867;17.0;-2.55;15.99;-29.21;14.15;-13.05;5.09;2.0;989.95;50.609;35.95848;-83.92435;753.23;NaN;;;335.80643;;0 / 15;22023;2022-10-22 18:33:45:287
0.1077;2.272;8.4356;-1.6071;2.6709;9.2981;0.1596;-0.4459;-0.1426;0.2511;-0.2217;-0.5789;12.0;-16.5;0.17;-31.24;70.2;-15.8;9.81;2.0;989.92;31.288;35.95848;-83.92435;753.23;NaN;;;335.80643;;0 / 15;22524;2022-10-22 18:33:45:788
-0.5064;2.7126;9.1454;-1.5699;2.8559;9.2493;-0.7756;-1.7309;0.5119;0.5344;-0.2443;-1.0558;10.0;-14.36;-9.23;-20.81;103.01;-14.83;9.72;2.0;989.95;35.271;35.95848;-83.92435;753.23;NaN;;;335.80643;;0 / 15;23023;2022-10-22 18:33:46:287
-1.0223;3.0212;7.2673;-1.5509;3.7565;8.9249;-0.4717;-1.5524;-0.2687;0.3051;-0.6066;-1.0426;11.0;-0.3;4.52;-8.17;10.65;-22.35;10.32;2.0;989.92;49.294;35.95848;-83.92435;753.23;NaN;;;335.80643;;0 / 15;23524;2022-10-22 18:33:46:788
0.5758;-1.5263;12.5749;-0.9857;1.1972;9.6833;-0.2844;2.2511;-0.0048;-1.1589;-0.4626;-0.3671;12.0;-28.76;18.51;2.68;57.57;-7.01;5.81;2.0;989.97;34.133;35.95848;-83.92435;753.23;NaN;;;335.80643;;0 / 15;24023;2022-10-22 18:33:47:287
-2.1631;2.0315;10.3965;-0.3355;1.7933;9.6355;-0.7779;-0.3443;1.2388;0.4298;-0.2388;-0.7193;5.0;-39.82;-10.87;10.89;108.28;-10.54;1.99;2.0;989.92;31.013;35.95848;-83.92435;753.23;NaN;;;335.80643;;0 / 15;24523;2022-10-22 18:33:47:787
-1.1109;5.7541;7.4575;-1.8782;3.5738;8.937;0.9355;-1.5911;-1.8101;-0.0434;-0.3237;-0.1277;1.0;-27.92;-22.89;-1.14;129.99;-21.37;11.87;2.0;989.92;42.561;35.95848;-83.92435;753.23;NaN;;;335.80643;;0 / 15;25023;2022-10-22 18:33:48:287
-3.7421;2.2373;8.4153;-3.8239;1.7747;8.8543;0.5495;0.0872;-1.3076;-0.7101;0.2381;-0.7652;1.0;-12.41;-25.95;-5.06;152.14;-17.56;19.06;2.0;989.9;37.943;35.95848;-83.92435;753.23;NaN;;;335.80643;;0 / 15;25524;2022-10-22 18:33:48:788
0.5076;2.0303;8.8594;-0.1788;3.3649;9.2096;0.3617;-1.3964;-0.1363;0.9719;-0.4655;-0.0289;2.0;0.79;-13.86;-8.85;181.38;-12.6;4.56;2.0;989.86;38.098;35.95848;-83.92435;753.23;NaN;;;335.80643;;0 / 15;26023;2022-10-22 18:33:49:287
-0.0909;3.3936;9.076;0.5435;3.3058;9.2167;0.5076;-0.3469;-1.4312;-0.3247;0.0197;-0.6956;2.0;-4.78;-10.89;-7.14;149.91;-19.7;-3.37;2.0;989.85;41.453;35.95848;-83.92435;753.23;NaN;;;335.80643;;0 / 15;26524;2022-10-22 18:33:49:788
-0.1651;2.9495;8.0501;0.4396;2.6446;9.4331;-0.3942;-2.3477;2.8572;0.2479;0.8555;0.251;1.0;-6.92;-14.46;-10.82;149.77;-17.88;-6.73;2.0;989.83;44.03;35.95848;-83.92435;753.23;NaN;;;335.80643;;0 / 15;27023;2022-10-22 18:33:50:287
-0.3221;2.892;13.5278;-1.0689;3.5359;9.0844;-0.3872;0.3245;0.231;-1.1818;-1.5192;-1.069;1.0;-8.66;-18.45;-16.18;136.62;-21.13;6.71;2.0;989.84;48.377;35.95848;-83.92435;753.23;NaN;;;335.80643;;0 / 15;27523;2022-10-22 18:33:50:787
-0.8306;4.3896;10.5604;0.2957;3.8886;8.9979;0.4724;0.4703;-0.0202;0.6173;-0.486;-0.0789;1.0;-12.64;-24.24;-15.22;142.85;-19.2;2.18;2.0;989.8;37.971;35.95848;-83.92435;753.23;NaN;;;335.80643;;0 / 15;28023;2022-10-22 18:33:51:287
0.4394;3.5671;8.7171;-0.4885;4.0372;8.9237;0.6608;-0.7151;-0.3975;-0.3909;0.2449;0.2807;2.0;-22.69;-31.28;-11.36;135.82;-24.31;3.13;2.0;989.77;37.388;35.95848;-83.92435;753.23;NaN;;;335.80643;;0 / 15;28523;2022-10-22 18:33:51:787
2.1918;-1.9331;11.2415;0.6685;0.1284;9.783;0.3921;-0.6613;1.7163;-0.1354;0.6447;0.0331;5.0;-27.69;-29.04;-14.83;136.93;-3.24;-6.55;2.0;989.73;44.016;35.95848;-83.92435;753.23;NaN;;;335.80643;;0 / 15;29023;2022-10-22 18:33:52:287
0.9781;2.6683;8.2537;-1.7898;2.4312;9.3304;3.2765;-0.446;0.2715;0.6544;1.6111;1.2196;13.0;-25.14;-21.41;-22.84;124.54;-8.52;0.73;2.0;989.76;40.237;35.95848;-83.92435;753.23;NaN;;;335.80643;;0 / 15;29525;2022-10-22 18:33:52:789
-1.8314;2.6587;6.9739;-1.6469;2.3753;9.371;0.3902;-0.5105;1.3152;0.1898;-0.6943;-1.0466;16.0;-11.79;-10.54;-33.11;100.67;-14.02;9.97;2.0;989.7;47.609;35.95848;-83.92435;753.23;NaN;;;335.80643;;0 / 15;30023;2022-10-22 18:33:53:287
-2.4191;-0.9386;11.0453;-2.6095;1.0963;9.3893;1.1079;0.258;0.2356;-0.7818;0.701;-1.0809;16.0;-4.59;-5.16;-36.23;94.91;-6.42;15.53;2.0;989.73;40.13;35.95848;-83.92435;753.23;NaN;;;335.80643;;0 / 15;30523;2022-10-22 18:33:53:787
-3.4092;1.8541;8.5014;-2.895;2.2677;9.091;0.2857;0.039;-1.2204;0.8033;-0.3916;-0.3987;19.0;3.38;-0.09;-39.28;45.55;-13.37;17.66;2.0;989.71;36.69;35.95848;-83.92435;753.23;NaN;;;335.80643;;0 / 15;31024;2022-10-22 18:33:54:288
-4.8506;1.4246;12.2865;-2.5993;2.3682;9.1546;0.5491;0.9811;-3.0022;-0.5632;0.1371;-0.8679;19.0;-4.73;-5.85;-39.26;66.85;-18.32;13.18;2.0;989.69;41.843;35.95848;-83.92435;753.23;NaN;;;335.80643;;0 / 15;31523;2022-10-22 18:33:54:787
-1.5144;3.9981;7.2876;-1.7017;4.3027;8.6465;1.5321;-0.1879;-0.1872;0.7284;-0.3377;-1.1056;18.0;-14.64;-14.91;-40.35;89.99;-22.43;11.14;2.0;989.68;33.843;35.95848;-83.92435;753.23;NaN;;;335.80643;;0 / 15;32023;2022-10-22 18:33:55:287
-3.5204;0.7289;8.0309;-1.5752;1.8214;9.5064;1.6916;0.2243;-1.6785;-0.5205;-0.7035;-2.2614;14.0;-4.37;-36.26;-24.97;165.43;-10.7;9.41;2.0;989.71;38.465;35.95848;-83.92435;753.23;NaN;;;335.80643;;0 / 15;32523;2022-10-22 18:33:55:787
-0.4908;3.9359;8.1413;-0.4966;3.6923;9.0714;0.3198;-1.8524;0.8338;0.6614;-0.7228;-0.4849;19.0;17.89;-39.19;-14.53;206.96;-18.22;6.66;2.0;989.68;44.963;35.95848;-83.92435;753.23;NaN;;;335.80643;;0 / 15;33023;2022-10-22 18:33:56:287
0.4286;2.254;7.788;0.1222;3.518;9.1531;1.7946;-2.586;1.2418;-0.7531;-0.7008;-1.5964;22.0;24.9;-39.23;-0.64;214.67;-21.02;-0.76;2.0;989.7;49.734;35.95848;-83.92435;753.23;NaN;;;335.80643;;0 / 15;33523;2022-10-22 18:33:56:787
-0.2082;2.4275;8.3554;0.2139;3.0603;9.3144;-1.4756;-0.8386;2.1571;1.1309;0.2065;1.3067;5.0;34.88;-22.91;-10.48;239.59;-11.59;-0.96;2.0;989.65;37.722;35.95848;-83.92435;753.23;NaN;;;335.80643;;0 / 15;34023;2022-10-22 18:33:57:287
1.142;2.1906;8.2525;-1.5154;3.0837;9.185;-1.0245;-1.3129;2.2692;-0.0811;-2.2133;-0.5127;4.0;28.89;-23.08;-7.05;236.51;-18.33;9.37;2.0;989.65;40.022;35.95848;-83.92435;753.23;NaN;;;335.80643;;0 / 15;34523;2022-10-22 18:33:57:787
1.3382;3.5719;11.6533;1.3551;3.1124;9.2004;-0.5171;1.3318;0.2976;-0.5706;0.1555;-0.4814;4.0;28.28;-18.17;-14.04;245.63;-21.59;-11.1;2.0;989.65;38.758;35.95848;-83.92435;753.23;NaN;;;335.80643;;0 / 15;35024;2022-10-22 18:33:58:288
-1.9391;2.1739;9.5596;-0.7906;2.3188;9.4957;-1.0818;0.0368;0.1013;0.0282;-0.1105;0.2833;4.0;29.89;-5.79;-14.44;266.6;-14.0;6.05;2.0;989.64;34.43;35.95848;-83.92435;753.23;NaN;;;335.80643;;0 / 15;35523;2022-10-22 18:33:58:787
-0.8174;1.3585;8.7362;0.3997;1.3201;9.7092;0.1015;-0.2155;0.7245;0.3943;-0.1671;-0.2614;4.0;27.86;2.12;-12.43;276.89;-7.74;-2.36;2.0;989.61;45.557;35.95848;-83.92435;753.23;NaN;;;335.80643;;0 / 15;36023;2022-10-22 18:33:59:287
-0.7648;1.6101;10.1139;-0.9986;1.4913;9.641;0.9307;0.2994;-0.549;-0.0413;0.4978;0.0246;5.0;21.51;7.16;-11.87;293.74;-8.75;5.91;2.0;989.55;42.313;35.95848;-83.92435;753.23;NaN;;;335.80643;;0 / 15;36524;2022-10-22 18:33:59:788
-0.8835;1.634;9.0568;-1.2408;1.0935;9.6662;-0.106;-0.6064;-1.0704;0.1009;-0.6615;-0.4365;5.0;17.21;12.04;-9.43;309.95;-6.4;7.31;2.0;989.56;44.904;35.95848;-83.92435;753.23;NaN;;;335.80643;;0 / 15;37023;2022-10-22 18:34:00:287
-0.0371;1.1635;8.8439;-0.1272;1.6476;9.6664;-0.3038;-2.3281;1.849;0.6439;0.2663;0.6976;8.0;1.99;16.26;-16.22;354.38;-7.03;0.87;2.0;989.6;43.545;35.95848;-83.92435;753.23;NaN;;;335.80643;;0 / 15;37523;2022-10-22 18:34:00:787
-0.4777;-0.9434;12.7176;0.9096;1.2056;9.6897;-1.9302;-1.1676;1.7956;0.0939;-0.8418;-0.4545;12.0;-7.99;12.17;-24.38;27.48;-8.17;-0.11;2.0;989.56;35.563;35.95848;-83.92435;753.23;NaN;;;335.80643;;0 / 15;38023;2022-10-22 18:34:01:287
-2.2935;1.5981;8.9659;-1.1816;1.9138;9.5452;-0.7833;0.1575;-0.3393;0.1955;0.6353;0.9192;18.0;-13.74;-1.44;-29.46;76.16;-11.25;7.06;2.0;989.5;45.558;35.95848;-83.92435;753.23;NaN;;;335.80643;;0 / 15;38523;2022-10-22 18:34:01:787
-0.3245;2.3521;11.7239;-1.6357;2.2853;9.3953;0.8444;0.7814;1.1875;-0.0132;-0.2359;-0.1109;22.0;-9.15;-12.52;-34.24;109.49;-13.02;11.83;2.0;989.48;46.216;35.95848;-83.92435;753.23;NaN;;;335.80643;;0 / 15;39024;2022-10-22 18:34:02:288
-1.6137;3.032;11.4437;-1.8278;2.1668;9.388;0.7303;0.2159;-0.4623;0.4791;0.5326;-0.0719;24.0;-2.06;-22.09;-39.23;144.25;-12.76;11.02;2.0;989.48;41.431;35.95848;-83.92435;753.23;NaN;;;335.80643;;0 / 15;39523;2022-10-22 18:34:02:787
-3.6823;1.8159;7.0002;-3.7701;3.2227;8.4599;0.799;-2.535;-0.222;-0.3536;1.1106;0.6541;29.0;18.49;-28.28;-35.18;189.21;-19.19;24.02;2.0;989.47;38.983;35.95848;-83.92435;753.23;NaN;;;335.80643;;0 / 15;40023;2022-10-22 18:34:03:287
-0.2946;-2.9961;9.4125;0.7982;-0.9304;9.7297;-0.8313;-1.8222;1.6748;-0.2276;0.0853;-0.5275;26.0;9.51;-29.32;-37.35;201.92;5.44;-4.69;2.0;989.45;36.839;35.95848;-83.92435;753.23;NaN;;;335.80643;;0 / 15;40523;2022-10-22 18:34:03:787
-0.1807;-0.4513;10.6466;2.9065;-0.0646;9.3658;1.4433;-0.9237;0.6759;-0.3616;-0.8847;-0.7887;45.0;-0.88;-20.57;-43.82;205.23;0.14;-14.36;2.0;989.46;37.584;35.95848;-83.92435;753.23;NaN;;;335.80643;;0 / 15;41023;2022-10-22 18:34:04:287
5.0228;-0.9565;9.8447;3.5798;0.4858;9.117;0.4892;-0.2457;-0.7994;-0.8758;0.0922;-1.0504;37.0;-5.48;-12.97;-41.66;224.64;-3.47;-20.97;2.0;989.45;36.98;35.95848;-83.92435;753.23;NaN;;;335.80643;;0 / 15;41523;2022-10-22 18:34:04:787
4.0484;1.3813;9.7056;3.2478;1.5198;9.1275;0.1046;-0.0524;0.4118;0.5004;0.0585;-0.642;36.0;3.21;-12.66;-37.95;237.52;-4.86;-19.86;2.0;989.47;35.834;35.95848;-83.92435;753.23;NaN;;;335.80643;;0 / 15;42023;2022-10-22 18:34:05:287
2.8525;0.62;8.6067;3.0244;1.2639;9.2426;-0.3416;-0.5739;-0.8951;-0.1313;0.0268;-0.5333;43.0;8.14;-8.94;-33.6;254.38;-7.4;-18.12;2.0;989.46;37.293;35.95848;-83.92435;753.23;NaN;;;335.80643;;0 / 15;42523;2022-10-22 18:34:05:787
3.6006;0.9206;9.9918;1.9169;0.9282;9.5726;-0.1164;-0.318;0.7062;0.5669;-0.3431;-0.7342;24.0;4.65;-3.71;-36.17;261.04;-3.72;-9.81;2.0;989.52;34.084;35.95848;-83.92435;753.23;NaN;;;335.80643;;0 / 15;43023;2022-10-22 18:34:06:287
4.0639;3.0667;8.0955;3.5051;3.3141;8.5382;-2.8087;-0.7603;2.0189;0.045;-1.0311;0.4019;13.0;-8.14;-12.86;-40.44;279.45;-19.75;-22.32;2.0;989.4;35.898;35.95848;-83.92435;753.23;NaN;;;335.80643;;0 / 15;43524;2022-10-22 18:34:06:788
2.6874;3.4594;7.2075;2.4502;3.7561;8.7211;0.7859;-1.3627;-2.6433;-0.6387;-0.0451;-1.154;16.0;-18.02;-30.26;-35.21;148.72;-22.52;-15.69;2.0;989.4;42.995;35.95848;-83.92435;753.23;NaN;;;335.80643;;0 / 15;44024;2022-10-22 18:34:07:288
3.5504;1.5826;8.7984;4.2737;1.8394;8.6327;-0.329;-0.1242;-0.1917;-0.1174;-0.5884;0.356;13.0;-13.89;-22.82;-39.09;197.74;-10.81;-26.34;2.0;989.36;43.971;35.95848;-83.92435;753.23;NaN;;;335.80643;;0 / 15;44523;2022-10-22 18:34:07:787
2.2002;0.9087;7.8275;2.3885;1.6278;9.371;-1.3221;-0.5685;1.7143;-0.4787;-0.3739;-1.053;7.0;-12.77;-17.51;-38.04;173.42;-11.65;-17.32;2.0;989.37;42.633;35.95848;-83.92435;753.23;NaN;;;335.80643;;0 / 15;45023;2022-10-22 18:34:08:287
3.0404;1.6603;7.7354;4.3691;0.1993;8.7773;-0.5635;1.2485;1.6085;0.0256;-1.0656;0.9626;6.0;-6.47;-4.91;-42.49;248.94;-2.98;-18.07;2.0;989.39;39.378;35.95848;-83.92435;753.23;NaN;;;335.80643;;0 / 15;45523;2022-10-22 18:34:08:787
3.6341;-0.6105;8.0261;3.6505;0.3534;9.095;3.4332;-2.4617;0.1693;-0.8191;-0.0922;-0.8503;4.0;-13.44;11.93;-39.86;348.14;-2.07;-21.87;2.0;989.36;40.347;35.95848;-83.92435;753.23;NaN;;;335.80643;;0 / 15;46023;2022-10-22 18:34:09:287
3.2465;0.4322;11.5229;3.6993;-0.496;9.0686;2.2714;2.3881;1.9072;-0.3938;-0.209;0.767;4.0;-13.93;16.11;-40.43;351.19;2.9;-22.19;2.0;989.35;43.018;35.95848;-83.92435;753.23;NaN;;;335.80643;;0 / 15;46523;2022-10-22 18:34:09:787
0.2922;-1.9789;13.1148;3.172;-0.0214;9.2795;2.5119;-0.6549;1.4073;-0.0457;0.8372;0.1468;4.0;-18.22;17.44;-36.81;357.68;-1.01;-26.94;2.0;989.35;44.055;35.95848;-83.92435;753.23;NaN;;;335.80643;;0 / 15;47023;2022-10-22 18:34:10:287
6.2222;2.0315;12.7391;2.967;0.7448;9.3173;0.8278;-0.828;0.6277;1.2815;1.3283;0.1274;4.0;-20.27;10.41;-41.87;19.91;-1.85;-20.33;2.0;989.35;43.591;35.95848;-83.92435;753.23;NaN;;;335.80643;;0 / 15;47523;2022-10-22 18:34:10:787
2.4694;3.4534;7.0074;2.1726;3.6029;8.8583;-0.2151;-0.2475;-1.8278;0.7303;0.1723;-0.454;6.0;-5.77;-9.34;-51.73;306.95;-17.11;-16.21;2.0;989.3;40.865;35.95848;-83.92435;753.23;NaN;;;335.80643;;0 / 15;48023;2022-10-22 18:34:11:287
-0.1974;2.0028;8.621;1.705;5.1469;8.1715;-4.8282;-1.6381;-0.679;-0.7452;-0.702;-0.5119;9.0;3.99;-21.66;-51.84;297.48;-31.66;-11.79;2.0;989.19;44.909;35.95848;-83.92435;753.23;NaN;;;335.80643;;0 / 15;48523;2022-10-22 18:34:11:787
6.8183;-0.364;9.2255;4.3169;-0.0601;8.8052;0.005;0.5169;0.4377;-0.0804;-1.0413;0.1565;11.0;-6.88;-4.89;-52.97;247.39;0.78;-22.35;2.0;989.26;28.612;35.95848;-83.92435;753.23;NaN;;;335.80643;;0 / 15;49023;2022-10-22 18:34:12:287
5.7039;0.3209;7.7928;5.014;0.188;8.4258;-0.0247;-0.7712;-1.2782;-0.3025;0.1317;-0.4949;8.0;-18.3;6.58;-43.97;318.33;-1.1;-30.76;2.0;989.24;47.879;35.95848;-83.92435;753.23;NaN;;;335.80643;;0 / 15;49524;2022-10-22 18:34:12:788
3.8533;-0.5722;7.4719;4.4406;0.0701;8.7434;-1.1838;-2.406;0.2692;-0.1653;0.1362;-0.3812;14.0;-18.54;11.83;-40.82;352.49;-0.41;-26.93;2.0;989.19;42.699;35.95848;-83.92435;753.23;NaN;;;335.80643;;0 / 15;50023;2022-10-22 18:34:13:287
3.9706;-0.2453;10.5042;3.9886;-0.3566;8.9518;0.0594;0.0741;1.7856;-0.2307;0.2089;-0.4485;18.0;-23.85;19.88;-42.09;14.83;2.08;-24.02;2.0;989.24;43.394;35.95848;-83.92435;753.23;NaN;;;335.80643;;0 / 15;50523;2022-10-22 18:34:13:787
4.2174;0.5375;8.3913;3.4639;0.2704;9.1705;-9.0E-4;-0.2379;-1.685;0.0218;0.3467;-0.2696;19.0;-28.84;18.15;-44.72;29.15;-0.41;-21.76;2.0;989.24;39.066;35.95848;-83.92435;753.23;NaN;;;335.80643;;0 / 15;51024;2022-10-22 18:34:14:288
1.0056;-1.9836;8.6055;2.4102;0.4928;9.4931;-0.1665;-1.8387;-0.6362;0.1196;-0.3744;-0.8882;23.0;-32.1;6.24;-45.32;68.49;-3.01;-11.99;2.0;989.22;36.769;35.95848;-83.92435;753.23;NaN;;;335.80643;;0 / 15;51524;2022-10-22 18:34:14:788
4.902;1.4701;10.1091;2.8626;0.5023;9.3661;-0.5092;0.3223;-2.3748;-1.039;-0.2176;-0.7164;30.0;-24.54;-9.15;-38.1;117.81;-2.94;-17.0;2.0;989.24;40.419;35.95848;-83.92435;753.23;NaN;;;335.80643;;0 / 15;52023;2022-10-22 18:34:15:287
4.6181;0.3999;7.2362;4.3206;1.0834;8.7367;-0.8949;-1.409;-0.2406;-0.1152;-0.5107;-0.2437;28.0;-25.71;-18.24;-28.67;142.75;-6.34;-26.31;2.0;989.19;40.121;35.95848;-83.92435;753.23;NaN;;;335.80643;;0 / 15;52524;2022-10-22 18:34:15:788
1.6472;-1.9152;8.688;3.5024;-1.0852;9.0954;-1.2801;-0.7701;0.0839;-0.6919;0.1565;-1.271;7.0;-26.01;-20.64;-27.99;148.9;6.92;-19.56;2.0;989.18;38.249;35.95835;-83.92438;778.71;NaN;;;88.00968;;0 / 15;53023;2022-10-22 18:34:16:287
3.6233;0.6894;6.3694;3.3383;-0.584;9.2025;-1.3998;0.766;3.5714;0.2031;-0.6692;0.3445;5.0;-16.11;-15.45;-40.01;165.73;3.27;-15.9;2.0;989.25;35.367;35.95835;-83.92438;778.71;NaN;;;88.00968;;0 / 15;53524;2022-10-22 18:34:16:788
3.2489;-1.1647;8.9276;3.6571;0.1084;9.0986;-0.5263;-0.1277;1.6836;0.5626;0.3009;-0.0568;5.0;-22.65;-14.12;-40.03;156.44;-0.15;-22.36;2.0;989.11;44.931;35.95835;-83.92438;778.71;NaN;;;88.00968;;0 / 15;54023;2022-10-22 18:34:17:287
4.9714;-0.5339;10.704;3.7337;-1.0E-4;9.0681;0.6808;-0.2294;-1.156;-0.1113;0.1981;-0.0525;5.0;-27.07;-12.04;-35.87;136.82;0.0;-22.38;2.0;989.13;41.006;35.95835;-83.92438;778.71;NaN;;;88.00968;;0 / 15;54525;2022-10-22 18:34:17:789
2.0925;0.9673;9.3909;2.8186;0.2437;9.3897;-0.1269;0.4154;-0.4335;0.3231;0.118;0.6509;4.0;-27.09;-5.34;-34.44;114.71;2.33;-18.98;2.0;989.15;50.757;35.95835;-83.92438;778.71;NaN;;;88.00968;;0 / 15;55023;2022-10-22 18:34:18:287
1.5168;-1.0869;8.2023;2.1439;-0.3088;9.5644;-0.5097;-0.8163;-1.218;0.0982;-0.0513;-0.4874;4.0;-20.33;2.03;-31.99;86.88;2.11;-12.43;2.0;989.1;42.771;35.95835;-83.92438;778.71;NaN;;;88.00968;;0 / 15;55523;2022-10-22 18:34:18:787
2.3007;1.2736;9.1382;2.4353;0.43;9.4897;0.569;0.7353;1.7572;1.1928;-0.4607;0.3786;6.0;-11.55;7.28;-28.61;27.85;-2.51;-14.39;2.0;989.05;42.887;35.95835;-83.92438;778.71;NaN;;;88.00968;;0 / 15;56024;2022-10-22 18:34:19:288
-0.9876;4.0256;9.1095;-1.4495;3.9082;8.8767;0.8758;0.0092;0.2081;-0.4843;-0.2668;-0.2688;9.0;3.11;3.86;-26.21;4.99;-23.49;9.27;2.0;989.06;46.624;35.95835;-83.92438;778.71;NaN;;;88.00968;;0 / 15;56523;2022-10-22 18:34:19:787
1.7955;2.6611;7.6014;1.4341;2.714;9.3139;-0.8914;1.3645;0.5155;-0.0536;-1.5286;1.0439;26.0;7.88;5.1;-25.48;336.78;-22.75;4.06;2.0;989.0;47.426;35.95835;-83.92438;778.71;NaN;;;88.00968;;0 / 15;57023;2022-10-22 18:34:20:287
1.5108;1.7979;11.1518;1.4601;2.4498;9.3828;-3.1202;-0.3199;4.0893;0.1211;-0.1663;-0.4464;21.0;4.73;9.68;-29.04;331.95;-21.63;-10.83;2.0;989.11;35.188;35.95835;-83.92438;778.71;NaN;;;88.00968;;0 / 15;57525;2022-10-22 18:34:20:789
3.8581;4.2162;10.0229;1.9679;2.8619;9.171;0.4187;-0.2792;-0.4834;-0.0112;0.0635;-0.0189;21.0;-6.6;15.17;-30.32;1.35;-16.97;-12.11;2.0;989.03;36.883;35.95835;-83.92438;778.71;NaN;;;88.00968;;0 / 15;58023;2022-10-22 18:34:21:287
2.8525;3.3135;7.6229;2.398;2.9926;9.0258;0.5735;0.3575;-1.4618;-0.2036;0.5569;-0.1786;19.0;-27.3;2.85;-26.81;55.98;-17.77;-14.88;2.0;988.99;39.806;35.95835;-83.92438;778.71;NaN;;;88.00968;;0 / 15;58523;2022-10-22 18:34:21:787
-1.0068;0.1771;8.2848;2.8113;1.7195;9.2364;-2.6438;-0.9577;-1.169;0.0495;-0.8818;-0.7771;21.0;-35.59;-5.61;-28.24;88.91;-10.93;-10.55;2.0;988.9;41.388;35.95835;-83.92438;778.71;NaN;;;88.00968;;0 / 15;59024;2022-10-22 18:34:22:288
3.408;3.1807;8.924;2.3874;4.1808;8.5435;1.2969;-2.1202;0.4094;1.718;0.4349;-1.4056;23.0;-36.77;-30.47;-19.52;126.71;-14.91;-19.73;2.0;988.97;35.743;35.95835;-83.92438;778.71;NaN;;;88.00968;;0 / 15;59524;2022-10-22 18:34:22:788
1.3346;5.4156;6.6975;1.5141;4.5318;8.5639;-0.9403;1.3255;-2.9177;-0.0838;-0.0983;-0.2498;12.0;-2.87;-57.75;-2.31;176.69;-35.41;-8.9;2.0;988.91;35.971;35.95835;-83.92438;778.71;NaN;;;88.00968;;0 / 15;60024;2022-10-22 18:34:23:288
4.9283;-0.4609;10.011;5.0927;0.1411;8.3794;0.314;0.4821;0.7273;-0.304;0.0703;-0.564;13.0;-2.34;-61.8;-28.89;192.23;-0.82;-31.29;2.0;989.0;43.783;35.95835;-83.92438;778.71;NaN;;;88.00968;;0 / 15;60523;2022-10-22 18:34:23:787
4.1201;0.4214;10.2431;4.1307;1.382;8.7862;0.5935;-0.0164;0.5519;0.4329;-0.0916;-0.2511;45.0;-7.84;-57.39;-34.11;187.23;-7.47;-24.14;2.0;989.05;40.893;35.95835;-83.92438;778.71;NaN;;;88.00968;;0 / 15;61023;2022-10-22 18:34:24:287
3.6257;-0.3018;10.0481;4.1597;1.0282;8.821;0.3608;-0.2108;0.8065;-0.5626;-0.2124;0.0896;39.0;-10.26;-39.41;-23.1;181.39;-8.58;-25.43;2.0;988.94;40.203;35.95835;-83.92438;778.71;NaN;;;88.00968;;0 / 15;61523;2022-10-22 18:34:24:787
3.6858;0.8632;9.5513;3.3709;0.7597;9.1777;0.8046;-0.1897;-0.4247;-0.0507;-0.0365;-0.6596;30.0;1.43;-16.11;-28.07;217.22;-4.44;-20.17;2.0;988.98;50.988;35.95835;-83.92438;778.71;NaN;;;88.00968;;0 / 15;62023;2022-10-22 18:34:25:287
3.1543;0.7804;7.2278;4.1373;1.1608;8.8151;-0.7357;-0.4914;-1.7646;-0.3422;-0.7488;0.1313;17.0;-1.93;-3.56;-23.94;261.19;-6.8;-25.14;2.0;988.89;33.69;35.95835;-83.92438;778.71;NaN;;;88.00968;;0 / 15;62523;2022-10-22 18:34:25:787
1.9199;-0.5052;7.9053;2.6704;0.0518;9.4359;-0.7383;-0.8937;1.6029;-0.0331;-0.0017;-0.875;14.0;-8.1;-5.04;-18.51;164.34;1.58;-18.5;2.0;988.9;38.997;35.95835;-83.92438;778.71;NaN;;;88.00968;;0 / 15;63024;2022-10-22 18:34:26:288
2.1631;-1.1862;14.2687;2.9391;-1.3756;9.2542;1.1004;0.9564;5.7624;0.8905;-1.5561;0.9928;8.0;-6.79;-14.17;-17.47;176.65;9.11;-19.33;2.0;988.95;36.042;35.95835;-83.92438;778.71;NaN;;;88.00968;;0 / 15;63523;2022-10-22 18:34:26:787
0.9015;-3.1759;12.4564;3.404;-0.4067;9.1879;2.0694;-0.4136;-1.53;-0.6679;0.6666;-1.0133;4.0;0.08;-15.21;-11.42;193.92;2.38;-20.33;2.0;988.98;39.113;35.95836;-83.92439;769.18;NaN;;0.0;1276.4446;;0 / 15;64023;2022-10-22 18:34:27:287
4.3442;0.1723;9.4866;3.9462;0.1698;8.976;1.0442;0.4817;1.1666;0.8679;-0.0092;0.2345;4.0;-4.78;-4.5;-2.4;136.19;-0.99;-23.73;2.0;988.88;43.642;35.95836;-83.92439;769.18;NaN;;0.0;1276.4446;;0 / 15;64524;2022-10-22 18:34:27:788
3.9096;0.1819;9.1789;3.3322;0.4197;9.2136;0.2515;0.4708;0.5751;0.166;0.287;0.3825;4.0;-10.14;-7.13;-3.69;129.4;-4.86;-22.43;2.0;988.87;44.648;35.958355;-83.924385;769.18;NaN;;0.0;620.5718;;2 / 15;65024;2022-10-22 18:34:28:288
2.9853;-0.7983;8.5433;2.1519;-0.5282;9.5531;0.1162;0.1932;-0.5092;-0.4261;-0.0635;-0.4107;4.0;-8.44;-13.61;-4.69;155.45;1.84;-14.51;2.0;988.85;43.113;35.958355;-83.924385;769.18;NaN;;0.0;620.5718;;2 / 15;65523;2022-10-22 18:34:28:787
1.1551;0.28;9.932;2.2095;-0.8914;9.5128;-1.8699;1.3442;-0.8327;-0.3622;-0.7099;0.0602;5.0;5.03;-11.92;-11.19;206.49;0.89;-5.65;2.0;988.83;42.081;35.958363;-83.92439;769.18;NaN;;0.0;462.24637;;2 / 15;66023;2022-10-22 18:34:29:287
1.4246;-2.3821;10.1426;2.2938;-1.5908;9.401;-0.2223;0.0512;-0.0671;0.0416;0.4871;-0.2524;4.0;13.31;-8.83;-15.02;236.42;9.34;-13.71;2.0;988.82;44.829;35.958363;-83.92439;769.18;NaN;;0.0;462.24637;;2 / 15;66523;2022-10-22 18:34:29:787
0.352;-0.3915;10.4133;1.6939;-1.0155;9.6057;0.5302;0.3154;1.2695;-0.0964;0.0468;0.3992;5.0;19.63;-5.31;-11.76;255.23;5.56;-10.59;2.0;988.8;44.521;35.958363;-83.92439;769.18;NaN;;0.0;462.24637;;2 / 15;67023;2022-10-22 18:34:30:287
2.01;-0.638;9.8507;1.1809;0.2584;9.7319;1.6069;-0.3551;-0.2556;0.0258;0.2804;0.5925;7.0;20.44;0.34;-4.99;270.0;-0.01;-12.53;2.0;988.74;49.965;35.958363;-83.92439;769.18;NaN;;0.0;462.24637;;2 / 15;67525;2022-10-22 18:34:30:789
-1.3729;-0.5937;7.8287;-0.7281;0.471;9.7682;-1.6858;-1.2543;-1.2915;0.13;-1.1707;-0.678;12.0;16.24;8.33;3.84;295.8;-2.75;4.26;2.0;988.74;37.616;35.958363;-83.9244;1074.5;NaN;;0.83;552.639;353.3;2 / 15;68024;2022-10-22 18:34:31:288
2.1248;1.6424;8.444;1.5779;0.5123;9.6653;0.2614;0.6566;-1.0665;1.0879;0.3814;-0.5236;17.0;9.66;16.31;2.49;328.84;-2.99;-9.27;2.0;988.81;42.257;35.958363;-83.9244;1074.5;NaN;;0.83;552.639;353.3;2 / 15;68523;2022-10-22 18:34:31:787
3.3793;0.8246;7.9627;2.3283;0.7331;9.498;-0.1785;-0.5951;0.1723;-0.6008;-0.5266;-0.2024;18.0;5.04;25.28;4.29;351.17;-1.51;-14.24;2.0;988.77;35.685;35.958363;-83.9244;1074.5;NaN;;0.83;552.639;353.3;2 / 15;69023;2022-10-22 18:34:32:287
1.8242;-2.0782;8.5445;2.4672;-0.3308;9.4855;-1.1692;-1.7753;-0.8971;-0.6816;0.131;-1.8977;18.0;-16.95;33.49;11.44;30.07;1.24;-14.26;2.0;988.74;47.711;35.958363;-83.9244;1074.5;NaN;;0.83;552.639;353.3;2 / 15;69524;2022-10-22 18:34:32:788
3.8306;-0.3772;8.4811;1.819;-0.1563;9.6352;-1.6855;1.0088;3.0199;0.0931;-1.0969;0.504;10.0;-45.15;3.66;8.87;85.01;0.91;-10.69;2.0;988.68;38.781;35.958363;-83.9244;1074.5;NaN;;0.83;552.639;353.3;0 / 15;70025;2022-10-22 18:34:33:289
4.0316;2.3844;9.5632;3.0053;1.0079;9.2802;0.0078;0.0614;0.6005;-0.2466;-1.1037;-0.2893;14.0;-41.16;-21.96;3.26;117.6;-5.9;-17.94;2.0;988.78;32.927;35.958363;-83.9244;1074.5;NaN;;0.83;552.639;353.3;0 / 15;70523;2022-10-22 18:34:33:787
2.709;0.0383;8.2202;3.8406;-0.2675;9.0193;-1.6066;-0.976;-1.9369;-1.1062;0.1634;-2.2801;16.0;-30.64;-32.53;-5.77;143.03;1.0;-26.45;2.0;988.68;38.539;35.958363;-83.9244;1074.5;NaN;;0.83;552.639;353.3;0 / 15;71024;2022-10-22 18:34:34:288
1.1982;-0.6392;9.5321;2.3199;0.8453;9.4907;1.2263;0.5259;2.9144;0.4087;-0.0681;0.4859;12.0;-5.61;-36.0;-26.31;182.25;-2.24;-15.95;2.0;988.78;40.001;35.958363;-83.9244;1074.5;NaN;;0.83;552.639;353.3;0 / 15;71523;2022-10-22 18:34:34:787
0.9338;-0.4238;10.8188;0.5722;0.2123;9.7876;1.1946;-0.5051;1.7661;-0.2359;0.3854;-0.213;8.0;-4.99;-36.26;-35.38;184.5;-2.39;-12.53;2.0;988.71;38.028;35.958363;-83.9244;1074.5;NaN;;0.83;552.639;353.3;0 / 15;72023;2022-10-22 18:34:35:287
0.8258;1.5646;9.8734;0.9357;0.0297;9.7619;0.35;-0.3797;-1.1072;-0.5401;-0.193;-0.5278;4.0;1.05;-33.37;-39.82;189.4;-0.76;-6.29;2.0;988.73;42.228;35.958363;-83.9244;1074.5;NaN;;0.83;552.639;353.3;0 / 15;72523;2022-10-22 18:34:35:787
0.5901;-0.9123;7.9017;1.5467;-0.1009;9.6834;0.9362;-0.4387;-3.7446;0.4731;1.9511;-0.4849;4.0;-2.85;-29.51;-40.28;186.28;0.59;-9.07;2.0;988.7;43.99;35.95836;-83.92439;769.18;NaN;;0.0;508.53888;;0 / 15;73023;2022-10-22 18:34:36:287
-4.1955;-1.908;9.4208;-2.357;-3.0554;9.0155;-1.6645;1.1331;0.3254;0.1489;0.1965;-1.8549;5.0;2.96;-29.12;-37.93;164.91;11.39;19.15;2.0;988.65;42.718;35.95836;-83.92439;769.18;NaN;;0.0;508.53888;;0 / 15;73523;2022-10-22 18:34:36:787
-4.1022;-2.5403;11.5062;-1.8885;-1.4411;9.5146;-2.5683;-0.1351;3.3399;1.9239;-1.4702;1.4537;12.0;22.84;-6.32;-38.91;197.42;19.27;22.38;2.0;988.64;48.426;35.95836;-83.92439;769.18;NaN;;0.0;508.53888;;4 / 15;74023;2022-10-22 18:34:37:287
-1.9884;1.1013;9.8758;-3.0501;1.083;9.2571;1.958;-1.0871;0.0512;-0.4045;-0.1313;-0.8696;11.0;10.65;-16.86;-30.39;205.86;-14.43;12.67;2.0;988.61;41.173;35.95836;-83.92439;769.18;NaN;;0.0;508.53888;;4 / 15;74523;2022-10-22 18:34:37:787
-1.8111;-2.4826;9.4041;-1.7368;-0.5806;9.6341;-2.316;1.293;4.4714;0.9814;-1.7391;3.0085;13.0;14.79;-11.76;-25.88;216.63;3.39;10.22;2.0;988.58;46.03;35.958366;-83.9244;769.66;NaN;;0.0;555.16516;;4 / 15;75024;2022-10-22 18:34:38:288
-1.8817;0.6727;7.8909;0.6142;1.3371;9.6956;-3.5929;-2.3306;2.3601;-0.4893;-0.6902;-2.4587;14.0;9.98;-12.45;-29.04;260.29;-19.13;-7.18;2.0;988.63;45.827;35.958366;-83.9244;769.66;NaN;;0.0;555.16516;;4 / 15;75523;2022-10-22 18:34:38:787
-1.4952;2.8083;12.4636;-0.7663;-0.4679;9.7655;2.1629;5.086;0.9073;1.0752;1.2014;1.7857;19.0;11.78;-6.36;-35.87;229.72;2.73;4.49;2.0;988.61;38.981;35.958366;-83.9244;769.66;NaN;;0.0;555.16516;;4 / 15;76023;2022-10-22 18:34:39:287
-2.461;1.4892;11.0309;-0.2363;3.2658;9.2439;0.3617;-1.4339;-0.8454;-0.6569;1.0474;-0.4613;22.0;7.82;-7.33;-43.35;318.45;-19.45;1.46;2.0;988.55;44.167;35.958366;-83.9244;769.66;NaN;;0.0;555.16516;;4 / 15;76524;2022-10-22 18:34:39:788
-2.4419;4.343;10.3388;-1.015;1.8727;9.5725;1.3643;3.1558;1.3661;-0.2491;-0.0912;-0.2056;27.0;9.41;-9.32;-48.9;306.97;-14.21;5.13;2.0;988.57;43.985;35.958363;-83.924385;769.62;NaN;;0.0;447.23685;;4 / 15;77024;2022-10-22 18:34:40:288
1.0762;3.6787;8.0776;1.1883;3.6354;9.0301;-0.5765;-0.0961;-2.6753;0.2133;-0.0214;0.2233;32.0;3.24;-23.01;-49.07;227.89;-18.83;-4.36;2.0;988.45;42.788;35.958363;-83.924385;769.62;NaN;;0.0;447.23685;;4 / 15;77523;2022-10-22 18:34:40:787
-1.6268;1.5802;8.7817;-1.0168;2.4802;9.4332;-0.6776;-0.2974;-1.135;-0.2272;-0.3608;-0.6617;32.0;-2.48;-37.86;-52.13;154.63;-17.43;8.81;2.0;988.49;45.626;35.958363;-83.9244;769.52;NaN;;0.0;382.73676;;4 / 15;78023;2022-10-22 18:34:41:287
0.4382;3.134;9.204;-0.1482;2.7357;9.4162;0.9662;-0.863;0.0615;0.3254;-0.331;-0.8968;42.0;3.47;-37.97;-55.16;181.7;-15.03;2.43;2.0;988.5;41.999;35.958363;-83.9244;769.52;NaN;;0.0;382.73676;;4 / 15;78524;2022-10-22 18:34:41:788
2.1165;2.1153;7.2577;1.6778;3.7934;8.8863;-1.1354;-1.54;0.4612;-0.3007;-0.6422;-0.8971;36.0;4.69;-52.07;-53.23;203.4;-23.38;-7.35;2.0;988.46;40.372;35.958363;-83.9244;769.52;NaN;;0.0;382.73676;;4 / 15;79023;2022-10-22 18:34:42:287
3.7074;2.3007;8.0022;1.5635;1.1486;9.6128;1.311;0.7152;-1.2738;0.0279;-0.2346;-1.305;29.0;13.2;-44.64;-67.46;207.88;-12.36;-11.86;2.0;988.55;41.038;35.958363;-83.9244;769.52;NaN;;0.0;382.73676;;4 / 15;79523;2022-10-22 18:34:42:787
4.2269;-0.8441;8.6821;3.61;-0.2634;9.1142;0.476;-0.6157;2.4716;0.3882;0.0205;0.2916;36.0;0.23;-9.17;-73.18;242.85;5.36;-23.94;2.0;988.45;48.047;35.958363;-83.9244;769.52;NaN;;0.0;382.73676;;4 / 15;80024;2022-10-22 18:34:43:288
0.6308;-2.6515;12.2519;3.2803;0.2546;9.2383;0.1945;-1.9935;2.4953;-0.4803;0.8227;-0.4846;45.0;-22.71;-14.98;-61.74;202.49;-0.32;-25.61;2.0;988.52;49.3;35.958363;-83.9244;769.52;NaN;;0.0;382.73676;;4 / 15;80523;2022-10-22 18:34:43:787
1.8757;1.9944;9.6924;1.4602;1.7055;9.5462;0.9324;-1.0099;2.0687;1.6361;0.9818;-0.2385;42.0;-9.77;-25.13;-47.02;170.31;-10.02;-8.7;2.0;988.52;37.103;35.958363;-83.9244;769.52;NaN;;0.0;382.73676;;4 / 15;81023;2022-10-22 18:34:44:287
1.4785;0.6188;12.0589;1.7184;0.7404;9.6265;0.5376;0.3394;1.2162;-0.8072;0.5055;-0.8711;22.0;6.02;-17.03;-36.73;220.99;-4.33;-10.12;2.0;988.51;38.135;35.958363;-83.9244;769.52;NaN;;0.0;382.73676;;4 / 15;81523;2022-10-22 18:34:44:787
3.3625;-0.6356;9.9177;2.642;-0.8682;9.4041;0.1197;-2.1543;-0.1546;-0.4948;0.1972;-1.3198;13.0;10.73;0.26;-36.0;262.14;5.08;-15.69;2.0;988.47;36.316;35.958363;-83.9244;769.52;NaN;;0.0;382.73676;;5 / 15;82023;2022-10-22 18:34:45:287
1.8075;-0.2524;8.9755;2.4242;-0.1612;9.5009;-0.7728;0.6006;-1.0733;0.7329;-0.4177;-0.1443;8.0;5.27;12.6;-35.06;314.51;4.23;-9.42;2.0;988.45;44.782;35.958363;-83.9244;769.52;NaN;;0.0;382.73676;;5 / 15;82523;2022-10-22 18:34:45:787
1.5132;1.5646;6.117;0.9004;1.6255;9.629;1.204;-0.3658;-3.3903;1.3068;0.7122;-2.1119;6.0;-6.51;13.2;-33.73;352.03;3.12;-14.2;2.0;988.36;47.003;35.958363;-83.9244;769.52;NaN;;0.0;382.73676;;5 / 15;83023;2022-10-22 18:34:46:287
-1.8278;1.7967;10.6274;2.1185;1.8518;9.3943;-5.1602;2.1027;-1.312;-0.2786;-1.8352;2.6586;7.0;-7.57;8.79;-37.74;22.26;-18.19;0.52;2.0;988.39;43.731;35.958363;-83.9244;769.52;NaN;;0.0;382.73676;;5 / 15;83523;2022-10-22 18:34:46:787
0.7373;-1.8386;10.5341;0.4699;-0.4039;9.7871;0.2793;-1.334;1.0335;-0.887;0.3577;0.3066;8.0;2.4;8.79;-33.06;343.73;-4.41;-2.36;2.0;988.43;47.031;35.958363;-83.9244;769.52;NaN;;0.0;382.73676;;5 / 15;84023;2022-10-22 18:34:47:287
-1.762;0.8354;11.5217;0.6389;0.0652;9.7856;1.4862;2.4245;0.6716;0.0243;0.2563;0.438;7.0;9.96;13.35;-31.82;320.9;-2.75;-3.21;2.0;988.39;45.714;35.958363;-83.9244;769.52;NaN;;0.0;382.73676;;5 / 15;84523;2022-10-22 18:34:47:787
4.2832;-1.081;9.6697;3.5383;-0.1932;9.144;0.7682;-0.8885;0.3154;0.2355;0.0604;0.3113;6.0;6.75;21.13;-35.87;317.19;1.85;-19.28;2.0;988.37;39.229;35.958363;-83.9244;769.52;NaN;;0.0;382.73676;;4 / 15;85023;2022-10-22 18:34:48:287
3.6763;0.0969;7.8132;1.8186;-0.335;9.6307;1.4673;0.2499;-1.6375;0.2848;0.4947;-0.0861;4.0;6.36;18.84;-36.96;319.07;3.53;-13.72;2.0;988.32;46.594;35.958363;-83.9244;769.52;NaN;;0.0;382.73676;;4 / 15;85523;2022-10-22 18:34:48:787
0.8584;1.1994;7.8503;1.2763;0.5806;9.7059;-0.8951;0.0591;-0.4101;0.1356;-0.0042;0.5311;4.0;14.36;12.88;-36.43;306.65;-0.93;-6.88;2.0;988.3;36.849;35.958363;-83.9244;769.52;NaN;;0.0;382.73676;;5 / 15;86024;2022-10-22 18:34:49:288
-1.282;-1.4761;9.7104;0.6993;-0.6028;9.7631;-1.037;-0.0675;2.0996;-0.4169;0.5316;-0.1578;7.0;18.32;3.71;-37.52;285.52;-2.7;-4.0;2.0;988.37;34.432;35.958363;-83.9244;769.52;NaN;;0.0;382.73676;;5 / 15;86523;2022-10-22 18:34:49:787
2.7568;-1.2784;11.5624;1.4986;-0.2352;9.6886;0.8522;-0.0514;-0.3135;0.0674;-0.6534;0.5655;8.0;18.26;1.03;-40.99;270.22;1.37;-8.79;2.0;988.3;42.615;35.95836;-83.9244;769.75;NaN;;0.0;246.74731;;6 / 15;87023;2022-10-22 18:34:50:287
3.4379;0.5279;7.2996;2.6307;0.1671;9.4457;-0.7175;0.1841;-1.9309;-0.1083;0.4562;-0.7438;7.0;9.56;0.28;-44.61;270.11;-0.06;-15.59;2.0;988.28;37.371;35.95836;-83.9244;769.75;NaN;;0.0;246.74731;;6 / 15;87524;2022-10-22 18:34:50:788
1.951;-2.3904;10.2096;2.1727;-0.0747;9.5626;0.5988;0.0967;0.1365;-0.1978;0.317;-0.5823;10.0;2.29;3.28;-45.11;282.62;0.44;-12.8;2.0;988.29;38.677;35.95836;-83.9244;769.75;NaN;;0.0;246.74731;;5 / 15;88024;2022-10-22 18:34:51:288
1.2915;0.291;8.7362;1.8301;1.2186;9.557;0.0648;-0.4829;-0.9773;0.4187;-0.6013;0.0707;15.0;-2.1;8.72;-44.21;339.12;-1.22;-7.54;2.0;988.27;40.818;35.95836;-83.9244;769.75;NaN;;0.0;246.74731;;5 / 15;88524;2022-10-22 18:34:51:788
2.4;1.8505;10.2479;2.0485;0.7835;9.5583;1.279;1.4665;0.5731;-0.3708;-0.1187;-0.3017;19.0;-10.56;2.61;-41.83;22.08;-6.9;-10.29;2.0;988.3;41.545;35.95836;-83.9244;769.75;NaN;;0.0;246.74731;;5 / 15;89023;2022-10-22 18:34:52:287
1.4545;-0.8091;9.2689;1.5682;-0.3147;9.6753;-0.544;-0.5328;-0.7108;-0.1476;0.0974;-0.7086;17.0;-11.23;12.81;-40.12;16.19;0.33;-10.25;2.0;988.25;49.108;35.95836;-83.9244;769.75;NaN;;0.0;246.74731;;5 / 15;89523;2022-10-22 18:34:52:787
0.1819;0.504;10.9217;1.3692;0.0622;9.7104;-1.5556;0.2022;0.056;0.2782;-0.4003;0.0403;11.0;-26.81;22.97;-26.38;44.69;0.1;-8.8;2.0;988.27;37.035;35.95836;-83.92441;770.12;NaN;;0.0;211.90007;;5 / 15;90024;2022-10-22 18:34:53:288
3.2824;0.1771;8.6079;2.067;0.5776;9.5689;0.334;-0.2592;-1.1586;0.0289;-0.0139;-0.5786;17.0;-33.26;14.63;-23.31;58.79;-3.48;-11.71;2.0;988.25;41.486;35.95836;-83.92441;770.12;NaN;;0.0;211.90007;;5 / 15;90523;2022-10-22 18:34:53:787
-6.926;-1.6735;11.6809;-0.678;0.6078;9.7643;0.532;-1.9888;5.8072;0.3526;0.6749;-2.086;20.0;-35.21;-1.07;-20.12;94.15;3.16;-7.24;2.0;988.22;44.704;35.95836;-83.92441;770.12;NaN;;0.0;211.90007;;6 / 15;91024;2022-10-22 18:34:54:288
1.5371;1.1145;8.0142;1.3223;1.1658;9.6469;0.0719;-0.7479;-1.6547;-0.2564;-0.2522;-1.8721;23.0;-31.54;-8.79;-26.85;98.58;-8.62;-6.33;2.0;988.23;38.673;35.95836;-83.92441;770.12;NaN;;0.0;211.90007;;6 / 15;91524;2022-10-22 18:34:54:788
1.008;0.1292;8.924;0.9256;1.7108;9.6118;-4.2389;-2.0952;2.6992;0.3931;-0.7455;0.0014;12.0;-18.19;-32.18;-23.17;149.73;-5.47;-1.77;2.0;988.22;42.823;35.95836;-83.92441;770.12;NaN;;0.0;211.90007;;6 / 15;92023;2022-10-22 18:34:55:287
0.1161;0.9589;11.7574;0.3213;1.6218;9.6663;1.1146;1.2598;0.7486;-0.3071;0.276;-0.213;9.0;-11.64;-36.68;-15.79;162.65;-15.14;-7.75;2.0;988.27;41.204;35.95836;-83.92441;770.12;NaN;;0.0;211.90007;;6 / 15;92523;2022-10-22 18:34:55:787
2.1715;2.2385;10.899;1.1089;0.4852;9.7317;-0.312;0.1117;-0.6559;-0.0701;0.0057;-0.4159;5.0;-5.87;-30.53;-16.8;172.36;-2.84;-6.5;2.0;988.26;42.507;35.95835;-83.924416;770.31;NaN;;0.0;156.4465;;6 / 15;93023;2022-10-22 18:34:56:287
1.6735;0.5877;9.428;1.671;1.5544;9.5374;-0.0069;-0.5181;0.4585;0.3709;1.4799;-0.7054;4.0;-4.44;-31.41;-20.83;177.88;-3.13;-7.83;2.0;988.17;44.654;35.95835;-83.924416;770.31;NaN;;0.0;156.4465;;6 / 15;93523;2022-10-22 18:34:56:787
1.7656;3.032;8.4308;1.1226;1.6262;9.6055;0.8018;-0.3187;-0.4108;0.4477;0.1607;0.0282;6.0;-6.58;-29.34;-21.82;169.96;-9.55;-6.67;2.0;988.18;46.047;35.95835;-83.924416;770.31;NaN;;0.0;156.4465;;6 / 15;94023;2022-10-22 18:34:57:287
0.6511;2.0267;7.2159;1.6248;2.7614;9.2685;-0.6831;-1.214;-0.032;0.3443;0.3449;-0.0027;7.0;-8.74;-28.44;-22.99;176.43;-10.94;-8.62;2.0;988.14;49.293;35.95835;-83.924416;770.31;NaN;;0.0;156.4465;;6 / 15;94523;2022-10-22 18:34:57:787
2.6527;3.4199;8.9743;0.7053;1.4186;9.6778;-0.821;1.0693;-0.9635;0.5366;0.1025;-0.5516;10.0;-16.91;-23.06;-25.72;140.81;-7.35;-2.59;2.0;988.11;49.026;35.95835;-83.924416;770.31;NaN;;0.0;156.4465;;6 / 15;95024;2022-10-22 18:34:58:288
0.3951;2.3809;8.7529;0.6246;1.0827;9.7267;-0.6756;0.7878;-0.1638;0.4103;-0.1724;0.5075;14.0;-19.91;-11.76;-30.9;116.8;-4.25;-1.73;2.0;988.11;44.425;35.95835;-83.924416;770.31;NaN;;0.0;156.4465;;6 / 15;95524;2022-10-22 18:34:58:788
-1.1216;1.2377;10.7507;-1.2917;1.9466;9.5243;1.2254;-1.0437;0.7127;0.8215;0.4246;0.1478;14.0;-10.31;10.29;-29.49;41.27;-8.19;4.41;2.0;988.11;43.865;35.95835;-83.92443;770.49;NaN;;0.0;121.8923;;6 / 15;96025;2022-10-22 18:34:59:289
-2.4574;1.4821;7.7378;0.2004;1.4916;9.6905;-1.2415;-1.6773;1.9375;0.4523;-0.6376;0.6841;22.0;2.4;8.34;-28.93;348.08;-8.75;-1.18;2.0;988.06;45.195;35.95835;-83.92443;770.49;NaN;;0.0;121.8923;;6 / 15;96523;2022-10-22 18:34:59:787
0.2453;0.0598;7.8658;-1.2921;1.333;9.6293;-1.3669;-1.1063;1.9045;-0.0709;-0.3011;-0.431;29.0;0.9;8.96;-35.62;12.26;-6.6;6.11;2.0;987.99;43.602;35.95835;-83.92443;770.49;NaN;;0.0;121.8923;;6 / 15;97023;2022-10-22 18:35:00:287
-0.1005;0.7684;9.0664;-0.3466;1.0;9.7494;-3.2533;0.1401;1.5332;-0.0539;-0.0036;0.1531;40.0;-2.44;8.33;-42.0;27.48;-6.76;6.4;2.0;988.07;35.07;35.95835;-83.92443;770.49;NaN;;0.0;121.8923;;6 / 15;97523;2022-10-22 18:35:00:787
0.5554;2.8155;8.5899;0.152;2.8444;9.3839;0.793;-0.7202;-0.0261;0.3268;0.1177;-0.48;37.0;-10.84;-11.91;-45.66;91.19;-14.31;-1.1;2.0;988.01;41.732;35.95835;-83.92443;770.49;NaN;;0.0;121.8923;;6 / 15;98023;2022-10-22 18:35:01:287
0.1041;-2.3904;7.1955;1.5961;-0.6148;9.6563;-3.0541;-1.8174;-2.7472;0.1329;-0.7786;-1.0472;32.0;-11.61;-20.18;-46.89;152.29;5.33;0.91;2.0;987.96;44.208;35.95835;-83.92443;770.49;NaN;;0.0;121.8923;;6 / 15;98523;2022-10-22 18:35:01:787
1.392;2.953;9.149;1.3974;1.5722;9.5784;0.6779;-0.6066;-0.154;0.4423;-0.3615;-0.8039;42.0;-4.91;-26.83;-47.34;185.5;-9.23;-8.3;2.0;988.02;35.639;35.95835;-83.92443;770.49;NaN;;0.0;121.8923;;8 / 15;99023;2022-10-22 18:35:02:287
3.7014;1.8864;7.0579;3.0432;2.2511;9.0467;0.1894;-0.3881;-2.2635;-0.2911;-0.1416;-0.8822;26.0;14.18;-30.02;-41.04;229.46;-14.86;-13.02;2.0;988.01;42.474;35.95835;-83.92443;770.49;NaN;;0.0;121.8923;;8 / 15;99523;2022-10-22 18:35:02:787
2.0997;2.6145;6.9978;1.6522;2.0902;9.4378;0.6989;0.0881;-0.33;0.5886;0.3159;-0.5705;17.0;11.94;-23.47;-37.69;230.89;-12.31;-9.93;2.0;987.95;40.074;35.95835;-83.92442;770.59;NaN;;0.0;94.46637;;8 / 15;100023;2022-10-22 18:35:03:287
1.2317;1.2544;8.9874;0.6147;2.3922;9.4905;0.5084;-0.3488;3.1898;0.5434;-0.1333;-0.442;15.0;18.26;-18.43;-32.06;241.24;-10.9;-7.66;2.0;988.07;48.536;35.95835;-83.92442;770.59;NaN;;0.0;94.46637;;8 / 15;100523;2022-10-22 18:35:03:787
3.5504;0.1567;9.489;1.9271;0.3961;9.6073;-0.0673;-0.8174;-0.9159;-0.1144;-0.7084;-0.5408;16.0;25.13;-10.07;-20.49;251.56;-2.35;-9.89;2.0;987.99;58.146;35.95835;-83.92443;770.75;NaN;;0.0;91.18137;;8 / 15;101023;2022-10-22 18:35:04:287
2.126;1.2114;12.618;2.0783;0.7683;9.5531;0.5251;-0.0068;-0.2536;0.5159;0.8946;-0.5743;7.0;21.08;6.62;-12.97;287.32;-2.48;-13.73;2.0;988.0;41.219;35.95835;-83.92443;770.75;NaN;;0.0;91.18137;;8 / 15;101523;2022-10-22 18:35:04:787
3.4223;2.0231;9.6386;2.1232;0.7991;9.5406;1.247;0.3488;0.2694;-1.0513;-0.3596;-0.396;7.0;6.0;21.17;4.24;345.98;-6.68;-11.78;2.0;988.0;38.543;35.95835;-83.92443;770.75;NaN;;0.0;91.18137;;7 / 15;102023;2022-10-22 18:35:05:287
2.8298;-2.0985;8.4739;3.041;-1.2432;9.24;-0.7056;-1.9213;-1.2981;-0.0387;0.2443;-0.5532;6.0;-3.04;27.11;18.49;17.76;12.24;-21.93;2.0;987.94;48.711;35.95835;-83.92443;770.75;NaN;;0.0;91.18137;;7 / 15;102524;2022-10-22 18:35:05:788
2.7042;0.1101;10.1067;1.9229;-1.3334;9.5234;-0.7754;0.8511;0.3413;-0.2856;-0.9486;0.2472;3.0;-25.09;21.6;15.3;49.92;7.81;-11.42;2.0;987.95;48.012;35.95835;-83.92443;770.75;NaN;;0.0;91.18137;;7 / 15;103023;2022-10-22 18:35:06:287
1.3908;-0.5698;7.9831;0.2089;-0.074;9.8041;0.0431;-0.752;-1.2081;0.1548;1.2131;-0.5383;3.0;-26.7;22.41;6.86;51.68;-0.38;-17.57;2.0;988.02;44.63;35.95835;-83.92443;770.75;NaN;;0.0;91.18137;;7 / 15;103523;2022-10-22 18:35:06:787
0.1866;0.128;13.4046;0.1214;-1.1758;9.7351;0.4402;1.7706;-0.6399;-0.6421;0.2843;0.5777;11.0;-27.11;21.26;-5.51;52.23;1.46;-1.09;2.0;988.0;39.892;35.95835;-83.92443;770.75;NaN;;0.0;91.18137;;7 / 14;104023;2022-10-22 18:35:07:287
-0.0814;-1.075;12.2997;0.025;0.3318;9.801;0.1783;-0.6872;0.269;0.2121;0.2773;0.4347;15.0;-18.68;20.91;-5.04;41.0;1.15;-8.02;2.0;987.94;47.34;35.95835;-83.92443;770.75;NaN;;0.0;91.18137;;7 / 14;104523;2022-10-22 18:35:07:787
1.4785;3.1998;11.5816;-1.1956;1.4744;9.6212;-0.4526;-0.501;0.4993;-0.4542;0.0218;0.568;19.0;-7.33;7.91;-13.56;41.31;-8.65;7.08;2.0;987.89;39.454;35.95835;-83.92443;770.75;NaN;;0.0;91.18137;;5 / 15;105023;2022-10-22 18:35:08:287
0.2106;1.6902;10.5209;0.6154;3.9416;8.9586;-1.3785;-1.2817;-1.1379;0.5361;0.7121;0.2792;31.0;-8.08;-0.51;-19.87;60.36;-15.32;-0.99;2.0;987.82;43.285;35.95835;-83.92443;770.75;NaN;;0.0;91.18137;;5 / 15;105523;2022-10-22 18:35:08:787
-0.5614;3.4391;7.0866;-1.4005;2.694;9.3248;-0.128;-0.391;-0.5634;2.0E-4;-0.6947;-1.035;55.0;-6.98;1.28;-23.7;55.54;-15.94;8.54;2.0;987.8;46.572;35.95835;-83.92443;770.75;NaN;;0.0;91.18137;;6 / 15;106023;2022-10-22 18:35:09:287
0.2572;3.2871;8.2047;-0.4075;4.0769;8.9097;0.7033;-1.3383;-2.696;-0.0937;1.4917;1.2856;62.0;-8.23;-0.02;-25.82;34.35;-24.48;-1.29;2.0;987.88;43.071;35.95835;-83.92443;770.75;NaN;;0.0;91.18137;;6 / 15;106524;2022-10-22 18:35:09:788
-3.0921;5.6094;9.993;-1.5203;5.3595;8.0706;-0.8102;1.8698;2.2536;0.8533;0.6136;-0.9925;89.0;6.15;7.69;-24.24;342.33;-34.21;-0.93;2.0;987.85;42.628;35.95835;-83.92443;770.75;NaN;;0.0;91.18137;;6 / 15;107023;2022-10-22 18:35:10:287
-3.1292;1.9729;9.5225;-1.6269;3.7772;8.9026;1.8744;-0.0129;-0.3701;-0.8753;-0.4607;-1.2081;114.0;9.19;8.38;-22.69;337.26;-34.65;1.73;2.0;987.84;37.133;35.95835;-83.92443;770.75;NaN;;0.0;91.18137;;6 / 15;107523;2022-10-22 18:35:10:787
-2.4;3.7696;9.562;-2.1018;4.6526;8.373;0.1539;-0.9571;1.0428;0.5436;-0.3236;-0.7838;153.0;7.11;11.14;-31.86;355.11;-25.14;8.77;2.0;987.81;41.365;35.95835;-83.92443;770.75;NaN;;0.0;91.18137;;6 / 15;108023;2022-10-22 18:35:11:287
-2.703;2.7437;11.3181;-1.025;3.7036;9.0224;-2.086;1.7712;0.3555;0.2979;-1.593;-1.1458;238.0;-2.61;-2.72;-41.79;6.64;-26.9;7.87;2.0;987.85;38.881;35.95835;-83.92443;770.75;NaN;;0.0;91.18137;;6 / 15;108524;2022-10-22 18:35:11:788
3.3589;2.8358;8.8211;3.1913;2.7086;8.8685;-1.6831;1.5152;0.0026;-0.5059;0.4664;-0.5274;277.0;-25.39;-15.51;-39.26;91.39;-19.11;-22.14;2.0;987.83;45.997;35.95835;-83.92443;770.75;NaN;;0.0;91.18137;;6 / 15;109023;2022-10-22 18:35:12:287
4.3609;-0.984;10.9265;2.8472;1.3821;9.2819;0.7275;-1.9974;0.827;-1.3174;-0.0277;-0.899;259.0;-38.46;-18.96;-39.58;111.39;-10.39;-20.04;2.0;987.81;43.617;35.95835;-83.92443;770.75;NaN;;0.0;91.18137;;6 / 15;109523;2022-10-22 18:35:12:787
1.9116;4.5356;8.1963;2.8767;4.7195;8.1007;0.8333;0.2017;1.8214;-0.6211;0.1245;-0.1717;84.0;-35.48;-26.96;-33.6;115.25;-21.54;-24.3;2.0;987.85;44.837;35.95834;-83.92443;792.51;NaN;;0.0;60.30906;;8 / 15;110023;2022-10-22 18:35:13:287
3.0703;5.31;9.4424;3.2007;4.8047;7.9272;0.6017;0.0808;1.1787;-0.4488;-0.9064;-0.967;43.0;-32.42;-32.85;-23.78;122.08;-27.09;-22.5;2.0;987.84;42.346;35.95834;-83.92443;792.51;NaN;;0.0;60.30906;;8 / 15;110523;2022-10-22 18:35:13:787
2.9136;4.6241;8.3016;2.3034;4.6487;8.3219;0.7461;-0.5443;0.6851;-0.1107;-0.507;-0.6052;17.0;-29.31;-35.08;-21.17;128.15;-28.3;-15.47;2.0;987.84;38.209;35.95834;-83.92443;792.51;NaN;;0.0;60.30906;;10 / 15;111023;2022-10-22 18:35:14:287
1.7154;4.721;6.3706;2.2717;5.2908;7.9383;-0.6084;-0.3355;-2.8174;0.4077;0.5583;0.8312;33.0;-23.08;-43.5;-17.47;142.88;-33.25;-14.56;2.0;987.82;38.506;35.95834;-83.92443;792.51;NaN;;0.0;60.30906;;10 / 15;111523;2022-10-22 18:35:14:787
2.6898;5.3076;7.7689;0.9252;4.6599;8.5791;0.2414;1.232;1.6778;-0.1088;-1.6055;-0.1471;21.0;-19.71;-38.19;-12.73;144.86;-28.37;-6.16;2.0;987.76;41.433;35.958336;-83.92444;781.65;NaN;;0.0;46.667263;;10 / 15;112024;2022-10-22 18:35:15:288
1.7608;4.1752;5.3088;3.2755;4.7716;7.9166;-1.4025;1.8432;-1.146;-0.1191;0.4431;0.9591;18.0;-13.5;-31.37;-9.81;156.77;-31.05;-26.64;2.0;987.78;41.022;35.958336;-83.92444;781.65;NaN;;0.0;46.667263;;10 / 15;112523;2022-10-22 18:35:15:787
0.9398;5.0731;6.8483;1.0309;5.0782;8.3258;-1.2115;2.3836;2.4755;-0.2615;-0.3511;-0.9747;29.0;-16.11;-22.26;-9.73;126.98;-35.43;-6.29;2.0;987.76;46.528;35.958317;-83.924446;780.29;NaN;;0.0;44.993385;;10 / 15;113023;2022-10-22 18:35:16:287
2.1236;5.8546;5.237;2.9295;5.6141;7.488;-1.6176;0.5492;1.9003;0.864;-0.0359;0.2097;40.0;-16.5;-25.59;-11.49;145.02;-26.94;-20.32;2.0;987.76;48.172;35.958317;-83.924446;780.29;NaN;;0.0;44.993385;;10 / 15;113523;2022-10-22 18:35:16:787
2.7544;5.4754;8.2358;2.4022;5.7332;7.5849;0.822;-1.2123;-0.1316;0.2823;-0.4071;-0.4429;43.0;-30.49;-29.16;-8.14;117.31;-35.72;-20.22;2.0;987.7;43.96;35.958298;-83.924446;777.57;NaN;;0.0;40.69539;;10 / 15;114024;2022-10-22 18:35:17:288
1.4139;5.0575;9.1693;1.5848;5.3006;8.097;-0.4758;-0.1138;-1.3277;-0.1536;0.0615;0.1408;69.0;-35.64;-30.6;-12.13;114.94;-34.41;-9.16;2.0;987.71;42.169;35.958298;-83.924446;777.57;NaN;;0.0;40.69539;;10 / 15;114523;2022-10-22 18:35:17:787
1.0702;6.2318;7.1201;1.0946;5.7845;7.8429;0.7595;0.9331;-1.6751;-0.0958;0.4104;0.5107;98.0;-40.99;-41.27;-13.03;122.0;-32.95;-8.33;2.0;987.7;45.358;35.95828;-83.924446;776.59;NaN;;0.0;39.072796;;13 / 15;115023;2022-10-22 18:35:18:287
-0.0455;5.4335;10.1438;1.026;5.733;7.8899;-0.0273;-0.7617;1.4045;-0.2127;0.121;-0.6342;118.0;-46.99;-53.81;-5.74;128.75;-35.77;-7.41;2.0;987.68;43.76;35.95828;-83.924446;776.59;NaN;;0.0;39.072796;;13 / 15;115524;2022-10-22 18:35:18:788
0.8943;5.8152;9.434;0.5621;4.7386;8.5674;0.1171;-0.3861;0.629;0.3244;-0.2298;-0.3598;143.0;-38.38;-64.56;-7.95;144.27;-28.76;-3.23;2.0;987.66;46.962;35.958286;-83.92445;776.2;NaN;;0.0;38.781563;;14 / 15;116024;2022-10-22 18:35:19:288
2.575;4.6433;7.3259;1.1479;6.0769;7.6108;0.1855;-0.7833;-0.6828;0.0297;-0.4275;0.1;160.0;-24.06;-63.71;2.04;153.99;-38.29;-8.58;2.0;987.64;44.364;35.958286;-83.92445;776.2;NaN;;0.0;38.781563;;14 / 15;116526;2022-10-22 18:35:19:790
-1.6041;8.4464;9.6541;1.3833;6.5047;7.2073;0.2293;1.0171;1.7039;-0.8931;0.0907;-0.7249;186.0;-19.52;-57.62;8.18;155.36;-41.55;-10.86;2.0;987.64;41.992;35.95827;-83.92445;775.22;NaN;;0.0;36.65213;;14 / 15;117023;2022-10-22 18:35:20:287
1.1288;1.998;8.9575;1.796;1.9741;9.4365;-0.5447;-0.0599;-1.1755;-0.3772;-0.6602;-0.6705;210.0;-2.59;-47.72;-7.27;170.21;-24.42;-6.35;2.0;987.63;44.556;35.95827;-83.92445;775.22;NaN;;0.0;36.65213;;14 / 15;117523;2022-10-22 18:35:20:787
2.8167;1.3549;9.1382;3.2376;2.629;8.8756;-0.338;-0.244;-0.5446;-0.6545;0.4669;0.3699;232.0;10.86;-36.34;-26.12;213.44;-15.55;-20.04;2.0;987.6;50.034;35.95827;-83.92445;775.22;NaN;;0.0;36.65213;;15 / 15;118023;2022-10-22 18:35:21:287
0.5518;-0.7026;10.0995;1.5472;0.9478;9.6373;-1.9551;-0.8501;1.1943;0.0181;-0.0667;-0.7971;244.0;13.24;-32.49;-30.39;214.08;-8.76;-11.3;2.0;987.62;45.971;35.95827;-83.92445;775.22;NaN;;0.0;36.65213;;15 / 15;118524;2022-10-22 18:35:21:788
1.5072;1.4258;11.0812;1.1711;1.9885;9.5312;0.8107;0.3798;1.1915;0.6541;-0.8375;-0.2594;418.0;24.73;-18.08;-41.16;248.08;-8.63;-7.83;2.0;987.6;41.747;35.95826;-83.92447;773.59;NaN;;0.0;34.60296;;14 / 15;119023;2022-10-22 18:35:22:287
0.5746;2.953;8.3399;0.4682;2.9139;9.352;1.1364;0.9931;-0.5217;-0.0021;0.7089;-0.6971;410.0;26.04;-17.03;-43.07;260.07;-16.03;-7.13;2.0;987.56;54.126;35.95826;-83.92447;773.59;NaN;;0.0;34.60296;;14 / 15;119523;2022-10-22 18:35:22:787
-1.0499;0.7612;10.6083;-1.2828;2.2693;9.4538;-2.437;-1.9551;0.7501;0.8821;-0.5954;-3.1865;345.0;36.15;-6.15;-37.03;263.03;-4.08;19.38;2.0;987.57;44.384;35.95826;-83.92447;773.59;NaN;;0.0;34.60296;;14 / 15;120023;2022-10-22 18:35:23:287
0.2082;1.9801;8.3375;-2.2283;3.2784;8.9698;2.6536;-1.3272;0.5586;0.4476;1.1549;-0.2991;344.0;28.41;11.4;-46.07;316.34;-13.16;8.39;2.0;987.54;45.231;35.95826;-83.92447;773.59;NaN;;0.0;34.60296;;14 / 15;120523;2022-10-22 18:35:23:787
-5.8869;2.339;10.285;-4.1327;3.8342;8.0244;0.3114;0.8538;0.3164;-0.1503;0.3024;-0.5427;253.0;29.38;5.98;-45.68;349.98;-23.02;27.25;2.0;987.59;61.231;35.95826;-83.92447;773.59;NaN;;0.0;34.60296;;14 / 15;121023;2022-10-22 18:35:24:287