ACCELEROMETER X (m/s²);ACCELEROMETER Y (m/s²);ACCELEROMETER Z (m/s²);GRAVITY X (m/s²);GRAVITY Y (m/s²);GRAVITY Z (m/s²);LINEAR ACCELERATION X (m/s²);LINEAR ACCELERATION Y (m/s²);LINEAR ACCELERATION Z (m/s²);GYROSCOPE X (rad/s);GYROSCOPE Y (rad/s);GYROSCOPE Z (rad/s);LIGHT (lux);MAGNETIC FIELD X (μT);MAGNETIC FIELD Y (μT);MAGNETIC FIELD Z (μT);ORIENTATION Z (azimuth °);ORIENTATION X (pitch °);ORIENTATION Y (roll °);PROXIMITY (i);ATMOSPHERIC PRESSURE (hPa);SOUND LEVEL (dB);LOCATION Latitude : ;LOCATION Longitude : ;LOCATION Altitude ( m);LOCATION Altitude-google ( m);LOCATION Altitude-atmospheric pressure ( m);LOCATION Speed ( Kmh);LOCATION Accuracy ( m);LOCATION ORIENTATION (°);Satellites in range;Time since start in ms ;YYYY-MO-DD HH-MI-SS_SSS
-2.6838;0.9494;8.3638;-3.3028;1.2526;9.1484;0.7771;0.61;-0.6136;-0.2327;0.0861;0.3271;136.0;6.75;-36.34;-27.39;178.04;-13.85;16.52;5.0;976.27;50.225;35.95824;-83.924545;796.49;NaN;;0.0;38.71247;;0 / 17;7;2022-10-25 20:49:02:104
-1.4174;1.5933;7.3403;-1.0341;1.8135;9.5819;-0.6532;0.4097;-1.421;-0.0697;0.021;-0.1727;148.0;1.8;-31.61;-33.04;178.06;-10.28;4.97;5.0;976.3;53.373;35.95824;-83.924545;796.49;NaN;;0.0;38.71247;;9 / 17;508;2022-10-25 20:49:02:605
1.817;3.2524;10.4755;-0.4479;2.2098;9.5439;-0.4629;-0.814;2.9793;-0.1551;-1.7731;0.3135;133.0;-4.27;-35.74;-30.54;174.72;-13.51;-2.65;5.0;976.36;51.581;35.95824;-83.924545;796.49;NaN;;0.0;38.71247;;9 / 17;1007;2022-10-25 20:49:03:104
1.252;4.9953;9.9559;1.1191;3.9488;8.9065;-1.266;-0.4256;-2.2867;0.0167;-0.3021;0.3399;109.0;-15.47;-41.34;-23.78;156.27;-21.13;-5.09;5.0;976.38;55.27;35.95824;-83.924545;796.49;NaN;;0.0;38.71247;;9 / 17;1508;2022-10-25 20:49:03:605
0.6583;2.7138;9.3515;2.0387;4.0499;8.6955;-1.7718;0.5761;-1.8728;0.2474;0.8866;1.5238;63.0;-29.04;-48.82;-10.33;138.74;-36.45;-10.18;5.0;976.4;53.617;35.95824;-83.924545;796.49;NaN;;0.0;38.71247;;9 / 17;2007;2022-10-25 20:49:04:104
0.5758;3.146;6.306;-2.0527;3.2852;9.0091;2.033;0.0686;-0.8645;-2.0579;3.6789;0.5383;38.0;-49.18;-32.85;-25.74;116.11;-19.57;12.84;5.0;976.39;48.15;35.95824;-83.924545;792.01;NaN;;0.0;24.284695;;10 / 17;2508;2022-10-25 20:49:04:605
-3.5659;1.014;8.499;-4.1393;2.0011;8.6621;0.8252;-1.8851;-0.0178;0.4136;0.1771;0.2753;15.0;-34.63;0.04;-51.9;86.91;-5.26;25.52;5.0;976.4;48.036;35.95824;-83.924545;792.01;NaN;;0.0;24.284695;;10 / 17;3007;2022-10-25 20:49:05:104
-2.6157;2.26;7.2362;-2.8303;2.1236;9.146;-1.6808;0.0209;0.4594;0.6973;-0.041;-0.4413;13.0;-25.5;10.59;-53.06;63.68;-12.51;17.2;5.0;976.42;48.735;35.958244;-83.92454;794.17;NaN;;0.0;23.245792;;10 / 17;3508;2022-10-25 20:49:05:605
-4.0579;3.8402;6.3706;-3.892;3.0191;8.4798;-0.866;0.4155;-0.9114;0.0727;0.4226;0.5908;10.0;-21.69;6.21;-49.76;68.44;-16.12;23.97;5.0;976.43;51.582;35.958244;-83.92454;794.17;NaN;;0.0;23.245792;;10 / 17;4008;2022-10-25 20:49:06:105
-5.3976;2.0016;8.5875;-4.4816;3.5488;7.9682;1.9559;0.2035;-1.2629;0.476;-0.6213;-0.4225;9.0;-8.53;0.51;-41.7;66.13;-21.22;29.35;5.0;976.49;48.143;35.958244;-83.92454;794.17;NaN;;0.0;23.245792;;10 / 17;4507;2022-10-25 20:49:06:604
-5.4263;0.9182;10.8763;-4.2897;1.6653;8.66;0.6403;0.2016;-1.0008;-1.632;0.6001;-0.5995;6.0;-3.69;-8.06;-32.06;84.84;-18.75;22.46;5.0;976.5;46.133;35.958244;-83.92454;794.17;NaN;;0.0;23.245792;;10 / 17;5007;2022-10-25 20:49:07:104
-5.5196;0.1771;5.7218;-7.2908;-0.3252;6.5505;-1.4077;0.0428;1.006;0.2196;-0.5553;-0.1803;5.0;9.45;-2.03;-22.71;103.1;2.44;51.74;5.0;976.48;48.225;35.95824;-83.92453;795.59;NaN;;0.0;19.147997;;10 / 17;5508;2022-10-25 20:49:07:605
-4.0137;0.0323;4.3178;-7.1887;0.0054;6.6703;-0.3007;0.4564;-1.1568;1.6727;0.185;-0.52;7.0;22.97;9.41;-24.07;13.25;-0.73;47.61;5.0;976.54;47.328;35.95824;-83.92453;795.59;NaN;;0.0;19.147997;;10 / 17;6007;2022-10-25 20:49:08:104
-12.3212;0.3006;7.6684;-8.3422;1.3166;4.9844;-0.715;-0.3293;0.5332;-0.6091;-0.7165;0.1459;7.0;24.47;2.64;-46.63;75.32;-6.53;61.93;5.0;976.58;48.43;35.95824;-83.92453;795.59;NaN;;0.0;19.147997;;10 / 17;6507;2022-10-25 20:49:08:604
-7.2206;4.5272;3.3817;-7.1783;3.8706;5.4462;-2.0828;-1.5726;-1.9081;-0.8792;1.2753;2.4499;7.0;23.4;-16.18;-48.32;89.5;-20.65;61.32;5.0;976.6;46.812;35.95824;-83.92453;795.59;NaN;;0.0;19.147997;;10 / 17;7007;2022-10-25 20:49:09:104
-5.8331;6.6568;6.5192;-4.9078;6.7725;5.1203;2.1244;-0.4648;-0.9352;-0.0202;-0.1348;1.2151;15.0;22.63;-20.83;-48.11;62.65;-36.47;50.83;5.0;976.61;46.624;35.95824;-83.92453;795.59;NaN;;0.0;19.147997;;10 / 17;7507;2022-10-25 20:49:09:604
-8.6342;4.2003;-0.0407;-4.7885;7.9966;3.0489;0.6456;-1.8453;-1.5816;-1.0226;2.2692;0.7505;27.0;21.41;-25.61;-45.68;33.06;-54.68;42.67;5.0;976.58;41.796;35.95824;-83.92453;795.59;NaN;;0.0;19.147997;;10 / 17;8009;2022-10-25 20:49:10:106
-0.9697;5.7661;8.286;-3.5011;5.353;7.4336;1.3371;-0.0203;-2.5156;-0.5353;-0.6357;-0.18;28.0;33.84;-16.41;-28.52;295.61;-33.08;25.22;5.0;976.63;45.516;35.95824;-83.92453;795.59;NaN;;0.0;19.147997;;10 / 17;8508;2022-10-25 20:49:10:605
-3.6389;3.7756;4.2736;-6.0692;5.8342;5.0297;2.4142;-2.2549;-0.648;-0.6896;1.9666;0.8215;28.0;36.58;-9.53;-16.76;302.83;-40.98;31.48;5.0;976.62;42.955;35.95824;-83.92453;795.59;NaN;;0.0;19.147997;;10 / 17;9007;2022-10-25 20:49:11:104
-3.0823;4.4172;8.0166;-4.7251;4.9284;7.0396;1.507;-0.5622;-3.2265;-0.8674;-1.8169;-0.1108;5.0;33.62;-16.74;6.11;256.33;-30.17;33.87;5.0;976.62;35.427;35.95824;-83.92453;795.59;NaN;;0.0;19.147997;;10 / 17;9507;2022-10-25 20:49:11:604
-3.329;2.004;7.7043;-3.0736;3.0611;8.7951;-0.0676;-0.9833;-0.5586;0.3834;0.1644;0.1536;4.0;30.45;-14.98;-3.86;247.82;-14.97;17.42;5.0;976.62;37.516;35.95824;-83.92453;795.59;NaN;;0.0;19.147997;;10 / 17;10007;2022-10-25 20:49:12:104
-3.3063;2.5546;6.4678;-3.8958;3.3277;8.3618;-0.3331;-0.0984;-1.0093;-0.0104;0.2927;-0.3956;5.0;29.08;-11.33;-16.07;266.28;-19.84;24.98;5.0;976.62;38.12;35.95824;-83.92453;795.59;NaN;;0.0;19.147997;;10 / 17;10507;2022-10-25 20:49:12:604
-3.5695;2.6958;8.1808;-5.4749;3.0486;7.5433;0.745;-1.5892;1.351;0.2792;0.5189;0.4266;2.0;31.76;-12.66;-17.4;269.0;-21.19;36.82;5.0;976.63;46.131;35.95824;-83.92453;795.59;NaN;;0.0;19.147997;;10 / 17;11008;2022-10-25 20:49:13:105
-10.0899;-1.0953;9.3383;-5.0778;1.8576;8.1814;-5.8818;-2.4376;1.295;0.5191;1.1673;-0.779;2.0;32.21;-11.55;-9.96;255.11;-13.18;29.09;5.0;976.68;46.268;35.95824;-83.92453;795.59;NaN;;0.0;19.147997;;8 / 17;11507;2022-10-25 20:49:13:604
-6.9069;2.0698;6.9416;-5.4614;1.3564;8.0314;-0.5156;0.715;5.1584;1.5067;0.144;-0.4008;1.0;37.35;-5.51;7.11;263.5;-7.59;34.81;5.0;976.7;51.907;35.95824;-83.92453;795.59;NaN;;0.0;19.147997;;8 / 17;12007;2022-10-25 20:49:14:104
-3.2524;1.7584;6.0858;-4.6597;2.1405;8.3592;1.2828;-0.2212;-1.8939;-0.2169;0.1594;0.7045;1.0;39.58;-2.59;15.39;270.78;-14.49;39.43;5.0;976.72;47.938;35.95824;-83.92453;795.59;NaN;;0.0;19.147997;;7 / 17;12508;2022-10-25 20:49:14:605
-3.5898;1.3777;8.7482;-2.2167;2.6944;9.165;1.5509;-1.8642;0.8426;0.6244;0.8445;-0.1736;1.0;32.04;-6.15;2.83;260.75;-9.92;12.81;5.0;976.73;46.926;35.95824;-83.92453;795.59;NaN;;0.0;19.147997;;7 / 17;13007;2022-10-25 20:49:15:104
-2.3761;7.1572;7.5054;-1.6005;3.0357;9.1866;-1.0584;0.5985;5.341;-1.2126;-0.097;-0.2694;4.0;17.46;-14.59;0.13;231.46;-18.52;9.08;5.0;976.76;44.543;35.95824;-83.92453;795.59;NaN;;0.0;19.147997;;6 / 17;13509;2022-10-25 20:49:15:606
-2.2971;3.5192;4.2927;-2.0728;2.4011;9.2795;-0.4016;-1.7853;3.8729;2.3333;2.3039;0.3403;4.0;5.16;-27.38;-3.66;190.21;-20.1;9.51;5.0;976.81;48.109;35.95824;-83.92453;795.59;NaN;;0.0;19.147997;;6 / 17;14007;2022-10-25 20:49:16:104
-6.5001;4.258;2.0495;-7.4306;4.5342;4.5163;5.3653;-1.9812;3.2199;-0.8967;-0.7798;-0.0876;8.0;11.49;-29.29;-16.56;152.98;-27.54;58.71;5.0;976.75;51.16;35.95824;-83.92453;795.59;NaN;;0.0;19.147997;;5 / 17;14508;2022-10-25 20:49:16:605
-4.4997;2.3127;6.9607;-5.4363;4.1314;7.0391;0.6651;-2.1265;-1.7576;-0.8235;0.0951;1.151;11.0;18.58;-29.66;-19.58;180.52;-23.63;43.22;5.0;976.8;45.327;35.95824;-83.92453;795.59;NaN;;0.0;19.147997;;5 / 17;15007;2022-10-25 20:49:17:104
-4.1943;3.1842;5.5508;-5.6905;3.3912;7.2311;0.5612;-1.2793;-2.5859;-0.9541;0.2749;0.5633;11.0;5.7;-32.1;-37.82;134.43;-20.23;38.2;5.0;976.76;43.581;35.95824;-83.92453;795.59;NaN;;0.0;19.147997;;5 / 17;15507;2022-10-25 20:49:17:604
-6.1026;2.3976;5.6632;-5.7265;3.5484;7.1265;-0.5613;-1.6358;-1.0911;-0.6476;0.141;1.0852;14.0;6.38;-23.57;-46.31;110.81;-19.83;38.52;5.0;976.75;47.713;35.95824;-83.92453;795.59;NaN;;0.0;19.147997;;5 / 17;16008;2022-10-25 20:49:18:105
-0.7253;2.7676;7.4803;-1.6626;2.431;9.3539;1.0121;-0.7837;-0.5227;-0.2146;-0.4487;0.7591;4.0;5.87;-10.16;-46.46;49.97;-14.35;10.08;5.0;976.78;40.884;35.95824;-83.92453;795.59;NaN;;0.0;19.147997;;5 / 17;16507;2022-10-25 20:49:18:604
-2.2516;1.4222;7.7593;-2.8609;2.8564;8.9346;-1.3004;-0.935;0.3565;-0.118;0.0067;0.5152;1.0;-1.18;-5.59;-46.8;61.11;-16.71;14.98;5.0;976.79;39.268;35.95824;-83.92453;795.59;NaN;;0.0;19.147997;;5 / 17;17007;2022-10-25 20:49:19:104
-4.6038;1.433;11.4257;-4.2779;1.7679;8.6455;1.4315;0.8205;0.1709;-0.781;0.7109;0.7642;1.0;11.08;-10.46;-38.78;54.75;-18.65;22.55;5.0;976.8;37.451;35.95824;-83.92453;795.59;NaN;;0.0;19.147997;;7 / 17;17507;2022-10-25 20:49:19:604
-9.3084;-0.079;10.6418;-6.869;0.9846;6.9295;-0.4424;-1.7216;0.6895;-0.8224;0.2094;0.117;2.0;22.07;-9.37;-26.31;210.26;-11.19;38.05;5.0;976.81;42.607;35.95824;-83.92453;795.59;NaN;;0.0;19.147997;;7 / 17;18008;2022-10-25 20:49:20:105
-7.1501;1.4498;4.0316;-8.0705;1.3896;5.395;-1.6502;0.0073;-0.2806;0.2147;1.8423;-0.7095;1.0;32.81;-3.11;-12.09;287.77;-10.75;52.89;5.0;976.83;43.835;35.95824;-83.92453;795.59;NaN;;0.0;19.147997;;8 / 17;18508;2022-10-25 20:49:20:605
-7.1536;-0.7301;6.0009;-8.3419;-0.52;5.1296;2.6506;0.6541;0.3651;-1.289;-0.5112;0.7472;1.0;30.71;-0.32;-11.72;269.18;0.18;56.81;5.0;976.89;46.47;35.95824;-83.92453;795.59;NaN;;0.0;19.147997;;8 / 17;19007;2022-10-25 20:49:21:104
-11.1948;-3.8127;5.7852;-7.4525;-0.6529;6.3407;0.474;0.4252;0.7109;0.9462;-0.5076;-0.8143;2.0;24.98;9.47;-17.03;349.09;0.92;52.67;5.0;976.89;50.71;35.95824;-83.92453;795.59;NaN;;0.0;19.147997;;9 / 17;19507;2022-10-25 20:49:21:604
-4.1668;-0.5638;13.1988;-6.2093;-1.8056;7.3726;-2.2379;-0.202;-5.205;-0.5985;-3.7945;0.5793;2.0;19.99;12.39;-21.0;31.11;6.18;54.23;5.0;976.94;45.654;35.95824;-83.92453;795.59;NaN;;0.0;19.147997;;9 / 17;20007;2022-10-25 20:49:22:104
-2.6838;0.7277;9.3084;-3.581;0.357;9.1224;-4.994;-0.8612;1.4325;-0.3428;0.0955;0.7539;2.0;6.15;13.86;-26.72;15.94;-2.09;21.43;5.0;976.96;46.949;35.95824;-83.92453;795.59;NaN;;0.0;19.147997;;9 / 17;20507;2022-10-25 20:49:22:604
1.1779;-0.6523;6.8172;-3.5504;-1.9741;8.9257;0.0549;1.6017;-2.766;0.2587;0.2368;-0.0498;3.0;4.09;19.95;-25.69;12.46;12.3;15.49;5.0;976.94;51.363;35.95824;-83.92453;795.59;NaN;;0.0;19.147997;;9 / 17;21007;2022-10-25 20:49:23:104
-6.6999;-0.6392;7.0038;-4.2409;-2.058;8.5994;3.1532;0.9794;-0.3148;0.2834;0.4271;0.9788;11.0;-8.85;34.59;-24.38;31.46;12.11;26.25;5.0;977.04;50.804;35.95824;-83.92453;795.59;NaN;;0.0;19.147997;;9 / 17;21507;2022-10-25 20:49:23:604
-8.444;0.3437;8.6127;-3.7474;1.9549;8.8491;-0.2504;-1.416;-2.0389;1.8979;-1.0497;-0.8699;13.0;-10.01;32.93;-26.66;32.55;-4.83;29.48;5.0;977.02;53.916;35.95824;-83.92453;795.59;NaN;;0.0;19.147997;;9 / 17;22009;2022-10-25 20:49:24:106
-7.9448;1.9271;7.989;-5.7336;2.9782;7.3774;-0.6742;-2.7997;-0.1652;-0.1869;1.8985;1.7322;12.0;4.37;18.84;-33.66;33.25;-17.68;37.85;5.0;977.02;46.876;35.95824;-83.92453;795.59;NaN;;0.0;19.147997;;9 / 17;22508;2022-10-25 20:49:24:605
-9.4663;2.1153;6.6975;-4.3389;2.409;8.4582;1.1649;1.1872;-0.4732;-1.232;1.4334;1.0072;8.0;27.53;12.75;-26.91;325.07;-14.64;23.18;5.0;977.03;44.19;35.95824;-83.92453;795.59;NaN;;0.0;19.147997;;9 / 17;23007;2022-10-25 20:49:25:104
-3.705;0.577;6.0846;-6.0521;1.6838;7.5304;1.9338;-1.1995;-1.4299;-0.3433;0.1879;0.9912;7.0;35.06;4.09;-23.17;307.19;-9.15;37.86;5.0;977.02;37.024;35.95824;-83.92453;795.59;NaN;;0.0;19.147997;;7 / 17;23508;2022-10-25 20:49:25:605
-4.9546;1.8864;4.8206;-6.3307;-0.0099;7.4895;0.6848;2.1331;1.6302;-0.0105;0.7807;-0.7155;7.0;35.44;3.11;-22.82;290.25;-1.34;41.88;5.0;977.02;43.335;35.95824;-83.92453;795.59;NaN;;0.0;19.147997;;7 / 17;24008;2022-10-25 20:49:26:105
-16.043;-6.3347;6.9559;-7.7081;-0.937;5.9898;0.7084;0.6135;-0.9903;-1.3739;0.8942;0.0448;4.0;31.88;7.22;-24.99;296.48;2.83;37.55;5.0;977.08;43.052;35.95824;-83.92453;795.59;NaN;;0.0;19.147997;;6 / 17;24507;2022-10-25 20:49:26:604
-13.7396;-3.7253;8.9408;-7.6609;-0.5186;6.1002;3.4901;2.2518;-1.1787;0.3038;-1.5669;-0.477;1.0;30.56;0.68;-24.34;97.38;1.87;55.36;5.0;977.08;52.298;35.95824;-83.92453;795.59;NaN;;0.0;19.147997;;6 / 17;25009;2022-10-25 20:49:27:106
-6.1875;-0.352;7.946;-3.2123;1.434;9.154;-0.5693;-1.0397;-0.183;0.182;-0.8055;0.9371;0.0;27.02;-19.78;-29.66;217.95;-3.97;22.44;5.0;977.07;41.869;35.95824;-83.92453;795.59;NaN;;0.0;19.147997;;5 / 15;25508;2022-10-25 20:49:27:605
-6.81;-0.8477;9.0221;-5.1017;0.3879;8.3662;2.2526;0.448;1.0051;0.7623;0.553;-1.1557;0.0;17.64;-23.31;-36.41;176.5;-2.31;28.42;5.0;977.12;43.309;35.95824;-83.92453;795.59;NaN;;0.0;19.147997;;5 / 15;26007;2022-10-25 20:49:28:104
-6.1995;0.8907;8.4284;-6.552;0.8156;7.2509;1.568;0.3388;-1.0057;-0.4786;0.1979;0.5336;0.0;32.96;-17.79;-28.46;201.68;-4.77;42.1;5.0;977.1;37.365;35.958244;-83.92452;799.21;NaN;;0.0;31.133059;;3 / 17;26508;2022-10-25 20:49:28:605
-7.1501;1.6651;5.904;-6.5268;2.4796;6.8864;0.6486;-0.1624;-2.2897;0.3901;-0.5521;0.271;0.0;38.42;-18.51;-17.51;222.12;-8.11;48.27;5.0;977.14;43.252;35.958244;-83.92452;799.21;NaN;;0.0;31.133059;;3 / 17;27007;2022-10-25 20:49:29:104
-1.884;1.433;8.0321;-4.3252;1.1553;8.7251;-1.5023;-0.2171;-5.5193;-0.7875;-0.4484;0.7753;0.0;36.24;-21.21;-4.95;238.45;-6.77;26.37;5.0;977.15;44.537;35.958244;-83.92452;799.21;NaN;;0.0;31.133059;;3 / 17;27508;2022-10-25 20:49:29:605
-5.595;1.252;6.4328;-6.5627;2.6147;6.8018;-1.9215;-4.2333;2.9711;0.1125;1.5818;0.9299;0.0;26.36;-22.33;-14.44;219.3;-9.36;32.67;5.0;977.18;50.12;35.958244;-83.92452;799.21;NaN;;0.0;31.133059;;3 / 17;28008;2022-10-25 20:49:30:105
-4.3908;3.1196;4.2592;-7.1416;0.867;6.6645;-0.0379;-0.4599;2.0103;0.5175;-0.7502;-0.4831;0.0;26.4;-21.69;-11.85;204.68;-5.07;46.98;5.0;977.18;46.265;35.958244;-83.92452;799.21;NaN;;0.0;31.133059;;2 / 17;28507;2022-10-25 20:49:30:604
-4.8446;0.9805;7.028;-6.3137;1.2976;7.3908;1.3175;-1.0812;0.233;-0.0938;0.2709;0.6648;0.0;28.63;-19.63;-15.06;218.32;-6.83;39.43;5.0;977.19;48.961;35.958244;-83.92452;799.21;NaN;;0.0;31.133059;;2 / 17;29007;2022-10-25 20:49:31:104
-5.1963;-2.5463;9.2689;-2.1803;1.9673;9.3566;-2.0234;-4.419;-1.9975;1.9986;-0.708;-0.3644;1.0;20.18;-18.37;-28.88;214.06;-6.51;18.97;5.0;977.23;48.021;35.958244;-83.92452;799.21;NaN;;0.0;31.133059;;4 / 16;29507;2022-10-25 20:49:31:604
-3.0667;2.8107;10.7291;-2.3742;2.2079;9.2552;-1.2236;1.6162;0.4107;-0.7217;0.5595;0.0379;3.0;-1.82;-21.73;-38.78;148.82;-15.12;7.07;5.0;977.28;41.493;35.958244;-83.92452;799.21;NaN;;0.0;31.133059;;4 / 16;30007;2022-10-25 20:49:32:104
-8.074;-3.9598;6.8985;-2.9007;0.8471;9.3295;1.467;0.694;-2.7337;0.869;-0.169;1.1371;7.0;-5.01;-8.1;-53.87;116.68;2.43;16.53;5.0;977.3;45.824;35.958244;-83.92452;799.21;NaN;;0.0;31.133059;;4 / 17;30507;2022-10-25 20:49:32:604
-0.0156;-2.3378;11.2702;-3.7406;-1.6477;8.9142;2.4815;0.0279;0.0562;-1.6245;-0.3554;1.0864;15.0;2.81;3.56;-56.4;90.93;4.7;23.6;5.0;977.29;41.589;35.958244;-83.92452;799.21;NaN;;0.0;31.133059;;4 / 17;31008;2022-10-25 20:49:33:105
-7.1022;-2.7365;7.7079;-2.8118;-0.1615;9.3935;-1.8828;0.0091;-4.7353;0.5611;-0.045;0.6153;9.0;-15.04;7.44;-55.01;79.83;1.87;16.71;5.0;977.29;44.26;35.958244;-83.92452;799.21;NaN;;0.0;31.133059;;7 / 17;31507;2022-10-25 20:49:33:604
-5.0157;-1.4701;9.5883;-4.0896;-1.6923;8.7511;1.1225;1.2111;0.2211;-0.1848;-0.323;-0.1119;7.0;-15.52;-1.46;-62.79;100.13;8.38;28.76;5.0;977.27;41.684;35.958244;-83.92452;799.21;NaN;;0.0;31.133059;;7 / 17;32008;2022-10-25 20:49:34:105
-6.2629;-1.6125;8.0584;-3.7069;0.2844;9.0746;-1.2016;-0.845;-2.3639;-1.0793;0.3402;1.3291;1.0;-6.15;2.64;-57.04;80.65;-1.66;22.22;5.0;977.27;40.796;35.958244;-83.92452;799.21;NaN;;0.0;31.133059;;9 / 17;32507;2022-10-25 20:49:34:604
-3.609;0.3185;12.4086;-2.3055;1.3587;9.4345;-0.5661;-0.8111;2.1001;0.1942;-0.7804;0.2033;0.0;1.88;0.02;-56.55;94.69;1.9;24.0;5.0;977.3;38.821;35.958244;-83.92452;799.21;NaN;;0.0;31.133059;;9 / 17;33007;2022-10-25 20:49:35:104
-3.3254;3.0308;7.0723;-2.6223;3.3343;8.8417;0.5434;-0.7219;-1.5728;0.3245;0.7216;0.3067;0.0;-8.66;-18.97;-57.45;90.36;-19.88;16.52;5.0;977.27;38.863;35.958244;-83.92452;799.21;NaN;;0.0;31.133059;;9 / 17;33508;2022-10-25 20:49:35:605
-3.3111;3.9538;7.5604;-3.5909;3.1354;8.57;1.2198;0.6754;-1.1815;0.3882;-0.4921;-0.255;0.0;-4.73;-28.13;-53.64;117.43;-16.42;23.08;5.0;977.31;43.589;35.958244;-83.92452;799.21;NaN;;0.0;31.133059;;9 / 17;34009;2022-10-25 20:49:36:106
-3.1998;3.5204;6.6473;-5.2559;3.2263;7.6248;1.1984;0.032;2.9827;-0.7812;1.2609;0.244;0.0;2.01;-28.05;-45.21;120.15;-19.21;34.58;5.0;977.32;45.039;35.958244;-83.92452;799.21;NaN;;0.0;31.133059;;9 / 17;34507;2022-10-25 20:49:36:604
-8.237;0.5231;8.4942;-6.4612;2.8181;6.8177;0.7874;-1.0207;-1.4266;-0.0869;0.5049;0.017;0.0;10.67;-20.33;-41.34;113.23;-16.51;42.86;5.0;977.36;41.725;35.958244;-83.92452;799.21;NaN;;0.0;31.133059;;9 / 17;35007;2022-10-25 20:49:37:104
-9.7893;2.6898;5.9351;-7.6822;0.3245;6.0868;-1.4971;-0.1137;5.7327;-1.4892;0.5582;-0.8004;0.0;14.87;-6.0;-36.28;94.25;-7.67;48.5;5.0;977.36;48.355;35.958244;-83.92452;799.21;NaN;;0.0;31.133059;;8 / 17;35508;2022-10-25 20:49:37:605
-9.9488;2.0889;4.1441;-7.4623;3.0368;5.5913;-1.4836;-3.7224;0.3123;-0.2627;0.8756;0.3466;0.0;18.09;5.51;-35.18;58.88;-11.0;58.42;5.0;977.4;45.258;35.958244;-83.92452;799.21;NaN;;0.0;31.133059;;8 / 17;36008;2022-10-25 20:49:38:105
-14.0892;-1.0774;7.4324;-7.1729;2.239;6.3013;0.4294;-0.9427;-0.1765;0.776;-0.1421;-0.3862;1.0;19.44;4.8;-41.36;49.09;-13.47;46.79;5.0;977.44;48.142;35.958244;-83.92452;799.21;NaN;;0.0;31.133059;;7 / 17;36507;2022-10-25 20:49:38:604
-3.7732;2.6815;4.3705;-6.8912;0.1544;6.9755;-1.5314;0.6035;-1.178;0.9767;-0.7805;-0.2361;2.0;14.49;8.48;-46.56;61.78;-9.19;49.88;5.0;977.46;47.237;35.958244;-83.92452;799.21;NaN;;0.0;31.133059;;7 / 17;37008;2022-10-25 20:49:39:105
-7.296;-9.2435;6.8411;-5.4424;-2.7805;7.6694;-2.1914;0.1011;3.8685;-0.5293;0.2527;1.1192;6.0;1.29;16.37;-42.13;88.12;22.78;31.55;5.0;977.51;44.407;35.958244;-83.92452;799.21;NaN;;0.0;31.133059;;5 / 17;37507;2022-10-25 20:49:39:604
-8.0058;-5.3148;9.1502;-5.5772;-1.6847;7.8884;-4.2697;-4.0271;0.6167;-0.3906;0.2161;0.6862;11.0;-10.07;22.56;-28.82;57.66;19.51;34.02;5.0;977.49;50.47;35.958244;-83.92452;799.21;NaN;;0.0;31.133059;;5 / 17;38007;2022-10-25 20:49:40:104
-8.4093;-1.3358;5.461;-6.8916;-0.6199;6.9493;-1.5686;-1.9235;0.3982;0.6381;0.2205;0.2934;11.0;-4.71;32.16;-14.55;24.14;3.62;44.76;5.0;977.51;42.996;35.958244;-83.92452;799.21;NaN;;0.0;31.133059;;6 / 17;38508;2022-10-25 20:49:40:605
-2.5798;0.9781;9.4866;-2.6157;2.4866;9.1184;0.0995;-0.4014;-1.669;0.9273;-1.6353;0.0638;9.0;12.54;38.01;1.46;344.78;-0.51;41.82;5.0;977.53;37.853;35.958244;-83.92452;799.21;NaN;;0.0;31.133059;;6 / 17;39009;2022-10-25 20:49:41:106
-2.2385;3.0535;7.0122;-2.8725;3.0835;8.855;1.0317;-0.7786;-0.9023;0.3906;0.5027;0.7581;9.0;32.19;29.7;-3.22;317.74;-18.33;17.97;5.0;977.48;33.91;35.958244;-83.92452;799.21;NaN;;0.0;31.133059;;6 / 17;39508;2022-10-25 20:49:41:605
-2.8167;2.7556;7.4324;-4.3237;3.8138;7.9329;1.9257;-0.3972;-2.6068;0.448;0.1413;-0.1226;7.0;36.84;19.41;6.13;302.0;-22.3;28.03;5.0;977.51;38.737;35.958244;-83.92452;799.21;NaN;;0.0;31.133059;;6 / 17;40007;2022-10-25 20:49:42:104
-3.0873;4.3083;6.3574;-4.3814;3.4064;8.0852;-2.1453;-0.9326;0.4146;-0.6386;-0.4529;0.9318;7.0;32.42;6.41;16.86;278.99;-20.33;28.45;5.0;977.54;42.664;35.958244;-83.92452;799.21;NaN;;0.0;31.133059;;5 / 17;40507;2022-10-25 20:49:42:604
-3.7409;3.5504;9.7092;-5.5603;-0.4753;8.064;-2.2817;-1.5051;2.1731;-0.44;1.0603;-0.0501;5.0;21.84;-4.76;17.55;258.7;-12.55;32.27;5.0;977.59;39.615;35.958244;-83.92452;799.21;NaN;;0.0;31.133059;;5 / 17;41007;2022-10-25 20:49:43:104
-2.8047;0.6763;6.4196;-3.7154;1.3342;8.977;-2.0926;-2.0038;-3.1828;0.4072;-0.8634;1.0294;0.0;7.46;-14.46;10.22;217.48;-3.63;29.03;5.0;977.56;47.376;35.958244;-83.92452;799.21;NaN;;0.0;31.133059;;5 / 17;41507;2022-10-25 20:49:43:604
-1.8625;-1.8051;9.7798;-1.1118;-0.4938;9.7309;1.8516;-2.7381;5.0362;-0.1441;-0.0837;0.9586;1.0;3.54;-18.71;7.11;194.5;-3.22;8.57;5.0;977.62;39.584;35.958244;-83.92452;799.21;NaN;;0.0;31.133059;;5 / 17;42007;2022-10-25 20:49:44:104
-1.5335;-2.9303;13.9756;-1.4096;-0.6077;9.6858;1.2628;-1.2978;0.7261;-0.4688;-0.0344;-0.4197;2.0;-12.96;-14.27;-4.82;136.33;3.04;7.05;5.0;977.57;37.772;35.958244;-83.92452;799.21;NaN;;0.0;31.133059;;5 / 17;42507;2022-10-25 20:49:44:604
-2.8334;2.406;5.2226;-3.1069;1.2731;9.2139;-0.6341;-1.9562;0.0034;-0.2062;0.8043;0.7185;2.0;-16.31;-11.92;-10.01;125.44;2.28;8.26;5.0;977.55;37.843;35.958244;-83.92452;799.21;NaN;;0.0;31.133059;;5 / 17;43007;2022-10-25 20:49:45:104
-4.1465;1.6077;9.5608;-3.5745;2.6655;8.7343;0.409;-0.4559;-1.9483;0.6012;-0.447;-0.5511;0.0;-9.13;-9.0;-15.32;113.66;-14.21;23.12;5.0;977.6;42.837;35.958244;-83.92452;799.21;NaN;;0.0;31.133059;;7 / 17;43508;2022-10-25 20:49:45:605
-4.0484;2.4981;7.4803;-3.8119;2.3665;8.7201;0.1574;0.4029;-1.494;-0.4089;0.2843;0.5263;0.0;-1.5;-6.92;-13.99;119.31;-15.94;19.96;5.0;977.61;43.466;35.958244;-83.92452;799.21;NaN;;0.0;31.133059;;7 / 17;44008;2022-10-25 20:49:46:105
-6.3323;-0.189;6.4893;-5.2162;2.1503;8.0211;3.7727;-1.5862;-1.8245;-0.7365;-0.5055;0.3001;0.0;11.4;-2.85;-7.52;268.33;-12.67;33.04;5.0;977.67;43.08;35.958244;-83.92452;799.21;NaN;;0.0;31.133059;;5 / 17;44508;2022-10-25 20:49:46:605
-4.2497;1.7465;7.0663;-5.6184;1.2933;7.9329;1.3178;0.1227;-1.0785;0.1781;0.6149;-0.6642;0.0;10.52;-5.76;-6.07;237.47;-10.73;32.6;5.0;977.64;45.404;35.958244;-83.92452;799.21;NaN;;0.0;31.133059;;5 / 17;45008;2022-10-25 20:49:47:105
-7.2338;0.7074;15.7723;-6.7562;0.9249;7.0476;-0.3835;-0.9272;-3.6111;0.1438;-0.2927;-0.7317;0.0;9.15;-6.38;-16.31;133.2;-5.41;43.79;5.0;977.67;49.519;35.958244;-83.92452;799.21;NaN;;0.0;31.133059;;3 / 17;45508;2022-10-25 20:49:47:605
-2.5834;1.1408;6.221;-5.837;1.1043;7.8026;-0.3486;-1.5427;-1.7311;-1.4877;-0.7593;3.1204;1.0;10.82;-7.84;-18.21;150.93;-4.33;41.15;5.0;977.71;48.418;35.958244;-83.92452;799.21;NaN;;0.0;31.133059;;3 / 17;46008;2022-10-25 20:49:48:105
-6.6616;0.2536;12.5713;-5.3321;-0.3869;8.2213;1.8502;3.4355;-2.188;0.4962;-0.1489;-0.4198;5.0;4.93;-2.87;-24.64;112.68;2.26;32.97;5.0;977.77;43.669;35.958244;-83.92452;799.21;NaN;;0.0;31.133059;;4 / 17;46508;2022-10-25 20:49:48:605
-12.0724;-0.4561;8.8905;-5.8233;1.7624;7.6912;-0.6091;-1.0962;-3.0647;-2.3325;0.7848;1.1503;11.0;-8.72;-4.29;-38.98;87.13;-10.19;28.85;5.0;977.78;48.902;35.958244;-83.92452;799.21;NaN;;0.0;31.133059;;4 / 17;47007;2022-10-25 20:49:49:104
-6.6293;0.1364;11.4317;-4.4052;0.6359;8.7385;-0.4117;-0.0281;0.6572;0.0595;-0.5773;0.0095;16.0;-22.28;-3.26;-55.39;90.32;-4.36;30.98;5.0;977.77;44.831;35.958244;-83.92452;799.21;NaN;;0.0;31.133059;;5 / 16;47508;2022-10-25 20:49:49:605
-3.8629;-1.2724;8.8271;-2.3534;1.1423;9.4513;-1.5765;-1.0083;-5.0842;-1.6307;0.1458;0.9049;16.0;-28.57;-3.77;-52.56;84.13;-16.11;28.56;5.0;977.76;39.325;35.958244;-83.92452;799.21;NaN;;0.0;31.133059;;5 / 16;48008;2022-10-25 20:49:50:105
-4.4674;-4.4698;10.7602;-2.734;-3.1832;8.8636;1.3715;0.7102;-1.1829;-0.2446;-0.6451;0.3507;9.0;-13.58;20.74;-30.19;60.46;17.21;18.81;5.0;977.78;36.576;35.958244;-83.92452;799.21;NaN;;0.0;31.133059;;5 / 17;48508;2022-10-25 20:49:50:605
-2.7891;-3.1292;7.7773;-2.2616;-1.2296;9.4628;-1.9381;-0.8674;-2.5335;0.0373;-0.6042;1.5527;4.0;7.99;32.12;-19.18;353.93;10.18;14.56;5.0;977.78;39.414;35.958244;-83.92452;799.21;NaN;;0.0;31.133059;;5 / 17;49008;2022-10-25 20:49:51:105
-1.5598;-0.3197;8.7769;-2.8203;-0.6735;9.3682;0.4523;-0.1716;-0.195;0.6439;-0.0475;0.0457;1.0;35.59;19.33;-16.46;294.36;11.24;15.62;5.0;977.77;36.917;35.958244;-83.92452;799.21;NaN;;0.0;31.133059;;4 / 17;49508;2022-10-25 20:49:51:605
-2.5738;0.51;7.6325;-3.6595;0.5064;9.0842;0.3092;0.1118;-1.6254;-0.4122;0.0998;0.4351;1.0;40.14;6.54;-16.48;287.92;-6.1;21.68;5.0;977.76;37.743;35.958244;-83.92452;799.21;NaN;;0.0;31.133059;;4 / 17;50007;2022-10-25 20:49:52:104
-6.8626;2.0435;9.1956;-5.3729;2.6752;7.7554;1.7781;-0.2766;1.3751;-0.3802;0.0974;-0.0554;1.0;35.85;-6.3;-9.47;274.3;-15.83;34.71;5.0;977.8;42.431;35.958244;-83.92452;799.21;NaN;;0.0;31.133059;;4 / 17;50507;2022-10-25 20:49:52:604
-6.8997;3.2118;7.7569;-6.5049;3.6926;6.342;-4.0712;-0.8081;0.2673;-0.3092;0.5374;-0.4582;0.0;29.61;-14.36;-2.1;254.11;-19.55;43.03;5.0;977.76;40.562;35.958244;-83.92452;799.21;NaN;;0.0;31.133059;;4 / 17;51007;2022-10-25 20:49:53:104
-7.5664;3.2919;4.6696;-6.2219;2.5633;7.1336;-2.5846;-0.2298;2.583;0.1735;0.31;-0.2563;1.0;23.68;-13.29;-5.08;243.31;-15.15;41.09;5.0;977.8;45.818;35.958244;-83.92452;799.21;NaN;;0.0;31.133059;;5 / 17;51507;2022-10-25 20:49:53:604
-3.9084;2.4634;9.0999;-5.7028;1.5826;7.8195;-1.7986;-1.3578;0.43;-0.3607;0.9584;-0.2356;1.0;23.74;-9.49;-14.31;259.85;-15.1;33.5;5.0;977.87;44.012;35.958244;-83.92452;799.21;NaN;;0.0;31.133059;;5 / 17;52007;2022-10-25 20:49:54:104
-5.9219;2.9554;7.3199;-5.5356;1.4996;7.9548;0.9162;-0.5703;1.3791;0.004;-0.5969;-0.7175;1.0;25.71;-2.7;-23.66;286.9;-8.8;34.83;5.0;977.87;44.75;35.958244;-83.92452;799.21;NaN;;0.0;31.133059;;4 / 17;52507;2022-10-25 20:49:54:604
-6.7992;1.7907;7.3989;-5.5682;1.6521;7.9017;-0.4262;-0.9736;1.2353;-0.1372;0.3809;0.1348;0.0;22.41;-0.15;-32.42;341.22;-14.06;29.79;5.0;977.91;44.804;35.958244;-83.92452;799.21;NaN;;0.0;31.133059;;4 / 17;53007;2022-10-25 20:49:55:104
-6.1493;1.4844;8.3626;-6.1435;1.3272;7.5277;1.7823;1.3576;-3.5736;-0.0605;0.0606;-0.0863;0.0;24.06;2.12;-36.41;30.07;-9.03;40.39;5.0;977.89;44.514;35.958244;-83.92452;799.21;NaN;;0.0;31.133059;;4 / 17;53507;2022-10-25 20:49:55:604
-3.9144;0.5112;10.2586;-6.3316;1.2488;7.3839;2.2551;0.1262;0.3041;-1.326;-2.0688;1.0155;3.0;21.54;4.16;-37.29;40.91;-5.74;40.27;5.0;977.95;46.672;35.958244;-83.92452;799.21;NaN;;0.0;31.133059;;4 / 17;54007;2022-10-25 20:49:56:104
-6.0021;0.7863;8.8558;-5.2037;1.0318;8.2479;0.6528;1.2473;-0.3136;0.4782;0.7565;-0.676;6.0;12.92;10.69;-39.56;30.8;-4.09;29.38;5.0;977.96;45.189;35.958244;-83.92452;799.21;NaN;;0.0;31.133059;;4 / 17;54508;2022-10-25 20:49:56:605
-9.5979;2.4766;6.8279;-5.2;2.1404;8.0342;-0.4901;-1.0042;-1.1843;-0.8037;0.6402;0.233;9.0;9.56;10.54;-40.86;38.66;-8.26;32.09;5.0;978.02;42.678;35.958244;-83.92452;799.21;NaN;;0.0;31.133059;;4 / 17;55007;2022-10-25 20:49:57:104
-5.3124;-2.1679;10.3316;-2.1254;0.0477;9.5734;-8.8975;-3.409;3.8436;0.0844;-0.8137;0.9863;11.0;10.48;13.11;-37.82;34.37;-3.4;30.12;5.0;978.01;47.799;35.958244;-83.92452;799.21;NaN;;0.0;31.133059;;4 / 17;55507;2022-10-25 20:49:57:604
-4.3585;1.1324;6.2928;-1.2303;2.2782;9.4587;0.5727;-2.783;3.42;-0.3207;0.4788;1.3882;14.0;12.88;15.19;-43.8;329.56;-8.94;0.34;5.0;978.0;41.011;35.958244;-83.92452;799.21;NaN;;0.0;31.133059;;4 / 17;56007;2022-10-25 20:49:58:104
-2.1296;-1.0175;8.2418;-1.063;-0.7214;9.7221;0.782;0.8385;0.4126;0.0302;-0.146;0.1497;9.0;24.26;-0.15;-48.34;258.77;4.22;6.24;5.0;977.97;36.78;35.958244;-83.92452;799.21;NaN;;0.0;31.133059;;3 / 17;56507;2022-10-25 20:49:58:604
-1.6065;-1.2604;8.0046;-2.2924;-0.2835;9.5307;0.1307;-2.0266;-0.8435;-0.2792;-0.009;0.735;7.0;18.69;0.02;-45.79;252.21;3.01;13.16;5.0;977.97;36.674;35.958244;-83.92452;799.21;NaN;;0.0;31.133059;;3 / 17;57008;2022-10-25 20:49:59:105
1.0056;0.5674;5.9913;-1.8207;-0.746;9.6072;-0.6476;-0.6117;4.5698;-0.4244;-2.8345;1.6995;8.0;13.95;-3.22;-43.84;220.65;4.36;10.73;5.0;978.0;38.534;35.958244;-83.92452;799.21;NaN;;0.0;31.133059;;2 / 17;57508;2022-10-25 20:49:59:605
-5.8283;2.4849;5.7135;-5.2106;1.6363;8.1451;0.3386;1.879;2.0627;-0.5089;-0.3603;-0.0471;6.0;13.73;-8.46;-38.31;96.13;-10.07;33.29;5.0;978.03;41.193;35.958244;-83.92452;799.21;NaN;;0.0;31.133059;;2 / 17;58007;2022-10-25 20:50:00:104
-5.5256;0.1125;10.6992;-4.5858;0.5948;8.648;0.7663;4.1511;-1.1181;-0.0135;-0.1166;0.2056;1.0;25.65;-12.66;-31.59;217.17;-3.48;27.94;5.0;978.08;44.548;35.958244;-83.92452;799.21;NaN;;0.0;31.133059;;2 / 16;58507;2022-10-25 20:50:00:604
-5.2214;1.7022;4.8314;-3.7107;1.952;8.8651;1.9001;-2.3418;-0.7541;-0.7353;0.3431;0.7343;0.0;25.39;-12.54;-35.51;246.03;-9.02;15.78;5.0;978.04;45.724;35.958244;-83.92452;799.21;NaN;;0.0;31.133059;;2 / 16;59007;2022-10-25 20:50:01:104
-1.6615;-0.3927;8.0704;-2.4731;-1.1443;9.4204;1.2439;0.6954;-1.631;-0.1048;0.0766;0.8085;1.0;14.48;-11.44;-45.13;188.17;5.6;14.57;5.0;978.08;38.436;35.958244;-83.92452;799.21;NaN;;0.0;31.133059;;1 / 17;59507;2022-10-25 20:50:01:604
-4.4004;-1.4617;7.5775;-2.39;-0.1479;9.5098;-1.1789;-1.8199;0.537;0.0501;-0.6015;0.1341;2.0;10.61;-4.31;-47.81;176.98;5.58;13.45;5.0;978.07;38.825;35.958244;-83.92452;799.21;NaN;;0.0;31.133059;;1 / 17;60008;2022-10-25 20:50:02:105
-1.3131;0.5614;10.4922;-2.3158;0.768;9.4983;1.1773;0.0451;1.2868;0.0833;-0.2692;0.3478;1.0;18.3;-9.15;-49.07;207.86;-1.88;15.94;5.0;978.06;38.405;35.958244;-83.92452;799.21;NaN;;0.0;31.133059;;1 / 17;60508;2022-10-25 20:50:02:605
-3.8569;1.1061;8.9013;-2.5091;1.3355;9.3857;-0.8206;0.6587;-2.6419;0.0234;0.0695;-0.2485;1.0;23.46;-17.18;-44.77;226.28;-7.17;14.26;5.0;978.07;40.62;35.958244;-83.92452;799.21;NaN;;0.0;31.133059;;1 / 17;61007;2022-10-25 20:50:03:104
-0.9793;-0.0335;9.5285;-3.6237;1.1277;9.0425;0.4452;0.03;-2.2428;-1.4042;-0.3424;0.4084;0.0;30.17;-23.34;-35.79;213.32;-7.69;26.26;5.0;978.12;44.833;35.958244;-83.92452;799.21;NaN;;0.0;31.133059;;1 / 15;61509;2022-10-25 20:50:03:606
-1.4151;0.5518;10.2873;-5.0351;0.6117;8.3931;-1.9222;-1.3102;1.9901;-1.7754;-0.7115;0.8604;0.0;24.9;-14.42;-36.37;207.75;-3.99;27.04;5.0;978.12;48.42;35.958244;-83.92452;799.21;NaN;;0.0;31.133059;;1 / 15;62007;2022-10-25 20:50:04:104
-6.3766;1.136;6.0081;-6.389;0.8813;7.3875;-0.7668;1.0823;1.1593;0.5191;0.0367;-0.5726;0.0;28.09;-8.1;-35.06;156.47;-5.16;40.85;5.0;978.18;45.757;35.958244;-83.92452;799.21;NaN;;0.0;31.133059;;2 / 17;62507;2022-10-25 20:50:04:604
-8.2825;-2.8681;10.1246;-6.5524;-1.2114;7.1951;1.5138;0.4695;-1.4956;-0.1604;-0.0226;0.9493;0.0;28.05;4.56;-36.9;78.08;4.38;45.81;5.0;978.19;43.917;35.958244;-83.92452;799.21;NaN;;0.0;31.133059;;2 / 17;63007;2022-10-25 20:50:05:104
-6.603;-0.1663;11.3097;-6.9344;-0.2567;6.9295;0.7052;-0.8447;0.1197;-1.935;-0.7129;0.4099;3.0;24.43;9.64;-36.69;46.08;1.5;45.02;5.0;978.22;44.897;35.958244;-83.92452;799.21;NaN;;0.0;31.133059;;4 / 17;63508;2022-10-25 20:50:05:605
-6.2761;2.9566;6.7693;-6.5634;0.6476;7.2576;2.4854;0.7741;1.4617;-0.9918;-0.4775;-0.0192;4.0;19.48;-3.51;-35.57;81.07;-8.24;43.01;5.0;978.23;44.568;35.958244;-83.92452;799.21;NaN;;0.0;31.133059;;4 / 17;64009;2022-10-25 20:50:06:106
-7.5209;-1.0702;7.0208;-5.0834;0.1177;8.3854;0.5223;-1.491;0.8915;0.0197;0.3819;0.5217;10.0;-1.74;-11.55;-33.98;121.1;-0.69;31.22;5.0;978.24;44.283;35.958244;-83.92452;799.21;NaN;;0.0;31.133059;;4 / 16;64508;2022-10-25 20:50:06:605
-4.8817;0.5638;8.3686;-5.2682;-0.3993;8.2618;0.3685;1.5042;0.6979;0.6511;-0.7752;0.0468;15.0;-1.97;-10.95;-35.61;118.74;4.74;38.64;5.0;978.27;40.774;35.958244;-83.92452;799.21;NaN;;0.0;31.133059;;4 / 16;65007;2022-10-25 20:50:07:104
-1.8721;2.0183;8.8654;-2.1408;2.8517;9.1354;-1.104;-1.6634;-1.6038;0.1991;-0.4158;1.5362;14.0;-3.26;-9.79;-41.31;96.63;-12.05;19.71;5.0;978.26;40.734;35.958244;-83.92452;799.21;NaN;;0.0;31.133059;;3 / 17;65508;2022-10-25 20:50:07:605
-1.0044;3.7433;8.5098;-1.6258;2.9939;9.1959;-0.1897;-1.0164;-1.1979;-0.0176;-0.0218;0.5081;11.0;-12.17;-16.28;-42.86;101.78;-16.21;12.27;5.0;978.22;38.652;35.958244;-83.92452;799.21;NaN;;0.0;31.133059;;3 / 17;66007;2022-10-25 20:50:08:104
-3.4295;-0.6069;8.3112;-1.3466;0.2835;9.7096;-0.8672;-1.1316;-0.4;0.5643;0.2127;0.2564;10.0;-6.11;-4.69;-42.17;120.71;1.89;6.47;5.0;978.26;39.388;35.958244;-83.92452;799.21;NaN;;0.0;31.133059;;3 / 17;66507;2022-10-25 20:50:08:604
-3.0248;-1.8817;8.3387;-3.4398;-2.3363;8.8814;-2.0412;-1.0589;0.6909;-0.3935;-0.7885;0.5745;3.0;7.44;7.09;-36.94;109.23;14.58;21.8;5.0;978.24;34.953;35.958244;-83.92452;799.21;NaN;;0.0;31.133059;;3 / 17;67007;2022-10-25 20:50:09:104
-4.1608;-3.6269;8.9886;-2.7547;-2.3668;9.1094;0.2566;-0.8079;0.2925;0.2362;-0.0144;0.3948;1.0;16.13;10.46;-29.47;265.76;18.24;15.31;5.0;978.27;34.457;35.958244;-83.92452;799.21;NaN;;0.0;31.133059;;3 / 17;67507;2022-10-25 20:50:09:604
-3.6619;-1.349;10.0935;-5.2004;-0.8904;8.2664;1.9515;-0.6029;1.2628;-0.1815;0.9953;1.1906;1.0;14.33;4.82;-28.33;254.97;11.37;18.32;5.0;978.27;34.03;35.958244;-83.92452;799.21;NaN;;0.0;31.133059;;3 / 17;68008;2022-10-25 20:50:10:105
-5.2334;2.3306;3.7421;-5.9255;1.9125;7.5764;0.1125;-1.2483;1.5531;2.2194;-0.3168;0.1556;1.0;13.95;-4.56;-22.59;84.34;-11.25;38.03;5.0;978.26;41.07;35.958244;-83.92452;799.21;NaN;;0.0;31.133059;;3 / 17;68508;2022-10-25 20:50:10:605
-7.3068;1.3717;9.7582;-6.1941;2.0517;7.3208;1.9728;0.8191;-0.4619;-1.3239;-0.024;0.2697;1.0;9.75;-12.84;-19.11;137.26;-18.71;41.78;5.0;978.3;38.321;35.958244;-83.92452;799.21;NaN;;0.0;31.133059;;3 / 17;69007;2022-10-25 20:50:11:104
-6.6903;0.5973;4.9175;-5.7979;2.4087;7.5334;1.5953;0.0107;-1.2522;1.1621;0.3984;-0.2911;1.0;2.36;-6.86;-20.96;102.06;-14.22;37.58;5.0;978.35;38.868;35.958244;-83.92452;799.21;NaN;;0.0;31.133059;;2 / 17;69508;2022-10-25 20:50:11:605
-10.759;0.8883;9.9631;-6.5398;1.4049;7.1713;0.5495;-0.7693;-0.8314;-0.5672;0.2625;0.7751;1.0;-1.41;-3.52;-23.06;90.19;-13.58;42.32;5.0;978.38;42.169;35.958244;-83.92452;799.21;NaN;;0.0;31.133059;;2 / 17;70007;2022-10-25 20:50:12:104
-6.8279;0.6368;10.5676;-6.9341;1.2341;6.8239;1.7559;-0.9477;-0.1772;-1.332;-0.1233;-0.3073;1.0;-1.05;6.11;-23.96;65.86;-7.23;45.46;5.0;978.38;41.829;35.958244;-83.92452;799.21;NaN;;0.0;31.133059;;2 / 17;70507;2022-10-25 20:50:12:604
-6.0392;1.8063;8.511;-7.0425;-0.4559;6.8092;-2.4658;0.494;4.1958;0.5532;-0.4247;-0.1207;1.0;-0.3;12.54;-25.59;60.38;-3.51;48.31;5.0;978.39;45.763;35.958244;-83.92452;799.21;NaN;;0.0;31.133059;;2 / 17;71007;2022-10-25 20:50:13:104
1.2066;1.8661;10.7183;-1.3051;1.5177;9.6002;2.0655;1.0179;-0.5607;-1.218;-2.3417;1.2886;2.0;-6.77;11.68;-27.15;38.74;-9.66;12.84;5.0;978.41;43.54;35.958244;-83.92452;799.21;NaN;;0.0;31.133059;;3 / 17;71508;2022-10-25 20:50:13:605
-1.2951;2.0937;7.4001;-1.2989;0.8413;9.6838;2.695;-0.1055;2.6824;0.3857;0.1155;-0.4538;1.0;-21.32;13.5;-23.25;56.46;-2.36;3.71;5.0;978.39;46.448;35.958244;-83.92452;799.21;NaN;;0.0;31.133059;;3 / 17;72007;2022-10-25 20:50:14:104
-1.6089;1.8529;6.5133;-1.6791;0.5956;9.6435;0.5954;0.3915;0.1438;0.2503;0.7194;0.2038;3.0;-23.21;24.06;-25.5;46.99;-1.07;7.47;5.0;978.46;43.546;35.958244;-83.92452;799.21;NaN;;0.0;31.133059;;3 / 17;72507;2022-10-25 20:50:14:604
-7.3654;-1.3896;16.2978;-2.576;1.0454;9.4043;0.0907;2.0393;-1.4536;-0.906;0.5295;0.1931;10.0;-18.24;29.36;-24.28;38.63;-4.71;17.09;5.0;978.5;40.68;35.958244;-83.92452;799.21;NaN;;0.0;31.133059;;3 / 17;73007;2022-10-25 20:50:15:104
-5.1796;0.3592;9.8073;-2.6505;2.5111;9.1016;-0.1743;-3.8919;-0.3089;-1.0617;0.7219;1.5864;14.0;11.29;19.5;-23.21;344.59;-15.92;9.27;5.0;978.49;53.077;35.958244;-83.92452;799.21;NaN;;0.0;31.133059;;2 / 17;73507;2022-10-25 20:50:15:604
-3.1902;-0.4167;8.9384;-0.6649;1.3568;9.6896;-2.4919;-2.2609;0.7572;0.9243;-0.4813;0.1949;10.0;12.98;3.47;-29.44;300.72;-3.46;9.26;5.0;978.49;41.32;35.958244;-83.92452;799.21;NaN;;0.0;31.133059;;2 / 17;74007;2022-10-25 20:50:16:104
-0.6069;1.817;10.2323;0.1727;1.7978;9.6389;-1.3312;-0.2227;-1.1786;0.1888;0.3635;0.7034;12.0;12.58;-7.37;-30.49;263.99;-10.56;-1.03;5.0;978.49;35.362;35.958244;-83.92452;799.21;NaN;;0.0;31.133059;;2 / 17;74508;2022-10-25 20:50:16:605
-2.2253;-0.0574;10.6382;-1.9784;1.2192;9.5273;-0.6381;-0.1761;-1.6165;0.2014;0.3891;-0.0414;13.0;14.63;-3.32;-32.93;285.51;-9.02;9.85;5.0;978.47;37.951;35.958244;-83.92452;799.21;NaN;;0.0;31.133059;;2 / 17;75007;2022-10-25 20:50:17:104
-5.7529;0.2827;7.6062;-3.8473;0.2318;9.0175;0.2399;-1.0829;0.9114;-0.2683;0.0542;1.0873;3.0;25.46;12.23;-28.65;317.91;-1.35;23.11;5.0;978.51;37.668;35.958244;-83.92452;799.21;NaN;;0.0;31.133059;;3 / 17;75507;2022-10-25 20:50:17:604
-3.9826;1.197;9.3802;-4.0538;0.5169;8.9146;2.6485;0.1371;-0.4923;-0.2688;-0.1482;0.6567;0.0;38.01;9.02;-19.46;294.25;-4.15;26.72;5.0;978.44;32.027;35.958244;-83.92452;799.21;NaN;;0.0;31.133059;;3 / 17;76007;2022-10-25 20:50:18:104
-3.8545;0.3006;8.723;-3.4787;1.0906;9.1038;-1.6712;-1.2193;0.0491;-0.1438;-0.0841;0.211;1.0;44.51;1.33;-16.74;277.2;-6.38;20.91;5.0;978.45;33.168;35.958244;-83.92452;799.21;NaN;;0.0;31.133059;;2 / 17;76507;2022-10-25 20:50:18:604
-3.5838;2.126;7.6062;-3.8082;1.0778;8.9725;0.0635;0.3418;0.704;0.2484;0.2097;0.7271;0.0;47.21;0.06;-16.78;273.59;-4.0;22.16;5.0;978.49;32.245;35.958244;-83.92452;799.21;NaN;;0.0;31.133059;;2 / 17;77007;2022-10-25 20:50:19:104
-3.0655;2.1775;7.1297;-3.6813;1.6142;8.945;0.7368;0.6018;-1.4475;0.2107;-0.2417;-0.2022;0.0;50.48;-11.17;-9.13;261.65;-9.5;23.36;5.0;978.48;35.845;35.958244;-83.92452;799.21;NaN;;0.0;31.133059;;2 / 17;77507;2022-10-25 20:50:19:604
-5.3231;1.2317;6.3993;-4.279;1.6595;8.6664;2.421;-0.1972;-0.9604;-0.1358;0.1003;0.8821;1.0;50.81;-12.73;-7.48;256.83;-5.6;22.43;5.0;978.5;39.424;35.958244;-83.92452;799.21;NaN;;0.0;31.133059;;2 / 17;78009;2022-10-25 20:50:20:106
-5.7577;-1.2772;8.08;-3.3062;-0.6782;9.2076;1.7114;1.5086;-1.5946;0.4785;-0.297;-0.4807;0.0;43.09;-12.32;-8.89;248.12;7.97;19.57;5.0;978.54;40.237;35.958244;-83.92452;799.21;NaN;;0.0;31.133059;;2 / 17;78508;2022-10-25 20:50:20:605
-3.1651;0.4011;9.0449;-3.8351;-0.1756;9.0239;1.3397;-0.8981;2.3251;-0.0229;0.5912;0.1134;1.0;35.79;-6.88;-9.75;254.8;2.48;22.56;5.0;978.53;43.924;35.958492;-83.92433;753.23;NaN;;;354.8387;;2 / 17;79007;2022-10-25 20:50:21:104
-2.4754;1.1061;6.5324;-4.1514;1.8018;8.7;0.5968;-0.5401;-1.8559;1.143;0.188;-0.415;0.0;25.22;-4.95;-5.04;260.42;-5.77;26.06;5.0;978.57;43.477;35.958492;-83.92433;753.23;NaN;;;354.8387;;3 / 17;79507;2022-10-25 20:50:21:604
-3.6488;-1.9594;10.5975;-3.2065;-0.5528;9.2511;1.4549;0.6717;-0.0695;-0.914;-0.3757;0.9038;0.0;24.6;-2.08;-4.09;266.58;-3.0;25.35;5.0;978.63;46.355;35.958492;-83.92433;753.23;NaN;;;354.8387;;3 / 17;80007;2022-10-25 20:50:22:104
-2.9363;-0.4968;12.2471;-4.1029;-0.4231;8.8971;-2.6549;-2.6894;2.3276;-0.4529;0.4522;-0.0249;0.0;32.63;10.09;-2.03;287.74;2.47;24.76;5.0;978.63;44.69;35.958492;-83.92433;753.23;NaN;;;354.8387;;2 / 17;80508;2022-10-25 20:50:22:605
-4.6205;1.7213;5.6812;-4.5533;1.7416;8.5091;-0.8324;0.1118;-3.0343;1.6626;-0.5207;-0.5151;1.0;39.08;17.29;17.51;291.7;-0.33;30.07;5.0;978.61;43.833;35.958492;-83.92433;753.23;NaN;;;354.8387;;2 / 17;81008;2022-10-25 20:50:23:105
-11.5373;5.164;6.7884;-5.9486;3.6686;6.8793;1.5689;-0.2507;1.2903;1.0458;3.0316;1.0081;1.0;39.39;27.94;39.71;293.49;-21.97;40.85;5.0;978.67;38.906;35.958492;-83.92433;753.23;NaN;;;354.8387;;1 / 17;81507;2022-10-25 20:50:23:604
-10.9878;4.7486;13.5206;-4.4709;4.4094;7.5325;-0.3376;1.6391;-1.5918;-0.3282;-0.1261;0.8487;1.0;17.72;0.77;29.55;256.85;-31.43;32.46;5.0;978.7;53.287;35.958492;-83.92433;753.23;NaN;;;354.8387;;1 / 17;82007;2022-10-25 20:50:24:104
-4.3502;-1.6268;11.4999;-2.6421;1.8452;9.262;-3.8031;0.1755;-6.5501;-2.1561;-0.0825;2.1561;5.0;3.96;1.86;-8.44;335.46;-10.85;15.92;5.0;978.73;46.76;35.958492;-83.92433;753.23;NaN;;;354.8387;;2 / 17;82507;2022-10-25 20:50:24:604
-7.3881;-0.5148;7.8634;-2.8393;0.8767;9.3456;-3.1744;-1.4822;2.9875;0.97;0.45;0.1768;7.0;13.39;11.04;-7.88;317.02;0.64;16.81;5.0;978.74;40.734;35.958492;-83.92433;753.23;NaN;;;354.8387;;2 / 17;83007;2022-10-25 20:50:25:104
-4.3131;1.5012;6.6006;-3.1004;1.3147;9.2103;-2.3514;-0.8904;0.3986;-1.5795;0.873;1.139;4.0;20.83;-4.97;-7.99;265.87;-14.27;19.88;5.0;978.76;38.457;35.958492;-83.92433;753.23;NaN;;;354.8387;;0 / 17;83508;2022-10-25 20:50:25:605
-3.3015;0.4825;12.3643;-2.8983;1.0292;9.3119;0.7991;0.9609;0.0935;-0.7089;0.5962;0.0414;6.0;8.55;-14.08;-14.96;199.29;-8.53;17.88;5.0;978.71;34.972;35.958492;-83.92433;753.23;NaN;;;354.8387;;0 / 17;84007;2022-10-25 20:50:26:104
-8.007;-2.6396;6.6628;-4.3972;1.0657;8.7005;-0.066;-0.178;-1.9142;-0.3925;0.7453;0.9312;8.0;-26.98;-24.43;-37.33;116.08;-11.09;20.35;5.0;978.74;36.99;35.958492;-83.92433;753.23;NaN;;;354.8387;;0 / 17;84507;2022-10-25 20:50:26:604
-4.4363;-1.9319;8.7864;-4.2787;-1.7427;8.6502;0.0385;1.3231;-1.454;-0.2594;-0.1492;-0.149;5.0;-39.79;-12.62;-53.38;107.48;11.94;26.82;5.0;978.7;30.816;35.958492;-83.92433;753.23;NaN;;;354.8387;;0 / 17;85007;2022-10-25 20:50:27:104
-3.7708;-1.8924;5.1616;-3.7033;-0.9971;9.0256;-0.9713;-1.7319;-0.7859;0.7139;0.9147;0.7517;2.0;-24.43;6.53;-52.13;85.91;5.84;22.31;5.0;978.71;32.528;35.958492;-83.92433;753.23;NaN;;;354.8387;;0 / 17;85507;2022-10-25 20:50:27:604
-3.1807;2.205;7.8024;-4.2895;1.7379;8.6458;0.3716;-0.3782;0.3932;0.8739;0.3409;0.1793;1.0;-14.04;3.09;-53.49;88.0;2.41;25.38;5.0;978.7;34.304;35.958492;-83.92433;753.23;NaN;;;354.8387;;0 / 17;86008;2022-10-25 20:50:28:105
-3.0129;1.8829;7.8718;-3.9066;2.2636;8.7055;0.6879;-0.8191;0.386;-0.0991;-0.0786;-0.084;1.0;-4.99;-9.6;-55.37;87.08;-13.35;24.17;5.0;978.69;39.729;35.958492;-83.92433;753.23;NaN;;;354.8387;;0 / 17;86507;2022-10-25 20:50:28:604
-3.3721;3.4762;3.0933;-4.8973;2.3422;8.1671;0.518;-0.2765;2.7922;0.0079;-0.6609;-0.6826;1.0;-0.17;-11.42;-56.44;95.92;-9.44;29.46;5.0;978.75;38.784;35.958492;-83.92433;753.23;NaN;;;354.8387;;0 / 17;87007;2022-10-25 20:50:29:104
-6.0009;2.5149;5.473;-5.2594;2.0669;8.0148;1.8342;0.1745;0.7991;0.709;0.3021;0.2847;0.0;14.96;-5.53;-53.49;72.52;-12.17;33.27;5.0;978.73;46.021;35.958492;-83.92433;753.23;NaN;;;354.8387;;0 / 17;87508;2022-10-25 20:50:29:605
-6.1385;2.1643;7.4539;-3.9542;2.8186;8.52;-1.1746;-0.0775;0.3991;0.5819;-0.138;-0.4176;0.0;18.17;0.13;-50.76;29.76;-10.59;25.44;5.0;978.8;44.495;35.958492;-83.92433;753.23;NaN;;;354.8387;;0 / 17;88008;2022-10-25 20:50:30:105
-2.7006;0.9996;15.4648;-1.2883;1.2178;9.6451;-0.842;0.0736;-4.0512;-0.7892;-0.3725;0.2674;2.0;15.73;3.66;-43.87;313.88;-7.13;7.61;5.0;978.82;42.763;35.958492;-83.92433;753.23;NaN;;;354.8387;;0 / 17;88507;2022-10-25 20:50:30:604
-1.7967;0.2536;12.3858;-1.5907;1.9698;9.4742;-1.4096;-0.3372;-1.5132;-0.8924;-0.1314;0.7181;2.0;6.64;5.61;-39.34;351.37;-18.11;6.22;5.0;978.8;45.866;35.958492;-83.92433;753.23;NaN;;;354.8387;;0 / 17;89007;2022-10-25 20:50:31:104
-4.4973;2.1045;7.2649;-2.6821;0.7835;9.4002;-0.8408;1.7481;-4.7171;1.1602;0.501;-0.4113;5.0;7.8;16.69;-28.65;356.83;-1.33;13.56;5.0;978.83;40.696;35.958492;-83.92433;753.23;NaN;;;354.8387;;0 / 17;89508;2022-10-25 20:50:31:605
-6.4546;1.0283;5.5866;-1.1035;1.0445;9.6882;0.9608;-1.8966;-0.0932;1.3368;1.8048;-0.5872;18.0;13.16;26.14;-25.39;343.07;-1.69;10.65;5.0;978.81;46.929;35.958492;-83.92433;753.23;NaN;;;354.8387;;0 / 17;90008;2022-10-25 20:50:32:105
-1.4354;1.4198;11.3288;-2.2872;0.8328;9.4998;0.9667;0.6468;-0.9872;-0.5796;-0.1584;1.2308;20.0;16.99;27.47;-27.26;344.76;-6.3;17.24;5.0;978.91;45.292;35.958492;-83.92433;753.23;NaN;;;354.8387;;0 / 17;90507;2022-10-25 20:50:32:604
-2.9028;1.4533;8.5385;-1.9678;2.6579;9.2322;0.036;-1.2508;-3.0044;-0.1645;0.4753;0.8446;13.0;24.41;24.54;-28.61;331.45;-13.74;11.88;5.0;978.86;40.225;35.958492;-83.92433;753.23;NaN;;;354.8387;;0 / 17;91007;2022-10-25 20:50:33:104
-2.4239;2.7855;8.9671;-3.1051;1.8595;9.1143;1.2361;0.2563;-0.8563;-0.2836;-0.173;0.3015;7.0;45.15;13.95;-27.17;303.95;-12.55;19.55;5.0;978.86;43.293;35.958492;-83.92433;753.23;NaN;;;354.8387;;0 / 17;91507;2022-10-25 20:50:33:604
-2.6743;2.2014;6.8136;-2.4753;2.6837;9.1017;0.2631;-1.047;-1.3028;0.037;-0.0764;0.5443;15.0;51.56;1.86;-22.76;282.15;-12.93;13.71;5.0;978.86;40.118;35.958492;-83.92433;753.23;NaN;;;354.8387;;0 / 17;92007;2022-10-25 20:50:34:104
-5.1497;0.0957;10.1521;-4.3115;1.675;8.6473;-0.7877;-1.8133;5.1696;0.0564;-0.5275;1.1185;19.0;46.24;-12.41;-20.55;260.87;-9.83;26.5;5.0;978.86;37.227;35.958492;-83.92433;753.23;NaN;;;354.8387;;0 / 17;92507;2022-10-25 20:50:34:604
-0.4705;0.1819;9.7546;-0.3085;0.974;9.7533;-0.9769;-0.2113;0.3273;-1.088;-3.1943;0.8626;6.0;41.64;-24.82;-17.68;239.89;-9.14;18.17;5.0;978.88;33.632;35.958492;-83.92433;753.23;NaN;;;354.8387;;0 / 17;93007;2022-10-25 20:50:35:104
-2.2026;1.0989;6.7023;-0.6075;0.8375;9.7519;-0.1936;-0.4316;1.0913;0.9014;0.0764;0.267;1.0;27.47;-38.19;-28.95;215.5;-4.9;3.56;5.0;978.84;31.24;35.958492;-83.92433;753.23;NaN;;;354.8387;;0 / 16;93507;2022-10-25 20:50:35:604
-1.0929;0.5853;7.8407;-1.4635;1.5963;9.5645;-1.8853;-0.7285;1.0176;-0.0865;0.4867;0.0383;1.0;20.89;-51.21;-24.26;200.45;-9.36;8.69;5.0;978.89;33.726;35.959682;-83.92297;;NaN;;;3225.8064;;0 / 16;94008;2022-10-25 20:50:36:105
0.577;1.3274;8.6498;-1.8008;1.274;9.5553;-0.466;-0.6847;0.728;0.1394;-0.2004;0.4804;1.0;16.61;-58.56;-21.9;192.87;-7.46;10.67;5.0;978.92;29.913;35.959682;-83.92297;;NaN;;;3225.8064;;0 / 17;94508;2022-10-25 20:50:36:605
-1.2257;1.5251;10.8476;-0.9653;2.0144;9.5489;-2.8049;0.7817;-0.7517;0.3418;-1.8684;-2.0198;1.0;20.91;-57.96;-13.14;199.21;-14.87;11.38;5.0;978.93;46.69;35.959682;-83.92297;;NaN;;;3225.8064;;0 / 17;95008;2022-10-25 20:50:37:105
-4.6493;1.0786;12.0159;-4.1134;1.8958;8.698;-1.4643;-0.5194;-0.6438;-0.185;0.6134;1.2033;0.0;30.34;-44.49;-11.7;209.97;-12.95;26.2;5.0;978.95;46.22;35.959682;-83.92297;;NaN;;;3225.8064;;0 / 17;95507;2022-10-25 20:50:37:604
-2.2265;1.3167;7.4827;-4.2154;2.7812;8.4063;-4.0331;-3.2312;1.6408;-0.8073;-0.2254;0.7015;0.0;18.73;-44.16;-13.37;198.81;-17.25;23.17;5.0;979.0;49.046;35.959682;-83.92297;;NaN;;;3225.8064;;0 / 17;96007;2022-10-25 20:50:38:104
-2.697;0.8055;8.1556;-5.1803;0.9592;8.2713;3.2797;0.8003;-4.6065;0.1559;-0.5586;-0.3878;0.0;5.27;-34.99;-31.14;159.79;-8.73;29.85;5.0;978.99;43.983;35.959682;-83.92297;;NaN;;;3225.8064;;0 / 17;96508;2022-10-25 20:50:38:605
0.7612;-2.819;15.5318;-3.1959;1.6924;9.1155;0.4077;-0.3481;-1.7904;-2.083;-0.0876;1.1324;0.0;9.17;-25.2;-36.58;167.73;-2.47;21.34;5.0;979.0;47.704;35.959682;-83.92297;;NaN;;;3225.8064;;0 / 17;97008;2022-10-25 20:50:39:105
-4.18;-0.443;8.3315;-2.7042;-3.2615;8.8442;-2.7692;0.516;0.2913;1.5717;-0.139;-0.3142;3.0;5.12;-2.81;-39.51;156.68;19.43;17.0;5.0;979.06;48.23;35.959682;-83.92297;;NaN;;;3225.8064;;0 / 16;97508;2022-10-25 20:50:39:605
-3.044;-2.1906;9.1286;-4.3395;-0.7681;8.7606;-1.5537;0.7055;0.5117;-0.0451;0.0185;0.5211;11.0;8.94;6.3;-40.57;112.98;12.47;22.3;5.0;979.1;40.213;35.959682;-83.92297;;NaN;;;3225.8064;;0 / 16;98007;2022-10-25 20:50:40:104
-3.7923;-4.2413;12.0087;-4.8233;-0.6712;8.5121;-3.4508;-1.027;-2.7988;-1.9056;-2.6769;2.5159;13.0;14.38;-4.18;-42.13;129.24;3.92;29.54;5.0;979.13;51.21;35.959682;-83.92297;;NaN;;;3225.8064;;0 / 17;98507;2022-10-25 20:50:40:604
-6.9129;-1.4079;9.6326;-3.1873;0.9432;9.2261;-4.0385;-3.44;8.4056;-0.3227;0.4122;0.4458;8.0;6.62;-11.83;-44.85;154.13;2.71;17.49;5.0;979.15;44.819;35.959682;-83.92297;;NaN;;;3225.8064;;0 / 17;99007;2022-10-25 20:50:41:104
-3.457;2.1117;12.0939;-4.4061;2.7158;8.3296;-1.3478;-1.2664;1.0927;-0.0937;-1.0315;1.1414;4.0;-8.91;-33.99;-39.98;132.05;-16.08;27.88;5.0;979.06;45.085;35.959682;-83.92297;;NaN;;;3225.8064;;0 / 17;99508;2022-10-25 20:50:41:605
-1.0164;1.847;7.3032;-0.6658;2.894;9.3462;-2.4771;-0.7927;2.3125;0.2822;0.4612;-0.0631;8.0;-25.74;-31.09;-39.47;125.71;-14.32;4.8;5.0;979.08;34.713;35.959682;-83.92297;;NaN;;;3225.8064;;0 / 17;100008;2022-10-25 20:50:42:105
-2.6695;1.6412;11.1601;-1.9436;2.2914;9.335;-0.3599;0.228;-0.5368;-0.7697;1.1698;1.4425;11.0;-52.5;-34.76;-33.54;116.07;-13.51;11.76;5.0;979.1;35.534;35.959682;-83.92297;;NaN;;;3225.8064;;0 / 16;100508;2022-10-25 20:50:42:605
-3.4164;2.0638;10.0469;-2.8547;2.2512;9.1079;1.019;0.0134;-0.1463;0.0407;0.1831;-0.1367;5.0;-58.24;-19.74;-45.6;100.68;-13.67;16.78;5.0;979.11;30.228;35.959682;-83.92297;;NaN;;;3225.8064;;0 / 16;101007;2022-10-25 20:50:43:104
-2.825;2.0746;9.149;-4.2762;1.2108;8.7418;1.0939;0.4496;-0.1602;-0.4902;0.6755;0.1519;2.0;-55.63;-13.88;-47.36;98.38;-8.97;21.54;5.0;979.07;30.16;35.959682;-83.92297;;NaN;;;3225.8064;;0 / 17;101508;2022-10-25 20:50:43:605
-4.2939;1.4103;6.8483;-4.0081;1.0801;8.8848;-1.9245;-1.2004;0.5898;0.0944;-0.1497;-0.2361;1.0;-51.56;-4.59;-52.97;92.31;-5.29;27.39;5.0;979.08;40.619;35.959682;-83.92297;;NaN;;;3225.8064;;0 / 17;102008;2022-10-25 20:50:44:105
0.7588;-0.7265;10.4181;-4.9269;0.17;8.4775;0.2457;-1.7021;0.7141;-0.7588;0.0425;0.868;1.0;-50.85;10.46;-51.69;81.63;-0.99;30.16;5.0;979.13;45.31;35.959682;-83.92297;;NaN;;;3225.8064;;0 / 17;102508;2022-10-25 20:50:44:605
-5.0862;0.3329;7.3786;-3.9715;1.3709;8.861;1.2192;0.6049;-3.1045;0.8249;0.0116;-0.6135;1.0;-37.84;20.14;-49.48;68.85;-4.14;27.62;5.0;979.13;51.448;35.959682;-83.92297;;NaN;;;3225.8064;;0 / 17;103007;2022-10-25 20:50:45:104
-5.0025;-1.8769;12.8779;-5.7019;-0.0545;7.9785;0.6816;-0.554;-2.9623;-0.9674;-0.5611;0.1498;1.0;-16.86;15.96;-36.23;65.43;0.32;35.55;5.0;979.22;46.477;35.959682;-83.92297;;NaN;;;3225.8064;;0 / 17;103508;2022-10-25 20:50:45:605
-2.8167;-1.4952;7.5676;-3.8775;-0.1501;9.0063;-0.1476;-0.7169;-0.1213;0.6662;0.4839;-1.0064;3.0;4.52;23.55;-27.94;19.48;5.34;25.51;5.0;979.2;45.454;35.959682;-83.92297;;NaN;;;3225.8064;;0 / 17;104007;2022-10-25 20:50:46:104
-10.1103;-5.4263;21.9263;-4.4897;-1.0147;8.6593;1.2832;0.5847;-2.0887;-1.3218;-0.3677;0.2663;4.0;4.52;40.24;-29.89;14.29;5.94;27.41;5.0;979.27;42.179;35.959682;-83.92297;;NaN;;;3225.8064;;0 / 16;104508;2022-10-25 20:50:46:605
-1.4474;1.3083;8.6689;-1.2364;2.9795;9.2609;-0.3626;-2.2147;4.4487;0.2295;0.0063;-0.0832;5.0;-8.1;33.68;-32.81;17.99;-16.22;9.67;5.0;979.25;43.776;35.959682;-83.92297;;NaN;;;3225.8064;;0 / 16;105008;2022-10-25 20:50:47:105
-1.7118;5.6118;8.6665;0.1923;4.5967;8.6605;-0.306;0.1818;-0.8047;0.2734;0.8636;-0.6225;2.0;-20.12;10.22;-30.69;39.32;-27.95;-1.27;5.0;979.24;40.997;35.959682;-83.92297;;NaN;;;3225.8064;;0 / 17;105507;2022-10-25 20:50:47:604
-2.7042;3.5767;6.8255;-3.0905;4.5261;8.1323;0.3398;0.2786;-1.4613;-0.7463;0.154;-0.4792;2.0;-18.09;-2.12;-24.39;73.54;-32.83;19.34;5.0;979.28;47.44;35.959682;-83.92297;;NaN;;;3225.8064;;0 / 17;106007;2022-10-25 20:50:48:104