sep=;
ACCELEROMETER X (m/s²);ACCELEROMETER Y (m/s²);ACCELEROMETER Z (m/s²);GRAVITY X (m/s²);GRAVITY Y (m/s²);GRAVITY Z (m/s²);LINEAR ACCELERATION X (m/s²);LINEAR ACCELERATION Y (m/s²);LINEAR ACCELERATION Z (m/s²);GYROSCOPE X (rad/s);GYROSCOPE Y (rad/s);GYROSCOPE Z (rad/s);LIGHT (lux);MAGNETIC FIELD X (μT);MAGNETIC FIELD Y (μT);MAGNETIC FIELD Z (μT);ORIENTATION Z (azimuth °);ORIENTATION X (pitch °);ORIENTATION Y (roll °);PROXIMITY (i);ATMOSPHERIC PRESSURE (hPa);SOUND LEVEL (dB);LOCATION Latitude : ;LOCATION Longitude : ;LOCATION Altitude ( m);LOCATION Altitude-google ( m);LOCATION Altitude-atmospheric pressure ( m);LOCATION Speed ( Kmh);LOCATION Accuracy ( m);LOCATION ORIENTATION (°);Satellites in range;Time since start in ms ;YYYY-MO-DD HH-MI-SS_SSS
-5.1927;2.8884;7.6457;-4.6595;3.0846;8.0588;-0.4818;-0.042;-0.3109;0.0325;-0.1809;-0.1247;8.0;27.11;-20.64;3.09;236.44;-18.33;30.04;5.0;989.54;49.998;35.95768;-83.92452;802.38;NaN;;;320.15787;;0 / 8;7;2022-10-26 21:27:10:109
-3.0981;3.827;7.3187;-3.7897;3.0384;8.5192;-0.3925;0.1209;-0.7347;-0.6492;0.5166;-0.0246;4.0;27.77;-19.07;-0.11;240.73;-18.51;27.06;5.0;989.55;18.943;35.95768;-83.92452;802.38;NaN;;;320.15787;;0 / 18;507;2022-10-26 21:27:10:609
-0.9709;0.7445;12.8025;-3.605;0.9388;9.0715;-0.8555;0.6282;3.1872;0.1692;0.6385;-1.1211;5.0;28.99;-20.81;-7.22;231.68;-5.49;21.67;5.0;989.56;40.575;35.95768;-83.92452;802.38;NaN;;;320.15787;;0 / 18;1007;2022-10-26 21:27:11:109
-6.8112;0.2838;8.8905;-3.9203;1.3932;8.8804;-2.3053;0.3676;-1.2048;0.2826;-2.7457;-1.6689;7.0;39.96;-19.56;-8.72;243.64;-8.17;23.82;5.0;989.51;41.426;35.95768;-83.92452;802.38;NaN;;;320.15787;;0 / 18;1508;2022-10-26 21:27:11:610
8.4093;-4.605;5.0791;7.419;-0.3946;6.401;2.4996;-5.2065;0.7202;-1.5964;-2.0169;-0.9928;6.0;28.09;-23.4;-37.37;243.49;2.31;-49.21;5.0;989.46;47.868;35.95768;-83.92452;802.38;NaN;;;320.15787;;0 / 18;2008;2022-10-26 21:27:12:110
9.4771;-2.7903;5.5089;9.1342;0.0055;3.5689;3.1263;0.0334;-0.4363;2.523;-1.3725;0.4363;5.0;-22.24;-6.82;-44.62;251.69;5.35;-65.65;5.0;989.48;52.426;35.95768;-83.92452;802.38;NaN;;;320.15787;;0 / 18;2506;2022-10-26 21:27:12:608
13.3579;-1.0977;4.1022;9.4434;-2.641;-0.1371;-3.6958;-3.297;-3.2659;-2.609;-0.6009;2.0552;3.0;-29.16;3.64;-34.78;272.99;4.05;-79.26;5.0;989.47;51.575;35.95768;-83.92452;802.38;NaN;;;320.15787;;0 / 18;3007;2022-10-26 21:27:13:109
11.4174;-4.7521;-0.4478;9.7898;-0.3433;0.4601;2.8052;-3.8569;-1.3618;0.6889;1.0417;-1.7081;2.0;-22.44;26.94;-13.05;323.04;18.06;-93.7;5.0;989.44;46.566;35.95768;-83.92452;802.38;NaN;;;320.15787;;0 / 18;3507;2022-10-26 21:27:13:609
16.3074;-3.7768;-0.1244;9.2687;-3.0042;-1.1119;-2.5443;-0.656;-0.4503;-1.4763;-0.6629;2.2079;3.0;-15.99;38.18;-36.19;310.91;17.84;-96.84;5.0;989.44;53.604;35.95768;-83.92452;802.38;NaN;;;320.15787;;0 / 18;4008;2022-10-26 21:27:14:110
13.3149;-4.9905;-0.9063;9.7555;0.1816;0.984;3.1757;-6.3306;0.5483;2.1044;0.2743;-1.8438;3.0;1.48;48.79;-29.12;329.44;-1.06;-84.24;5.0;989.35;57.143;35.95768;-83.92452;802.38;NaN;;;320.15787;;0 / 18;4507;2022-10-26 21:27:14:609
4.5188;4.0161;7.5942;1.6467;3.6903;8.9353;-1.1976;3.602;-8.6277;0.0263;2.7913;-1.0105;7.0;7.48;19.89;-49.78;322.03;-29.13;-27.45;5.0;989.34;55.837;35.95768;-83.92452;802.38;NaN;;;320.15787;;0 / 18;5007;2022-10-26 21:27:15:109
-0.3891;3.9335;6.7406;0.2902;3.7996;9.036;0.3881;-0.281;-2.1832;0.1481;-0.2141;-0.3505;19.0;41.33;8.4;-49.56;300.97;-21.92;-1.88;5.0;989.29;43.056;35.95768;-83.92452;802.38;NaN;;;320.15787;;0 / 18;5506;2022-10-26 21:27:15:608
-0.6392;4.6038;9.1884;0.6947;3.7857;9.0198;-1.3554;-0.0437;-4.0921;-0.0027;-0.161;-1.3434;17.0;25.01;-1.09;-47.49;301.23;-24.46;-4.99;5.0;989.3;42.244;35.95768;-83.92452;802.38;NaN;;;320.15787;;0 / 18;6007;2022-10-26 21:27:16:109
2.5172;3.4391;6.1397;0.9491;4.649;8.5823;1.1147;-1.9734;-0.604;0.4461;-0.9766;-1.0115;6.0;8.44;-9.45;-51.64;319.78;-28.3;-6.31;5.0;989.3;39.592;35.95768;-83.92452;802.38;NaN;;;320.15787;;0 / 18;6507;2022-10-26 21:27:16:609
-1.6639;1.3466;7.1548;-0.3798;1.1149;9.7357;-0.0747;0.0268;-2.6996;-0.4686;-4.0E-4;-1.352;18.0;5.81;-9.02;-49.72;228.86;-5.09;0.94;5.0;989.33;38.234;35.95768;-83.92452;802.38;NaN;;;320.15787;;0 / 18;7008;2022-10-26 21:27:17:110
-1.6783;2.2349;7.7019;-1.1491;1.7282;9.5845;1.4802;-1.7182;-0.9383;0.5935;0.0126;-0.526;16.0;6.75;2.91;-45.62;352.47;-10.15;6.84;5.0;989.31;43.995;35.95768;-83.92452;802.38;NaN;;;320.15787;;0 / 18;7508;2022-10-26 21:27:17:610
-1.1886;2.4514;10.1749;1.1634;1.6629;9.5943;0.9548;-2.6486;-1.3374;0.0622;-0.7397;-0.9876;4.0;-2.01;-1.18;-40.37;343.17;-11.59;-5.92;5.0;989.31;39.776;35.95768;-83.92452;802.38;NaN;;;320.15787;;0 / 18;8007;2022-10-26 21:27:18:109
7.4145;0.7792;6.446;4.9428;5.82;6.1536;1.03;-2.7467;1.95;2.8112;-1.6162;1.5379;3.0;-15.32;1.91;-36.28;359.2;-26.25;-23.01;5.0;989.31;45.656;35.95768;-83.92452;802.38;NaN;;;320.15787;;0 / 18;8507;2022-10-26 21:27:18:609
5.68;8.2777;13.3807;4.8986;4.1124;7.4338;-2.9048;1.8299;0.1732;-0.3192;-1.7957;0.0304;2.0;-21.49;0.71;-36.47;4.78;-30.03;-27.76;5.0;989.25;42.987;35.95768;-83.92452;802.38;NaN;;;320.15787;;0 / 18;9008;2022-10-26 21:27:19:110
3.9239;2.0016;5.5053;1.7563;5.5184;7.9141;5.9352;-1.8668;-0.4786;-0.6309;-0.7765;-0.3886;1.0;-30.45;-6.0;-26.34;49.88;-46.89;-13.5;5.0;989.21;45.508;35.95768;-83.92452;802.38;NaN;;;320.15787;;0 / 18;9507;2022-10-26 21:27:19:609
-2.8561;2.2397;6.5527;3.926;5.7221;6.9292;-0.032;6.3182;1.5065;-1.4747;3.1707;-0.6568;1.0;-44.06;-18.6;-10.27;86.05;-35.7;-29.54;5.0;989.22;46.719;35.95768;-83.92452;802.38;NaN;;;320.15787;;0 / 18;10008;2022-10-26 21:27:20:110
4.5488;2.6468;13.0394;1.5677;3.8123;8.8983;3.5699;0.4784;4.1974;1.3283;0.1043;-0.5544;2.0;-67.63;-0.77;-22.14;79.16;-22.88;-9.99;5.0;989.19;48.658;35.95999;-83.92232;;NaN;;;1935.4839;;0 / 18;10508;2022-10-26 21:27:20:610
0.0634;2.6731;8.4535;0.4538;3.6812;9.0782;-2.165;-1.3731;1.045;0.4229;0.5927;1.2187;5.0;-66.32;18.19;-30.66;66.32;-16.84;-4.68;5.0;989.2;43.783;35.95999;-83.92232;;NaN;;;1935.4839;;0 / 18;11007;2022-10-26 21:27:21:109
2.7473;3.5157;6.1875;1.448;2.5236;9.3651;2.3172;0.6241;-1.8147;-1.1271;0.2072;-0.7797;5.0;-29.64;21.77;-37.86;39.27;-15.19;-5.68;5.0;989.11;44.355;35.95999;-83.92232;;NaN;;;1935.4839;;0 / 18;11507;2022-10-26 21:27:21:609
5.2908;-2.0291;12.6072;0.1986;0.9259;9.7608;6.312;-1.7826;2.6958;0.1471;0.0833;0.0385;10.0;-29.23;14.36;-36.07;60.19;-3.75;-0.74;5.0;989.13;45.494;35.95999;-83.92232;;NaN;;;1935.4839;;0 / 18;12007;2022-10-26 21:27:22:109
4.1046;2.0841;10.1617;1.7016;1.7926;9.4901;-1.1878;0.1775;-1.2363;-0.2819;-0.6722;-1.2402;29.0;-41.36;-1.42;-38.19;77.96;-10.53;-10.17;5.0;989.15;38.843;35.95999;-83.92232;;NaN;;;1935.4839;;0 / 18;12507;2022-10-26 21:27:22:609
0.3138;2.0973;11.001;1.5615;1.0138;9.6283;-2.1155;0.5054;1.301;-0.0764;-0.8249;-0.3091;43.0;-42.06;-25.76;-31.14;120.02;-8.53;-12.31;5.0;989.14;37.959;35.95999;-83.92232;;NaN;;;1935.4839;;0 / 18;13008;2022-10-26 21:27:23:110
2.8011;2.77;8.7721;1.402;3.8456;8.9116;1.4734;-0.8178;-3.1952;-0.6181;-0.7776;-0.742;34.0;-15.71;-41.46;-27.24;156.17;-23.09;-8.94;5.0;989.13;39.61;35.95999;-83.92232;;NaN;;;1935.4839;;0 / 18;13507;2022-10-26 21:27:23:609
4.957;1.9813;17.4853;2.0178;2.1808;9.3457;-2.5637;0.8298;-0.3971;-0.3098;-0.4184;0.3568;29.0;-3.68;-40.82;-24.06;183.35;-14.74;-14.08;5.0;989.13;35.691;35.95999;-83.92232;;NaN;;;1935.4839;;0 / 18;14007;2022-10-26 21:27:24:109
6.1181;3.038;9.7774;2.5906;3.1235;8.9277;1.3106;-0.642;-0.6094;-0.2416;-0.8863;-0.9412;57.0;-4.07;-37.59;-19.03;178.01;-23.38;-9.1;5.0;989.11;40.39;35.95999;-83.92232;;NaN;;;1935.4839;;0 / 18;14507;2022-10-26 21:27:24:609
1.1192;3.8438;9.2916;2.9833;2.23;9.0718;-2.5127;0.512;1.4541;0.3212;0.0249;0.3089;23.0;-0.53;-29.12;-22.03;194.1;-15.05;-17.45;5.0;989.09;39.281;35.95999;-83.92232;;NaN;;;1935.4839;;0 / 18;15008;2022-10-26 21:27:25:110
-0.0108;1.8398;5.5196;0.9322;3.4835;9.1196;-0.4169;-2.4047;-3.1029;-1.1467;-1.3104;-0.2757;9.0;3.98;-19.71;-28.41;232.53;-27.38;-5.53;5.0;989.11;43.551;35.95999;-83.92232;;NaN;;;1935.4839;;0 / 18;15507;2022-10-26 21:27:25:609
0.0837;4.4985;11.9405;3.6228;2.3301;8.81;-1.9187;-0.0429;0.0507;-1.1624;-0.3302;-0.3246;6.0;7.33;-19.54;-34.16;237.03;-13.75;-22.35;5.0;989.09;42.095;35.95999;-83.92232;;NaN;;;1935.4839;;0 / 18;16008;2022-10-26 21:27:26:110
8.249;4.9594;9.6278;4.543;5.8434;6.4333;4.2681;0.2465;1.4476;1.1442;-0.7449;-0.9147;5.0;-2.1;-23.16;-37.65;272.01;-36.57;-35.23;5.0;989.03;46.63;35.95999;-83.92232;;NaN;;;1935.4839;;0 / 18;16507;2022-10-26 21:27:26:609
1.4964;9.8961;5.5567;4.0687;7.5798;4.7077;-0.2261;3.6482;4.0175;-0.2187;-0.1236;-0.1301;4.0;-10.95;-34.35;-31.88;254.1;-43.1;-49.31;5.0;989.02;45.082;35.95999;-83.92232;;NaN;;;1935.4839;;0 / 18;17007;2022-10-26 21:27:27:109
16.1889;7.617;10.8966;5.7504;4.529;6.5262;8.3232;-0.2036;-3.8651;-2.4461;0.001;0.5159;4.0;-12.66;-33.07;-32.57;273.44;-49.73;-55.2;5.0;988.99;43.057;35.95999;-83.92232;;NaN;;;1935.4839;;0 / 18;17507;2022-10-26 21:27:27:609
2.5232;6.9296;6.536;5.746;4.1911;6.7519;-0.5779;4.0238;0.5058;1.7314;-1.6925;-0.1051;4.0;-16.61;-9.77;-42.94;294.39;-23.56;-43.82;5.0;989.01;46.988;35.95999;-83.92232;;NaN;;;1935.4839;;0 / 18;18008;2022-10-26 21:27:28:110
9.3395;9.1944;3.2285;5.0329;7.3716;4.062;-1.2391;-5.3822;-1.2587;-0.1665;2.1903;-1.0125;4.0;-12.22;-12.96;-45.56;305.51;-48.74;-51.09;5.0;988.96;40.582;35.95999;-83.92232;;NaN;;;1935.4839;;0 / 18;18508;2022-10-26 21:27:28:610
3.8581;2.3438;7.8443;3.4364;2.9459;8.6996;0.934;0.2632;-0.6053;-1.3962;0.5117;-0.8301;4.0;12.58;-18.73;-48.96;269.54;-26.87;-28.45;5.0;988.99;43.992;35.95999;-83.92232;;NaN;;;1935.4839;;0 / 18;19007;2022-10-26 21:27:29:109
2.4658;3.5085;9.9129;0.5344;3.3729;9.1929;0.2239;-0.1695;-0.0095;0.4216;-0.0559;-0.359;9.0;25.65;21.02;-55.13;322.57;-20.12;-3.33;5.0;988.94;38.576;35.95999;-83.92232;;NaN;;;1935.4839;;0 / 18;19507;2022-10-26 21:27:29:609
2.12;4.9223;9.2507;0.8013;4.7927;8.5181;0.2934;0.0823;-1.9002;-0.1863;-1.651;-1.9614;15.0;26.59;3.71;-43.86;309.95;-27.94;-1.77;5.0;988.95;39.492;35.95999;-83.92232;;NaN;;;1935.4839;;0 / 18;20007;2022-10-26 21:27:30:109
-2.3797;0.638;11.8735;3.4421;1.9994;8.9624;-5.4193;-0.8447;2.0765;-2.4657;-1.0619;-0.6355;16.0;5.23;-9.77;-31.26;276.35;-23.75;-21.16;5.0;988.95;42.82;35.95999;-83.92232;;NaN;;;1935.4839;;0 / 18;20507;2022-10-26 21:27:30:609
3.3171;3.8402;3.5001;1.6657;4.766;8.4072;2.1969;-2.6731;-2.295;0.7358;-0.7891;-0.3408;14.0;0.86;-12.73;-17.89;210.51;-17.54;-10.26;5.0;988.96;48.65;35.95999;-83.92232;;NaN;;;1935.4839;;0 / 18;21008;2022-10-26 21:27:31:110
2.3366;1.5048;9.4843;3.7903;1.1357;8.973;-1.962;-0.0152;-1.1953;-0.3425;-0.1455;-0.6463;17.0;-5.55;-18.22;-6.47;169.65;-7.84;-23.86;5.0;988.96;47.029;35.95999;-83.92232;;NaN;;;1935.4839;;0 / 18;21507;2022-10-26 21:27:31:609
1.9116;2.5101;5.9447;3.2406;2.8848;8.7947;1.0846;-1.5858;0.0906;0.3561;-0.223;-0.638;20.0;-14.17;-9.41;1.56;119.21;-17.11;-20.23;5.0;988.94;47.571;35.95999;-83.92232;;NaN;;;1935.4839;;0 / 18;22007;2022-10-26 21:27:32:109
4.721;1.5622;7.4109;4.5663;2.0153;8.4414;0.8312;-0.8504;-2.2773;-0.4197;-0.2102;-1.1243;4.0;-10.59;-16.31;8.55;139.27;-11.86;-28.41;5.0;988.96;51.638;35.95999;-83.92232;;NaN;;;1935.4839;;0 / 18;22507;2022-10-26 21:27:32:609
4.2867;2.3749;7.8969;4.7189;5.7353;6.4038;-0.3464;-3.2083;1.4154;1.3574;0.131;-0.3158;2.0;-12.84;-24.15;4.41;146.81;-25.88;-35.93;5.0;988.93;48.376;35.95999;-83.92232;;NaN;;;1935.4839;;0 / 18;23007;2022-10-26 21:27:33:109
5.2059;1.4258;11.8125;3.9611;1.3796;8.8644;4.307;1.3965;1.3738;0.1569;-0.9676;-0.273;2.0;-15.52;-21.09;1.99;142.54;-8.09;-24.08;5.0;988.9;43.583;35.95999;-83.92232;;NaN;;;1935.4839;;0 / 18;23508;2022-10-26 21:27:33:610
7.2673;3.6715;14.2831;5.1735;1.3125;8.2269;-0.5355;2.1343;1.8156;-0.2158;-0.1266;-0.085;2.0;-15.66;-17.76;-7.52;145.99;-11.91;-30.22;5.0;988.92;41.447;35.95999;-83.92232;;NaN;;;1935.4839;;0 / 18;24008;2022-10-26 21:27:34:110
3.2907;1.5251;9.0389;2.809;4.3186;8.3444;-0.229;-2.379;-0.8635;-0.5359;0.5177;0.5064;2.0;-12.08;-12.56;-10.12;125.39;-26.13;-18.61;5.0;988.87;40.924;35.95999;-83.92232;;NaN;;;1935.4839;;0 / 18;24507;2022-10-26 21:27:34:609
3.1005;5.3474;7.9472;4.0679;3.1773;8.3383;-0.8275;1.5109;0.6481;-1.3236;-0.7532;0.4155;2.0;-9.41;-12.62;-10.37;155.82;-20.21;-27.08;5.0;988.86;44.661;35.95999;-83.92232;;NaN;;;1935.4839;;0 / 18;25008;2022-10-26 21:27:35:110
0.7816;2.0339;5.8546;2.7398;5.1898;7.8568;1.3563;-3.4649;0.7103;-0.156;1.4306;-1.1485;2.0;-13.18;-15.32;-11.42;119.85;-31.95;-19.22;5.0;988.84;46.369;35.95999;-83.92232;;NaN;;;1935.4839;;0 / 18;25507;2022-10-26 21:27:35:609
1.2329;3.5635;9.3395;2.3404;2.8915;9.0737;0.0698;0.5557;-2.3835;-0.2107;-0.4084;-0.627;3.0;-11.55;-21.34;-16.99;152.7;-17.65;-14.74;5.0;988.81;46.401;35.95999;-83.92232;;NaN;;;1935.4839;;0 / 18;26007;2022-10-26 21:27:36:109
2.2995;2.1787;11.2451;3.2833;5.8129;7.1833;0.9765;-1.0369;3.0777;2.3418;-0.673;1.2152;3.0;-14.66;-26.91;-23.74;162.97;-25.02;-24.16;5.0;988.79;49.861;35.95999;-83.92232;;NaN;;;1935.4839;;0 / 18;26507;2022-10-26 21:27:36:609
3.1376;4.3226;9.4029;1.8568;3.846;8.8278;2.0938;0.926;0.958;-0.3069;-0.4458;0.024;3.0;-29.29;-36.75;-9.71;129.21;-34.9;-9.07;5.0;988.79;42.875;35.95999;-83.92232;;NaN;;;1935.4839;;0 / 18;27008;2022-10-26 21:27:37:110
0.5518;1.1695;16.5948;1.9889;1.868;9.4194;-2.0768;1.6439;1.1493;-0.0173;0.2446;1.2576;4.0;-30.82;-33.36;-17.01;132.72;-16.87;-11.39;5.0;988.78;39.958;35.95999;-83.92232;;NaN;;;1935.4839;;0 / 18;27507;2022-10-26 21:27:37:609
0.9852;3.8593;7.4635;-0.0196;3.7957;9.0423;0.4066;-1.9176;-1.2345;0.1664;-0.0418;0.4106;7.0;-30.75;-18.6;-24.82;104.22;-22.77;0.12;5.0;988.75;41.014;35.95999;-83.92232;;NaN;;;1935.4839;;0 / 18;28007;2022-10-26 21:27:38:109
2.0363;4.2712;9.0592;2.0079;3.0275;9.1089;0.5289;-0.0515;-1.3433;-0.0064;0.1645;-0.9772;8.0;-24.13;-9.15;-25.24;88.19;-17.98;-12.43;5.0;988.75;45.152;35.95999;-83.92232;;NaN;;;1935.4839;;0 / 18;28506;2022-10-26 21:27:38:608
-0.0287;3.134;8.1855;-0.6475;4.9551;8.4379;0.6463;-1.6376;-0.3891;0.3279;-0.091;-0.5876;12.0;-13.11;-10.67;-30.6;71.88;-28.29;2.61;5.0;988.73;45.995;35.95999;-83.92232;;NaN;;;1935.4839;;0 / 18;29007;2022-10-26 21:27:39:109
0.1029;6.6174;7.552;-0.533;4.3896;8.7532;0.163;1.8578;-0.9654;-0.2075;-1.3818;-1.4004;9.0;-1.88;-13.26;-33.56;49.17;-26.59;3.48;5.0;988.69;36.568;35.95999;-83.92232;;NaN;;;1935.4839;;0 / 18;29507;2022-10-26 21:27:39:609
0.1974;4.6505;8.08;0.7894;3.8383;8.9897;-0.3358;1.0858;-1.7353;-0.0559;-0.4441;-0.6705;24.0;-6.56;-18.94;-29.85;135.0;-24.59;-4.55;5.0;988.73;34.186;35.95999;-83.92232;;NaN;;;1935.4839;;0 / 18;30007;2022-10-26 21:27:40:109
2.1033;3.6966;7.2625;1.1918;4.7397;8.502;1.5288;-1.1314;0.8219;0.5776;-0.1053;-0.5446;22.0;-13.67;-26.36;-23.38;135.38;-28.9;-7.98;5.0;988.71;33.098;35.95999;-83.92232;;NaN;;;1935.4839;;0 / 18;30507;2022-10-26 21:27:40:609
3.6823;2.7066;8.7027;1.3345;2.6442;9.3487;2.3362;1.2266;-1.1874;-0.8217;0.1325;-2.0965;12.0;-7.33;-35.93;-17.06;171.12;-17.36;-8.1;5.0;988.7;33.838;35.95999;-83.92232;;NaN;;;1935.4839;;0 / 18;31007;2022-10-26 21:27:41:109
3.335;1.2676;8.2214;0.6107;1.7131;9.6365;3.6918;-0.6952;6.4935;1.8004;0.3525;-0.0444;30.0;28.78;-28.86;-19.82;229.95;-10.06;-3.63;5.0;988.7;38.129;35.95999;-83.92232;;NaN;;;1935.4839;;0 / 18;31508;2022-10-26 21:27:41:610
2.5834;0.7146;5.4981;0.2128;-0.3307;9.7988;3.2791;-1.5207;6.6214;2.1855;0.1456;-1.2247;14.0;41.66;-21.92;-9.04;242.18;1.93;-1.24;5.0;988.71;36.875;35.95999;-83.92232;;NaN;;;1935.4839;;0 / 18;32008;2022-10-26 21:27:42:110
0.7134;1.1838;9.2124;-3.0E-4;2.029;9.5945;-0.0253;-1.7626;1.9553;1.4739;-0.1847;1.7935;6.0;41.64;4.29;-13.22;275.16;0.85;-1.77;5.0;988.68;46.081;35.95999;-83.92232;;NaN;;;1935.4839;;0 / 18;32507;2022-10-26 21:27:42:609
3.2166;1.7106;8.651;1.7127;2.0104;9.4443;2.4807;0.4567;-0.5416;-1.2587;-0.4477;-1.5777;5.0;32.53;-0.45;-17.79;274.79;-9.93;-2.67;5.0;988.66;39.651;35.95999;-83.92232;;NaN;;;1935.4839;;0 / 18;33008;2022-10-26 21:27:43:110
2.4861;0.3604;9.7451;2.5464;0.1126;9.4696;-2.962;-0.6604;6.0749;2.5036;-0.0137;1.3897;5.0;21.75;4.99;-25.01;277.95;3.46;-15.27;5.0;988.66;41.857;35.95999;-83.92232;;NaN;;;1935.4839;;0 / 18;33507;2022-10-26 21:27:43:609
5.1939;0.6763;10.515;2.9271;1.4813;9.2417;0.9764;-1.9411;-0.5214;-1.2185;-2.3507;0.3712;5.0;17.59;4.52;-24.81;287.35;-8.69;-17.57;5.0;988.63;43.474;35.95999;-83.92232;;NaN;;;1935.4839;;0 / 18;34007;2022-10-26 21:27:44:109
5.3486;-0.0682;10.4934;4.257;0.7066;8.8062;-0.7686;1.1907;9.1425;2.6954;0.7529;1.1967;6.0;9.98;11.36;-26.06;301.28;-4.13;-25.8;5.0;988.61;41.975;35.95999;-83.92232;;NaN;;;1935.4839;;0 / 18;34507;2022-10-26 21:27:44:609
3.4582;3.3852;7.6887;2.8184;1.7949;9.2198;0.9064;1.5532;-1.5434;-0.8699;0.14;0.1982;6.0;11.16;3.38;-22.72;305.36;-26.6;-13.89;5.0;988.58;45.32;35.95999;-83.92232;;NaN;;;1935.4839;;0 / 18;35008;2022-10-26 21:27:45:110
2.12;2.4179;8.9384;2.4882;1.4082;9.3806;-0.7944;0.7886;-1.3474;-0.1493;-0.212;-0.28;5.0;11.12;6.81;-18.75;300.57;-8.26;-14.86;5.0;988.6;43.095;35.95999;-83.92232;;NaN;;;1935.4839;;0 / 18;35507;2022-10-26 21:27:45:609
0.6212;-0.0778;7.2888;1.3223;2.5776;9.369;0.171;-2.2999;-1.3852;0.4208;0.6153;-0.4722;7.0;10.07;8.48;-20.12;308.29;-15.19;-16.32;5.0;988.56;44.137;35.95999;-83.92232;;NaN;;;1935.4839;;0 / 18;36007;2022-10-26 21:27:46:109
2.4909;-0.3401;10.3316;2.7419;-2.136;9.17;0.5946;1.3707;3.0187;0.0236;0.2313;-0.4329;7.0;0.94;4.56;-15.22;289.02;12.58;-16.65;5.0;988.54;42.791;35.95999;-83.92232;;NaN;;;1935.4839;;0 / 18;36507;2022-10-26 21:27:46:609
0.3233;-0.9852;8.9133;1.3185;0.7384;9.6895;1.0078;-0.6835;1.7512;1.8686;0.7265;0.3439;16.0;-5.34;7.69;-17.59;13.47;5.9;-11.08;5.0;988.52;42.409;35.95999;-83.92232;;NaN;;;1935.4839;;0 / 18;37007;2022-10-26 21:27:47:109
1.0881;2.8059;5.7494;1.8954;2.0291;9.4053;1.9037;-1.3458;1.1447;0.751;-0.3261;-0.7;13.0;3.45;-4.2;-31.09;283.95;-11.94;-11.39;5.0;988.48;47.126;35.95999;-83.92232;;NaN;;;1935.4839;;0 / 18;37507;2022-10-26 21:27:47:609
2.065;1.7106;8.3686;0.2671;3.6638;9.0926;1.1977;-0.8802;-1.5979;-0.1507;0.6555;-0.7866;12.0;14.08;-6.47;-37.26;282.31;-16.07;-6.61;5.0;988.49;42.673;35.95999;-83.92232;;NaN;;;1935.4839;;0 / 18;38007;2022-10-26 21:27:48:109
-1.2425;4.6361;6.1433;0.6396;4.3523;8.7646;-1.7025;0.0281;-1.4114;-0.0208;-0.5558;-0.7409;13.0;27.62;-15.39;-37.46;276.82;-28.34;-3.21;5.0;988.46;37.641;35.95999;-83.92232;;NaN;;;1935.4839;;0 / 18;38507;2022-10-26 21:27:48:609
-0.7014;1.9343;6.9571;0.6562;1.2991;9.6981;1.3079;-0.2127;-0.3894;0.0499;-0.0119;-1.1014;21.0;26.33;-6.39;-39.02;267.16;-7.08;-5.37;5.0;988.48;36.357;35.95999;-83.92232;;NaN;;;1935.4839;;0 / 18;39008;2022-10-26 21:27:49:110
-0.1208;0.1244;7.9328;-0.156;2.0704;9.5843;2.6186;-1.7036;-0.9456;0.709;-0.2343;-0.6728;26.0;25.41;12.79;-31.41;306.4;-10.6;-0.1;5.0;988.47;37.142;35.95999;-83.92232;;NaN;;;1935.4839;;0 / 18;39507;2022-10-26 21:27:49:609
2.4802;2.0207;7.2506;1.5171;2.1518;9.4466;1.5511;-1.1186;4.6236;0.8792;-0.6551;-1.2417;26.0;23.66;8.89;-29.59;298.27;-11.14;-4.83;5.0;988.5;36.216;35.95999;-83.92232;;NaN;;;1935.4839;;0 / 18;40007;2022-10-26 21:27:50:109
3.7481;0.4131;7.6528;1.8886;1.4888;9.5072;3.6527;1.41;7.2811;1.4583;0.6162;-0.6275;5.0;10.73;5.91;-32.94;301.42;-8.73;-11.24;5.0;988.47;34.615;35.95999;-83.92232;;NaN;;;1935.4839;;0 / 18;40508;2022-10-26 21:27:50:610
4.4447;0.8644;13.5613;3.0297;2.2695;9.0466;-0.1366;-0.597;1.7323;-1.0674;-0.8577;-0.1823;2.0;13.91;-1.65;-36.73;303.86;-22.75;-5.78;5.0;988.47;38.475;35.95999;-83.92232;;NaN;;;1935.4839;;0 / 18;41008;2022-10-26 21:27:51:110
0.5088;3.1519;9.5058;2.6705;2.4904;9.1015;-0.8357;-0.0733;-0.0865;0.0979;0.0405;-0.1277;2.0;13.18;-7.07;-44.29;276.93;-14.71;-16.35;5.0;988.46;42.316;35.95999;-83.92232;;NaN;;;1935.4839;;0 / 18;41508;2022-10-26 21:27:51:610
-0.4968;-0.2584;7.1895;-0.5235;0.5972;9.7744;0.1958;-0.8052;-2.4141;0.0194;0.6996;-0.2091;3.0;19.8;-5.4;-43.37;264.46;-4.14;1.1;5.0;988.44;46.549;35.95999;-83.92232;;NaN;;;1935.4839;;0 / 18;42008;2022-10-26 21:27:52:110
0.7576;0.1472;7.7797;2.047;0.5241;9.5763;-1.5172;-1.2985;0.0187;0.5146;-0.0786;-0.1814;4.0;16.59;-6.38;-44.83;261.63;-3.06;-12.07;5.0;988.39;37.135;35.95999;-83.92232;;NaN;;;1935.4839;;0 / 18;42507;2022-10-26 21:27:52:609
0.4071;-0.0144;6.9117;0.7233;0.2847;9.7758;0.708;-0.052;-2.3986;0.67;-0.0666;-0.1274;5.0;1.58;-8.87;-50.68;215.46;5.23;-8.64;5.0;988.37;60.765;35.95999;-83.92232;;NaN;;;1935.4839;;0 / 18;43007;2022-10-26 21:27:53:109
2.9207;0.1831;8.1242;2.5952;-0.2969;9.4524;0.6195;0.5599;-0.8929;-0.0728;-0.4477;-0.1271;6.0;-14.49;-5.94;-47.72;157.63;1.03;-13.01;5.0;988.38;51.615;35.95999;-83.92232;;NaN;;;1935.4839;;0 / 18;43507;2022-10-26 21:27:53:609
-0.7792;-1.9235;8.7302;1.3422;-0.6995;9.6891;-0.4292;1.9853;8.8255;2.3723;0.7184;0.7249;8.0;-22.2;-1.37;-42.54;116.59;6.63;-11.81;5.0;988.38;44.464;35.95999;-83.92232;;NaN;;;1935.4839;;0 / 18;44007;2022-10-26 21:27:54:109
1.6172;3.5934;8.7063;-0.9847;4.3166;8.7503;0.44;0.2392;0.3322;-0.2378;-0.0066;-1.1688;7.0;-3.66;-8.16;-36.69;44.17;-28.78;9.35;5.0;988.3;43.947;35.95999;-83.92232;;NaN;;;1935.4839;;0 / 18;44507;2022-10-26 21:27:54:609
-1.835;1.6878;9.6518;0.6365;3.0603;9.2952;-2.7453;-0.3243;-0.8674;-0.3384;-0.4365;-0.1568;4.0;2.96;-5.42;-37.76;308.68;-19.46;-1.18;5.0;988.31;43.962;35.95999;-83.92232;;NaN;;;1935.4839;;0 / 18;45007;2022-10-26 21:27:55:109
-0.4645;0.9649;6.4412;-0.2514;1.523;9.6844;0.1031;-1.0667;-2.8473;-0.182;0.0826;1.0017;8.0;1.29;4.46;-35.83;348.76;-8.14;-1.27;5.0;988.29;39.139;35.95999;-83.92232;;NaN;;;1935.4839;;0 / 18;45507;2022-10-26 21:27:55:609
6.8626;-0.8847;15.3616;3.4195;-1.1388;9.1204;-1.7774;0.6212;5.6606;0.3946;-1.7046;0.4502;13.0;2.25;3.64;-40.14;292.64;2.18;-5.7;5.0;988.31;35.046;35.958385;-83.92437;778.39;NaN;;;74.66129;;0 / 18;46007;2022-10-26 21:27:56:109
3.0272;2.4263;7.1871;3.1555;1.1577;9.2127;0.8286;0.6407;-1.8337;-0.8497;0.2915;-1.1149;13.0;-17.81;-2.76;-36.58;69.92;-6.78;-18.91;5.0;988.28;38.208;35.958385;-83.92437;778.39;NaN;;;74.66129;;0 / 18;46507;2022-10-26 21:27:56:609
3.6978;1.3226;8.0871;2.9531;2.4234;9.032;0.8394;-1.0178;-1.0947;0.1547;-0.399;-0.6593;18.0;-15.67;-7.14;-34.41;86.26;-10.71;-22.93;5.0;988.28;40.985;35.958385;-83.92437;778.39;NaN;;;74.66129;;0 / 18;47008;2022-10-26 21:27:57:110
5.7661;0.4202;7.3678;5.1728;0.3936;8.3221;2.0442;-0.1756;3.3805;-0.5232;-0.1481;-1.2931;21.0;-16.12;-13.16;-22.93;173.05;-2.3;-31.86;5.0;988.28;41.616;35.958385;-83.92437;778.39;NaN;;;74.66129;;0 / 18;47507;2022-10-26 21:27:57:609
7.867;0.3461;9.1681;4.4845;1.1695;8.6425;2.5689;-0.0617;1.2699;0.9601;-0.0711;0.5659;20.0;-14.92;-11.62;-22.84;176.0;0.9;-31.3;5.0;988.26;41.451;35.958385;-83.92437;778.39;NaN;;;74.66129;;0 / 18;48007;2022-10-26 21:27:58:109
4.8996;2.9806;11.3683;3.2043;1.1594;9.1956;-1.6278;1.5258;-1.7494;-1.0068;-0.7085;-0.1219;27.0;-2.19;-17.46;-29.78;210.68;-6.79;-19.21;5.0;988.29;36.497;35.958385;-83.92437;778.39;NaN;;;74.66129;;0 / 18;48507;2022-10-26 21:27:58:609
3.2465;-0.7672;5.5819;4.7273;1.4021;8.4769;-0.5006;-3.7412;-1.6948;-0.1644;-0.1747;-1.2085;31.0;2.19;-12.86;-37.11;247.01;-8.22;-29.15;5.0;988.21;41.763;35.958385;-83.92437;778.39;NaN;;;74.66129;;0 / 18;49007;2022-10-26 21:27:59:109
5.7159;0.9876;8.4141;3.255;2.3655;8.9431;3.8241;-1.0288;-0.1264;1.6996;0.1185;0.1761;14.0;3.45;-10.91;-40.84;251.86;-6.83;-25.53;5.0;988.22;37.829;35.958385;-83.92437;778.39;NaN;;;74.66129;;0 / 18;49506;2022-10-26 21:27:59:608
5.8092;1.0128;7.7533;3.9819;1.5147;8.8329;3.5955;0.5709;3.6539;0.1557;-0.0974;-1.9304;8.0;7.37;-11.42;-40.61;250.44;-4.92;-22.87;5.0;988.22;41.417;35.958385;-83.92437;778.39;NaN;;;74.66129;;0 / 18;50008;2022-10-26 21:28:00:110
0.8055;1.9415;12.4134;3.7772;3.4425;8.3697;-3.4104;-1.3275;3.672;0.9969;-0.2083;0.8282;6.0;1.59;-4.26;-43.93;276.68;-8.94;-22.9;5.0;988.2;42.272;35.958385;-83.92437;778.39;NaN;;;74.66129;;0 / 18;50507;2022-10-26 21:28:00:609
4.0472;0.5279;9.4711;2.9364;0.1674;9.3552;3.1659;-2.9564;2.9334;-0.4061;-1.4605;-1.9206;5.0;0.68;-17.01;-40.57;227.59;-15.13;-7.56;5.0;988.18;45.425;35.958385;-83.92437;778.39;NaN;;;74.66129;;0 / 18;51008;2022-10-26 21:28:01:110
4.4782;-3.414;16.87;2.8134;-0.7144;9.3672;-4.2314;0.6812;0.9024;2.5239;0.9922;1.8303;7.0;-0.94;4.16;-47.81;263.41;7.91;-23.87;5.0;988.15;39.906;35.958385;-83.92437;778.39;NaN;;;74.66129;;0 / 18;51507;2022-10-26 21:28:01:609
5.4634;2.752;10.8093;0.3408;2.4587;9.4873;6.3457;-4.1829;-0.417;-1.4447;-1.7699;0.0027;6.0;2.66;-14.96;-39.26;324.0;-22.84;2.96;5.0;988.15;47.241;35.958385;-83.92437;778.39;NaN;;;74.66129;;0 / 18;52007;2022-10-26 21:28:02:109
1.2808;-2.2839;16.2452;4.1657;-0.0274;8.8779;-0.7708;1.879;0.0834;-1.2336;-0.8172;-0.0138;6.0;-1.41;-22.74;-33.99;210.39;0.16;-25.14;5.0;988.13;43.378;35.958385;-83.92437;778.39;NaN;;;74.66129;;0 / 18;52507;2022-10-26 21:28:02:609
5.4108;-0.079;6.1672;3.0553;3.6158;8.5884;0.2423;-3.5701;-3.1753;-0.4429;1.589;-1.1047;8.0;-11.1;-23.49;-28.99;189.32;-13.24;-25.42;5.0;988.1;46.966;35.958385;-83.92437;778.39;NaN;;;74.66129;;0 / 18;53007;2022-10-26 21:28:03:109
3.4582;0.6691;6.7753;3.6993;0.2924;9.0775;1.4215;1.9884;-1.7149;-0.3732;0.5267;-1.1966;6.0;-18.37;-20.04;-12.71;148.81;-1.71;-22.17;5.0;988.08;42.714;35.958385;-83.92437;778.39;NaN;;;74.66129;;0 / 18;53507;2022-10-26 21:28:03:609
1.4689;-0.4334;7.503;2.7329;0.9769;9.3673;-0.4935;-1.4136;-1.2051;1.1321;0.7441;-0.1754;13.0;-17.4;-18.77;-14.44;151.84;3.19;-21.38;5.0;988.07;44.002;35.958385;-83.92437;778.39;NaN;;;74.66129;;0 / 18;54007;2022-10-26 21:28:04:109
4.3274;1.3669;7.1393;2.9323;0.6261;9.337;0.6609;-0.0575;-0.1296;0.6191;-0.0936;-0.3571;14.0;-16.63;-20.57;-11.1;147.08;-3.66;-17.43;5.0;988.03;42.5;35.958385;-83.92437;778.39;NaN;;;74.66129;;0 / 18;54507;2022-10-26 21:28:04:609
3.7816;1.6364;6.6808;0.8102;1.8027;9.6054;3.3198;-1.7945;1.9426;1.6358;0.5606;-0.4584;17.0;-6.99;-18.88;-17.89;169.05;5.32;-9.3;5.0;988.04;47.418;35.958385;-83.92437;778.39;NaN;;;74.66129;;0 / 18;55008;2022-10-26 21:28:05:110
-1.5024;3.6281;6.6042;1.0843;5.0009;8.3657;-2.6561;-1.1731;-1.3337;1.1847;-0.082;0.1833;14.0;16.63;-29.21;-17.94;224.3;-26.68;-2.26;5.0;987.98;43.502;35.958385;-83.92437;778.39;NaN;;;74.66129;;0 / 18;55507;2022-10-26 21:28:05:609
4.3382;1.7536;6.1684;1.6887;3.0671;9.1603;2.8919;-2.1063;-2.4663;0.6384;-0.2237;-0.1694;16.0;16.69;-42.81;-20.25;207.82;-11.35;-11.16;5.0;987.98;41.676;35.958385;-83.92437;778.39;NaN;;;74.66129;;0 / 18;56008;2022-10-26 21:28:06:110
-0.0933;2.8406;12.5653;1.3971;2.4226;9.3994;-2.3205;-0.1904;2.8983;-0.9968;-0.5833;-1.5432;28.0;25.99;-49.13;-21.24;213.21;-14.14;-6.62;5.0;988.0;39.199;35.958385;-83.92437;778.39;NaN;;;74.66129;;0 / 18;56508;2022-10-26 21:28:06:610
-0.0012;2.9901;6.1923;0.7568;3.967;8.9365;0.7;-2.1382;-1.3545;-0.2449;-0.6219;-1.0994;33.0;51.66;-26.23;-36.23;256.84;-22.23;-7.57;5.0;987.99;43.767;35.958385;-83.92437;778.39;NaN;;;74.66129;;0 / 18;57007;2022-10-26 21:28:07:109
1.8924;0.754;7.9292;2.8952;2.6812;8.9777;1.1999;-1.333;0.2334;-0.9772;-0.5506;-1.4802;33.0;42.9;-4.78;-45.06;274.28;-20.66;-22.29;5.0;987.99;52.38;35.958385;-83.92437;778.39;NaN;;;74.66129;;0 / 18;57508;2022-10-26 21:28:07:610
5.9435;0.5315;10.2036;2.8492;2.2777;9.103;1.7549;0.3791;5.5434;1.0883;0.4366;-0.7328;30.0;29.64;9.64;-44.59;292.72;-13.43;-17.38;5.0;988.04;40.595;35.958385;-83.92437;778.39;NaN;;;74.66129;;0 / 18;58007;2022-10-26 21:28:08:109
4.0759;1.6938;11.9082;3.8654;0.9888;8.9583;0.3309;2.1436;6.4755;-0.9229;-1.0355;-0.6881;5.0;11.91;-4.14;-25.71;264.5;-5.79;-23.34;5.0;988.01;41.58;35.958385;-83.92437;778.39;NaN;;;74.66129;;0 / 18;58507;2022-10-26 21:28:08:609
3.256;2.5184;8.0513;3.9346;2.0938;8.7353;-0.6497;0.3362;-0.6784;-0.5915;-0.3422;-0.6698;3.0;0.24;1.03;-19.67;305.25;-14.2;-22.86;5.0;987.98;39.219;35.958385;-83.92437;778.39;NaN;;;74.66129;;0 / 18;59007;2022-10-26 21:28:09:109
1.8721;1.5837;5.9172;3.3168;2.6814;8.8306;0.0524;-1.6054;-0.4694;1.2932;0.1652;0.15;3.0;-2.72;5.27;-18.83;338.76;-15.87;-20.59;5.0;987.96;51.929;35.958385;-83.92437;778.39;NaN;;;74.66129;;0 / 18;59507;2022-10-26 21:28:09:609
5.5675;1.8398;10.7507;3.7985;1.3815;8.9349;2.0469;0.539;2.6162;-0.836;0.3976;0.2561;2.0;-2.51;-0.21;-25.2;323.87;-15.85;-18.12;5.0;987.98;40.585;35.958385;-83.92437;778.39;NaN;;;74.66129;;0 / 18;60009;2022-10-26 21:28:10:111
3.8904;2.1165;9.5297;3.6402;1.906;8.9043;0.1914;0.2131;-2.6435;-0.6929;-0.3424;-0.9153;2.0;-7.48;-2.04;-24.45;317.81;-11.21;-22.24;5.0;987.94;38.742;35.958385;-83.92437;778.39;NaN;;;74.66129;;0 / 18;60507;2022-10-26 21:28:10:609
1.8601;0.4167;7.9424;2.9961;4.4375;8.216;0.2916;-2.5902;-1.433;0.1942;0.6772;-0.4393;3.0;-12.56;-6.09;-22.26;39.71;-19.43;-25.35;5.0;987.93;43.972;35.958385;-83.92437;778.39;NaN;;;74.66129;;0 / 18;61007;2022-10-26 21:28:11:109
2.9722;1.6723;7.861;5.0786;2.3046;8.0664;-1.7758;-0.5246;-0.0939;-1.6532;0.1377;-1.3303;1.0;-12.26;-8.12;-12.24;140.14;-14.86;-35.24;5.0;987.9;46.227;35.958385;-83.92437;778.39;NaN;;;74.66129;;0 / 18;61507;2022-10-26 21:28:11:609
4.7151;2.2313;5.1437;4.2637;2.0077;8.6;0.6597;-0.9535;7.469;1.7866;0.3076;0.2794;4.0;-13.69;-5.4;-7.82;115.66;-3.65;-28.11;5.0;987.91;38.072;35.958385;-83.92437;778.39;NaN;;;74.66129;;0 / 18;62007;2022-10-26 21:28:12:109
4.9654;0.213;14.0545;4.8821;1.5142;8.3692;-0.1725;-0.5101;5.3855;-1.7208;0.1366;0.8628;4.0;-5.68;5.93;1.28;43.6;-11.93;-23.93;5.0;987.88;39.003;35.958385;-83.92437;778.39;NaN;;;74.66129;;0 / 18;62507;2022-10-26 21:28:12:609
2.187;3.1184;8.8618;3.964;2.793;8.5238;-0.3642;0.1397;-2.9106;-0.8305;-0.1179;-0.8079;3.0;2.31;8.78;-4.18;339.14;-21.3;-26.38;5.0;987.87;45.137;35.958385;-83.92437;778.39;NaN;;;74.66129;;0 / 18;63007;2022-10-26 21:28:13:109
0.9505;1.0379;8.3794;2.0424;3.348;8.9883;-1.1434;-2.0501;-1.7754;0.4476;0.5466;0.3002;3.0;13.11;15.68;2.66;317.39;-19.96;-12.8;5.0;987.84;51.736;35.958385;-83.92437;778.39;NaN;;;74.66129;;0 / 18;63508;2022-10-26 21:28:13:610
4.6361;3.0476;6.0141;3.8792;0.3691;8.9992;2.9309;0.8931;3.2478;0.7115;-0.0115;-0.1837;4.0;17.66;16.43;-3.58;310.78;-4.68;-21.24;5.0;987.84;57.508;35.958385;-83.92437;778.39;NaN;;;74.66129;;0 / 18;64007;2022-10-26 21:28:14:109
3.9455;1.1635;16.2284;3.4552;-0.3548;9.1709;-0.7193;2.3681;1.4376;0.6098;-0.1979;0.6826;5.0;11.21;13.71;-9.36;315.76;2.07;-20.64;5.0;987.81;42.423;35.958385;-83.92437;778.39;NaN;;;74.66129;;0 / 18;64507;2022-10-26 21:28:14:609
-0.0826;3.0344;7.8586;2.0013;3.2954;9.017;-2.0305;-0.2713;-1.0251;-0.2439;0.0224;-0.1332;6.0;6.04;10.07;-9.51;325.49;-21.98;-15.43;5.0;987.77;39.232;35.958385;-83.92437;778.39;NaN;;;74.66129;;0 / 18;65008;2022-10-26 21:28:15:110
6.8219;3.6966;5.7506;3.6416;3.8171;8.2667;2.7201;-1.0505;3.0474;-0.3;-0.6304;-0.8527;6.0;-3.73;6.02;-6.88;5.54;-22.91;-23.77;5.0;987.79;36.227;35.958385;-83.92437;778.39;NaN;;;74.66129;;0 / 18;65507;2022-10-26 21:28:15:609
3.8342;3.6966;8.9133;3.6755;1.7879;8.9143;0.8392;2.0464;0.5653;-1.1185;-0.22;-0.0301;11.0;-12.83;0.62;7.56;75.17;-16.23;-23.72;5.0;987.79;37.774;35.958385;-83.92437;778.39;NaN;;;74.66129;;0 / 18;66008;2022-10-26 21:28:16:110
1.512;2.278;9.9069;2.8478;2.6877;8.991;-0.9129;-2.3835;-0.4835;0.3954;0.0108;-0.0328;18.0;-21.22;-11.46;15.04;117.46;-15.91;-17.57;5.0;987.79;40.264;35.958385;-83.92437;778.39;NaN;;;74.66129;;0 / 18;66507;2022-10-26 21:28:16:609
2.8645;0.917;7.745;2.0659;2.0057;9.3744;0.4568;-1.8963;1.1486;0.4968;-0.2608;-0.2393;18.0;-26.66;-29.89;13.93;130.51;-11.55;-16.63;5.0;987.76;51.649;35.958385;-83.92437;778.39;NaN;;;74.66129;;0 / 18;67008;2022-10-26 21:28:17:110
1.2784;1.7919;13.2921;1.2866;0.2816;9.7178;0.4777;1.6;3.7454;-0.8518;-0.3769;-0.7992;16.0;-10.52;-42.19;1.09;165.18;-7.0;-10.53;5.0;987.77;45.256;35.958385;-83.92437;778.39;NaN;;;74.66129;;0 / 18;67507;2022-10-26 21:28:17:609
-0.7469;1.5359;7.9304;-0.5838;2.7952;9.3817;-0.2761;-1.9581;-2.0631;-0.1285;-0.5705;-0.9451;24.0;10.78;-35.48;-13.72;199.52;-16.64;2.33;5.0;987.72;45.437;35.958385;-83.92437;778.39;NaN;;;74.66129;;0 / 18;68007;2022-10-26 21:28:18:109
-0.268;2.5726;7.727;0.9144;0.5671;9.7474;-1.734;0.8214;-1.3695;-0.9275;0.2815;-1.9116;21.0;28.48;-16.07;-26.57;245.74;-5.43;-4.87;5.0;987.74;39.937;35.958385;-83.92437;778.39;NaN;;;74.66129;;0 / 18;68506;2022-10-26 21:28:18:608
2.0183;0.9159;7.4755;1.2568;3.4351;9.099;3.8804;-0.9066;0.1064;0.7468;0.8673;-0.6749;7.0;23.27;-0.67;-40.24;284.06;-14.64;-11.99;5.0;987.73;42.944;35.958385;-83.92437;778.39;NaN;;;74.66129;;0 / 18;69007;2022-10-26 21:28:19:109
3.9694;2.9554;5.3689;2.9815;2.5245;8.9949;0.7095;-0.539;-0.5936;-0.5609;0.2836;-1.3846;6.0;25.91;-9.81;-46.93;269.59;-14.92;-18.34;5.0;987.73;37.783;35.958385;-83.92437;778.39;NaN;;;74.66129;;0 / 18;69507;2022-10-26 21:28:19:609
0.2656;-0.5495;11.4987;3.1655;-0.2459;9.2784;-0.9421;0.3755;5.1918;-0.5894;0.7878;1.1853;4.0;19.89;-1.44;-50.89;279.3;-8.36;-15.44;5.0;987.73;40.539;35.958385;-83.92437;778.39;NaN;;;74.66129;;0 / 18;70008;2022-10-26 21:28:20:110
6.3383;3.4726;7.4121;2.9725;4.7137;8.0695;3.0183;-2.109;-1.5095;-2.4688;0.7814;0.2973;4.0;16.13;-19.35;-37.26;264.59;-28.73;-20.22;5.0;987.71;46.073;35.958385;-83.92437;778.39;NaN;;;74.66129;;0 / 18;70508;2022-10-26 21:28:20:610
-0.358;5.5077;10.5712;0.0977;0.6973;9.7813;-0.8396;3.7525;-0.163;-0.6233;0.9402;-0.4433;3.0;13.69;-29.61;-32.12;227.35;-17.95;-15.13;5.0;987.67;42.573;35.958385;-83.92437;778.39;NaN;;;74.66129;;0 / 18;71007;2022-10-26 21:28:21:109
4.4865;-2.4431;5.3028;2.8462;3.7492;8.6031;-1.2335;-0.3883;-2.4293;-5.5805;0.3462;-2.3231;2.0;15.53;-17.1;-32.27;256.6;-22.48;-18.31;5.0;987.66;44.19;35.958385;-83.92437;778.39;NaN;;;74.66129;;0 / 18;71507;2022-10-26 21:28:21:609
2.0662;-2.8513;9.294;3.6745;-2.1877;8.8251;-1.9053;0.0459;-0.5723;-0.5885;0.6768;-0.143;6.0;0.38;9.13;-31.05;281.34;12.89;-22.61;5.0;987.64;47.89;35.958385;-83.92437;778.39;NaN;;;74.66129;;0 / 18;72007;2022-10-26 21:28:22:109
0.4202;0.2656;5.345;1.6313;0.213;9.6677;1.0082;-2.69;-2.5316;1.2919;1.2774;-0.3996;10.0;-2.06;13.28;-24.19;351.5;-1.24;-9.58;5.0;987.6;53.405;35.958385;-83.92437;778.39;NaN;;;74.66129;;0 / 18;72507;2022-10-26 21:28:22:609
0.4633;2.0183;6.0631;1.2501;0.9552;9.6796;-0.104;-0.6764;-4.104;-0.9809;-0.8888;-0.5288;8.0;6.3;13.28;-22.5;331.23;-5.67;-5.97;5.0;987.57;42.388;35.958385;-83.92437;778.39;NaN;;;74.66129;;0 / 18;73007;2022-10-26 21:28:23:109
3.3398;1.6149;6.1648;2.0177;4.4913;8.481;1.1491;-2.9983;-2.5455;2.0199;0.8974;0.3578;8.0;5.59;7.63;-25.2;316.73;-22.61;-21.12;5.0;987.57;46.194;35.958385;-83.92437;778.39;NaN;;;74.66129;;0 / 18;73507;2022-10-26 21:28:23:609
4.1166;2.3821;7.3176;3.1755;1.7627;9.1093;2.1918;0.8202;2.2678;0.1329;-0.4213;0.7845;6.0;9.66;9.86;-21.73;317.13;-19.02;-12.73;5.0;987.61;43.689;35.958385;-83.92437;778.39;NaN;;;74.66129;;0 / 18;74008;2022-10-26 21:28:24:110
4.4148;0.9482;9.2255;4.7011;0.6863;8.579;0.3305;0.7961;2.8434;-0.8618;0.8489;0.4481;7.0;26.76;13.46;-36.71;287.94;-3.75;-34.3;5.0;987.55;38.949;35.958298;-83.92453;790.32;NaN;;;96.52903;;0 / 18;74507;2022-10-26 21:28:24:609
1.8541;2.0961;8.3806;2.3925;1.8464;9.3294;0.195;-0.5334;-2.7797;-1.0988;0.0646;-0.5924;13.0;38.16;-0.92;-47.59;278.15;-14.05;-17.87;5.0;987.55;42.127;35.958298;-83.92453;790.32;NaN;;;96.52903;;0 / 18;75008;2022-10-26 21:28:25:110
6.5121;-1.9403;5.79;5.1245;1.7016;8.1863;3.2804;-2.2876;-0.8118;0.2237;0.8427;-1.3936;19.0;22.28;0.28;-55.59;268.39;1.97;-29.22;5.0;987.52;42.855;35.958344;-83.924446;768.92;NaN;;0.0;109.46971;;0 / 18;75507;2022-10-26 21:28:25:609
4.0412;3.5755;9.2231;3.6284;2.4365;8.7788;0.6275;0.7462;-0.9765;0.1519;0.2204;-0.7237;33.0;-2.08;-7.89;-69.71;284.56;-14.45;-27.6;5.0;987.52;40.307;35.958344;-83.924446;768.92;NaN;;0.0;109.46971;;0 / 18;76007;2022-10-26 21:28:26:109
2.1667;3.1771;7.7952;2.5302;4.0685;8.5566;-0.6061;-1.0641;-0.8415;-0.1083;-0.255;-0.6612;37.0;4.33;-21.67;-63.49;281.91;-24.51;-16.47;5.0;987.5;40.011;35.958332;-83.92446;769.13;NaN;;0.0;86.437256;;5 / 18;76507;2022-10-26 21:28:26:609
2.0459;0.1232;9.9021;3.4934;2.2149;8.8916;-1.0872;-1.9847;1.0801;-1.9583;0.2833;-2.1523;41.0;6.49;-31.59;-54.41;233.55;-15.12;-20.74;5.0;987.51;39.294;35.958332;-83.92446;769.13;NaN;;0.0;86.437256;;5 / 18;77007;2022-10-26 21:28:27:109
6.0392;2.7353;7.2254;3.955;5.0039;7.4491;1.5667;-2.6019;2.1423;1.4188;-1.228;-0.2279;38.0;10.48;-19.63;-47.38;272.95;-30.68;-27.97;5.0;987.49;39.839;35.958336;-83.92448;769.34;NaN;;0.0;76.37958;;5 / 18;77507;2022-10-26 21:28:27:609
10.7614;5.3172;10.1605;5.9672;3.2515;7.0704;2.188;2.2974;1.2126;-1.9748;0.3812;-0.3845;11.0;-7.48;-22.56;-34.48;262.13;-33.32;-37.98;5.0;987.53;38.706;35.958336;-83.92448;769.34;NaN;;0.0;76.37958;;5 / 18;78007;2022-10-26 21:28:28:109
3.4128;4.3083;10.4994;5.9113;2.7136;7.3392;-2.3659;-0.1952;-0.295;-0.461;-0.0635;-0.0684;2.0;-25.11;-10.69;-28.95;89.17;-16.06;-38.85;5.0;987.52;41.426;35.958336;-83.92448;769.54;NaN;;0.0;76.37958;;5 / 18;78507;2022-10-26 21:28:28:609
6.355;2.3043;6.4424;5.7227;4.6363;6.475;-1.3279;-2.7525;0.1223;-1.0403;0.1386;0.813;2.0;-33.47;-11.76;-24.32;36.37;-33.86;-41.24;5.0;987.47;42.598;35.958317;-83.92451;769.54;NaN;;0.0;66.84554;;5 / 18;79007;2022-10-26 21:28:29:109
5.7171;5.1832;11.5337;6.4434;1.9537;7.1299;-1.7277;1.7358;-0.0914;-0.7615;-0.1589;-0.8724;1.0;-36.11;-6.07;-24.51;55.97;-16.08;-43.31;5.0;987.46;52.315;35.958317;-83.92451;769.54;NaN;;0.0;66.84554;;5 / 18;79507;2022-10-26 21:28:29:609
2.5606;3.3733;6.4893;3.7464;5.6027;7.1235;-0.5801;-3.2579;0.023;0.1443;0.7169;0.2037;1.0;-39.79;-4.58;-23.83;45.8;-31.14;-35.81;5.0;987.42;47.132;35.958317;-83.92451;769.54;NaN;;0.0;66.84554;;5 / 18;80008;2022-10-26 21:28:30:110
5.8678;3.8509;6.7011;4.9393;3.3321;7.7892;1.0504;1.0375;-4.3193;0.3307;-0.2831;-0.3103;1.0;-34.11;-7.41;-30.51;56.93;-19.78;-31.44;5.0;987.41;47.414;35.958317;-83.92451;769.54;NaN;;0.0;66.84554;;5 / 18;80507;2022-10-26 21:28:30:609
-0.5782;0.3616;8.0417;3.999;3.906;8.0574;-0.9879;-1.1758;-0.4859;-0.128;0.3277;-0.7889;2.0;-40.52;-2.7;-28.63;62.34;-18.23;-29.23;5.0;987.41;47.024;35.958317;-83.92451;769.54;NaN;;0.0;66.84554;;5 / 18;81007;2022-10-26 21:28:31:109
3.9084;1.6065;5.8762;4.0373;2.3268;8.6288;2.2495;0.0692;5.2204;1.6533;-0.4009;0.2293;3.0;-39.0;3.68;-38.36;62.77;-10.34;-18.89;5.0;987.38;44.424;35.958317;-83.92451;769.54;NaN;;0.0;66.84554;;5 / 18;81507;2022-10-26 21:28:31:609
5.9459;4.733;10.9699;4.0091;1.7231;8.7823;-1.0004;2.3552;3.2259;-0.3976;1.0332;0.0373;4.0;-33.15;7.07;-30.56;43.08;-15.99;-24.61;5.0;987.4;44.541;35.958317;-83.92451;769.54;NaN;;0.0;66.84554;;5 / 18;82007;2022-10-26 21:28:32:109
3.1507;2.333;8.9109;3.8604;3.1735;8.4378;1.0282;0.1827;-1.5629;0.3259;-0.3759;0.2333;4.0;-26.78;8.7;-27.73;32.33;-18.88;-24.58;5.0;987.35;45.249;35.958317;-83.92451;769.54;NaN;;0.0;66.84554;;5 / 18;82507;2022-10-26 21:28:32:609
4.1596;5.0707;12.539;3.618;4.3469;8.0116;0.4583;2.6308;0.9875;-0.1761;-0.082;0.3746;3.0;-18.88;5.78;-38.27;5.41;-26.05;-23.5;5.0;987.33;40.9;35.958317;-83.92451;769.54;NaN;;0.0;66.84554;;5 / 18;83007;2022-10-26 21:28:33:109
1.4868;4.9104;6.3263;2.3178;5.9389;7.4517;-0.9052;-2.7787;-1.9028;-0.1761;-0.2134;-0.1459;2.0;-12.08;-10.14;-44.01;355.32;-37.27;-17.28;5.0;987.31;41.934;35.958317;-83.9245;769.48;NaN;;0.0;61.49493;;5 / 18;83507;2022-10-26 21:28:33:609
6.2868;3.3494;4.5643;3.9149;3.9284;8.0877;3.3557;0.6192;6.5094;0.7436;-0.9692;-1.1621;3.0;-12.81;-18.97;-42.13;260.92;-22.44;-24.71;5.0;987.3;39.479;35.958317;-83.9245;769.48;NaN;;0.0;61.49493;;5 / 18;84007;2022-10-26 21:28:34:109
1.7106;3.6619;9.0987;3.5484;2.9093;8.6669;-1.3967;0.9251;0.2535;-0.307;0.3282;0.1607;8.0;-21.17;-18.36;-34.44;129.98;-17.26;-22.27;5.0;987.31;37.926;35.958313;-83.924484;769.29;NaN;;0.0;59.860504;;5 / 18;84507;2022-10-26 21:28:34:609
1.4868;0.3975;8.8941;2.1832;2.5874;9.2038;-0.6852;-3.0876;-1.3191;-0.1364;-0.3897;-1.0068;17.0;-24.81;-16.58;-31.33;112.97;-15.26;-15.11;5.0;987.29;43.867;35.958313;-83.924484;769.29;NaN;;0.0;59.860504;;5 / 18;85007;2022-10-26 21:28:35:109
0.8465;-0.5387;9.1238;1.9364;0.9491;9.5666;-0.1152;-1.2187;-0.0506;-2.3415;0.7424;-2.7885;19.0;-21.82;-29.68;-21.19;143.78;-15.31;-14.1;5.0;987.29;39.307;35.958313;-83.92447;769.18;NaN;;0.0;54.49578;;4 / 18;85507;2022-10-26 21:28:35:609
-2.4395;-0.0048;11.0357;1.8889;0.593;9.6047;-1.4504;-1.159;-0.6246;-1.2513;0.1075;-1.6738;22.0;-2.32;-31.91;-24.62;184.45;-8.43;-9.55;5.0;987.26;38.613;35.958313;-83.92447;769.18;NaN;;0.0;54.49578;;4 / 18;86007;2022-10-26 21:28:36:109
0.6966;0.6332;6.6126;-0.1804;1.2578;9.724;2.1392;-0.9512;-3.3411;0.9428;0.9494;0.3309;24.0;26.33;-0.26;-37.22;272.84;-2.22;-2.96;5.0;987.21;41.782;35.958313;-83.92447;769.18;NaN;;0.0;54.49578;;4 / 18;86507;2022-10-26 21:28:36:609
3.1472;-1.1157;15.6227;0.4562;1.598;9.6648;-1.6072;0.8907;0.1497;-0.0224;-1.1555;-0.1164;25.0;38.87;-11.12;-35.74;261.6;-8.19;0.25;5.0;987.24;35.488;35.9583;-83.92446;768.87;NaN;;0.0;51.383537;;4 / 18;87007;2022-10-26 21:28:37:109
0.7744;2.3605;9.3682;2.4108;0.8925;9.4637;-0.6227;0.664;0.7957;-0.0343;-0.3644;0.1568;12.0;33.75;-20.38;-32.98;247.56;-7.31;-12.71;5.0;987.27;36.341;35.9583;-83.92445;768.77;NaN;;0.0;52.02119;;4 / 18;87507;2022-10-26 21:28:37:609
0.7349;0.516;8.7553;1.1434;1.1794;9.6681;2.208;-3.2693;-2.8843;0.2452;0.1871;-0.2801;7.0;31.43;-14.23;-32.59;250.19;-1.41;-11.79;5.0;987.23;40.914;35.9583;-83.92445;768.77;NaN;;0.0;52.02119;;4 / 18;88007;2022-10-26 21:28:38:109
5.2908;1.2808;6.0882;2.5059;1.0579;9.4219;1.681;-1.5961;1.2584;0.2362;-0.2392;-0.9674;6.0;19.13;-18.97;-20.46;233.59;-6.19;-14.89;5.0;987.23;42.509;35.9583;-83.92445;768.77;NaN;;0.0;52.02119;;4 / 18;88507;2022-10-26 21:28:38:609
2.0626;0.3173;10.2;3.1031;0.3886;9.2946;-1.4811;0.2061;3.5491;-0.9338;0.0986;-0.2301;6.0;16.73;-13.67;-24.32;243.65;-6.87;-19.18;5.0;987.23;43.603;35.9583;-83.92445;768.77;NaN;;0.0;52.02119;;4 / 18;89007;2022-10-26 21:28:39:109
5.103;1.0965;12.5892;0.9566;1.8254;9.5877;-0.908;-0.904;-0.8562;-0.0071;-0.0221;0.6556;8.0;21.64;-3.0;-28.29;274.25;-10.73;-5.7;5.0;987.21;41.458;35.9583;-83.92445;768.77;NaN;;0.0;52.02119;;4 / 18;89508;2022-10-26 21:28:39:610
1.7752;1.6436;8.3459;3.1482;1.4417;9.175;-0.9666;-0.4777;-2.0068;-0.0746;-0.3539;-0.0965;14.0;22.14;-3.02;-28.5;270.18;-8.73;-19.19;5.0;987.17;47.691;35.9583;-83.92445;768.77;NaN;;0.0;52.02119;;4 / 18;90007;2022-10-26 21:28:40:109
2.8896;1.4928;7.5616;3.9664;2.407;8.6397;0.1542;-2.1596;0.4289;0.9341;0.2986;0.1193;15.0;16.52;-8.44;-37.31;267.7;-14.21;-24.66;5.0;987.13;43.251;35.9583;-83.92445;768.77;NaN;;0.0;52.02119;;4 / 18;90508;2022-10-26 21:28:40:610
5.2908;3.1352;7.6828;5.1287;2.4877;7.9798;0.3615;0.8617;-1.54;0.3167;-0.0624;-0.8995;14.0;-4.11;-31.2;-27.06;206.28;-14.16;-34.22;5.0;987.15;47.244;35.9583;-83.92445;768.77;NaN;;0.0;52.02119;;4 / 18;91007;2022-10-26 21:28:41:109
3.9108;2.6838;6.4738;4.3795;3.0583;8.2241;0.0516;-0.3208;-3.8852;0.8246;0.6673;0.4882;9.0;-33.37;-47.74;-7.91;147.8;-17.65;-30.74;5.0;987.1;48.017;35.9583;-83.92445;768.77;NaN;;0.0;52.02119;;4 / 18;91507;2022-10-26 21:28:41:609
4.1501;2.0219;5.9172;5.1954;3.1406;7.7016;1.9431;0.4767;1.8294;0.405;-0.0298;-0.5187;3.0;-50.27;-26.01;-3.64;112.96;-15.54;-32.67;5.0;987.11;45.542;35.9583;-83.92445;768.77;NaN;;0.0;52.02119;;4 / 18;92007;2022-10-26 21:28:42:109
5.5376;4.3322;9.8877;4.5992;4.4076;7.4559;0.1258;-0.1254;2.3789;0.6284;0.4761;0.8942;3.0;-22.86;1.52;-9.47;59.87;-20.05;-31.58;5.0;987.08;44.235;35.958313;-83.92447;768.57;NaN;;0.0;38.321045;;4 / 18;92507;2022-10-26 21:28:42:609
5.522;3.3123;9.064;3.9583;2.9462;8.4748;1.6041;-0.5371;1.3866;-1.0671;-0.1508;-0.2029;4.0;2.01;-6.36;-22.65;289.74;-25.55;-20.57;5.0;987.07;45.407;35.958313;-83.92447;768.57;NaN;;0.0;38.321045;;4 / 18;93007;2022-10-26 21:28:43:109
5.7996;3.7995;11.2056;3.7268;3.0485;8.5433;0.005;1.6422;0.1819;-0.7853;-0.4442;0.0797;6.0;20.49;-17.62;-38.64;263.89;-27.14;-24.79;5.0;987.04;43.199;35.958313;-83.92448;768.65;NaN;;0.0;36.8475;;4 / 18;93507;2022-10-26 21:28:43:609
2.551;4.0771;10.0229;2.6784;2.9192;8.9708;-0.4582;-0.3758;-0.955;-0.4328;-0.1154;-0.4413;16.0;21.88;-19.95;-43.84;258.79;-20.07;-18.99;5.0;987.02;42.548;35.958313;-83.92448;768.65;NaN;;0.0;36.8475;;4 / 18;94007;2022-10-26 21:28:44:109
6.4989;3.5803;4.107;4.0293;3.3904;8.2729;2.0325;-0.8693;0.7147;-1.6411;-0.2186;-2.1067;27.0;16.01;-9.81;-44.06;273.18;-20.23;-25.97;5.0;987.04;45.469;35.958313;-83.92448;768.65;NaN;;0.0;36.8475;;4 / 18;94507;2022-10-26 21:28:44:609
3.8713;1.5957;6.853;3.1633;4.402;8.1723;3.3999;-1.8723;4.2036;0.1923;-0.3389;-0.7014;39.0;2.83;-1.56;-38.57;309.78;-26.67;-21.16;5.0;987.07;49.375;35.958313;-83.92448;768.65;NaN;;0.0;36.8475;;4 / 18;95008;2022-10-26 21:28:45:110
4.3346;2.8813;5.9351;4.006;4.8533;7.5212;0.2199;-1.8304;-0.7138;-1.8642;-2.1208;-1.1425;45.0;0.96;0.13;-35.19;310.97;-29.66;-28.04;5.0;987.02;43.277;35.958313;-83.92448;768.65;NaN;;0.0;36.8475;;4 / 18;95507;2022-10-26 21:28:45:609
2.4371;4.4315;10.6801;3.1046;3.0542;8.7866;-1.0003;1.1079;2.1654;0.9209;0.0584;0.5443;21.0;-5.68;15.17;-30.11;346.14;-13.99;-21.46;5.0;987.04;47.005;35.958313;-83.92448;768.65;NaN;;0.0;36.8475;;4 / 18;96007;2022-10-26 21:28:46:109
1.3059;4.4351;9.1023;1.7142;4.6847;8.4431;0.2903;-2.6855;-1.6542;-0.0091;-0.5205;-0.2604;4.0;3.21;6.36;-8.98;332.79;-28.54;-11.48;5.0;987.01;41.975;35.958313;-83.92448;768.65;NaN;;0.0;36.8475;;4 / 18;96508;2022-10-26 21:28:46:610
4.6193;-0.0203;7.6289;3.5247;1.33;9.0542;1.832;-0.4782;-1.2039;0.0744;0.0822;-0.984;4.0;-7.16;-7.63;7.63;131.68;-8.35;-23.72;5.0;987.02;43.517;35.958313;-83.92448;768.65;NaN;;0.0;36.8475;;4 / 18;97007;2022-10-26 21:28:47:109
2.3521;0.128;8.8522;2.1237;1.5647;9.4452;-0.4704;-1.8502;5.1278;-0.9688;1.4857;0.0898;5.0;-13.24;-22.89;9.04;146.27;3.2;-18.26;5.0;987.01;44.477;35.958313;-83.92448;768.65;NaN;;0.0;36.8475;;4 / 18;97507;2022-10-26 21:28:47:609
4.9989;0.4454;9.7176;0.2779;0.4271;9.7934;3.4778;-0.2818;0.1121;-0.3838;-1.4972;-0.115;8.0;-19.58;-26.7;0.69;143.96;-7.91;6.19;5.0;986.98;42.616;35.958313;-83.92448;768.65;NaN;;0.0;36.8475;;4 / 18;98007;2022-10-26 21:28:48:109
-1.2293;-1.8817;14.1957;3.3471;-2.2231;8.9457;-4.563;1.0721;2.8533;-0.715;0.0276;-0.5956;12.0;-27.39;-28.93;-0.62;140.82;13.1;-20.51;5.0;986.99;44.486;35.958313;-83.92448;768.65;NaN;;0.0;36.8475;;4 / 18;98507;2022-10-26 21:28:48:609
0.2477;-0.4956;5.4419;0.2182;3.2188;9.2608;1.0993;-4.453;-1.8494;-0.1991;0.6896;-0.0047;13.0;-19.78;-13.07;-2.77;120.45;-12.81;-8.23;5.0;986.96;48.98;35.958313;-83.92448;768.65;NaN;;0.0;36.8475;;4 / 18;99007;2022-10-26 21:28:49:109
3.6954;1.1157;8.0178;2.8375;-0.8553;9.3481;1.2795;2.4595;-0.6024;0.411;-0.2467;-0.823;11.0;-5.38;-11.55;-7.73;170.14;9.73;-17.75;5.0;986.92;48.523;35.958313;-83.92448;768.65;NaN;;0.0;36.8475;;4 / 18;99507;2022-10-26 21:28:49:609
2.1535;-0.0897;8.5612;2.6241;1.2446;9.3667;-0.7172;-1.2108;-0.1604;0.9939;0.4103;-0.3519;21.0;-4.82;-13.16;-10.35;173.65;4.28;-18.67;5.0;986.91;43.079;35.958313;-83.92448;768.65;NaN;;0.0;36.8475;;4 / 18;100007;2022-10-26 21:28:50:109
4.5595;3.3111;4.8912;2.9031;2.2318;9.0973;1.2282;-1.1144;-1.0365;1.5882;-0.6215;-0.2459;18.0;-0.19;-14.31;-11.87;198.3;-13.15;-17.7;5.0;986.9;49.496;35.958313;-83.92448;768.65;NaN;;0.0;36.8475;;4 / 18;100507;2022-10-26 21:28:50:609
2.4072;3.0105;5.9423;3.7436;4.0514;8.1082;-0.5114;-1.0612;3.1166;0.6474;0.0773;0.3107;8.0;-9.84;-17.91;-9.6;160.53;-14.34;-24.26;5.0;986.9;47.518;35.958313;-83.92448;768.65;NaN;;0.0;36.8475;;4 / 18;101007;2022-10-26 21:28:51:109
2.3509;9.3215;6.4065;4.1636;5.5615;6.9214;-0.6242;3.4374;-1.1357;0.3356;-1.1301;0.532;7.0;-17.51;-21.02;-7.59;125.79;-34.55;-31.03;5.0;986.85;41.779;35.958313;-83.92448;768.65;NaN;;0.0;36.8475;;4 / 18;101508;2022-10-26 21:28:51:610
2.2504;4.5153;5.8774;0.9759;5.4116;8.1199;1.6554;-1.3674;-2.0228;0.3014;0.0012;-0.6423;8.0;-25.28;-16.91;-7.5;111.09;-29.47;-8.6;5.0;986.83;42.414;35.958313;-83.92448;768.65;NaN;;0.0;36.8475;;4 / 18;102006;2022-10-26 21:28:52:108
0.1017;4.0232;12.8827;-0.52;5.7878;7.8995;0.3788;1.3643;-1.6247;-0.6713;0.0111;-0.7891;13.0;-22.41;-30.06;-17.89;122.03;-36.17;3.77;5.0;986.85;41.666;35.958305;-83.924484;768.65;NaN;;0.0;27.481922;;4 / 18;102508;2022-10-26 21:28:52:610
0.772;6.111;8.5409;0.5258;5.8637;7.8429;-0.1454;1.0922;0.8416;-0.5781;-1.2099;-0.686;40.0;-12.19;-35.91;-22.67;137.6;-37.81;4.08;5.0;986.84;43.265;35.958305;-83.924484;768.65;NaN;;0.0;27.481922;;4 / 18;103007;2022-10-26 21:28:53:109
0.4693;3.4223;7.6516;2.0479;5.0692;8.1412;-1.9787;-1.3412;-0.7762;0.6647;-0.6188;-0.1729;144.0;2.76;-39.47;-34.12;188.55;-28.0;0.38;5.0;986.84;42.403;35.958305;-83.924484;768.65;NaN;;0.0;27.481922;;5 / 18;103507;2022-10-26 21:28:53:609
2.4419;3.7983;5.8666;2.2038;5.0226;8.1294;0.1936;-1.1491;-3.0751;-0.6732;-0.8863;-0.9564;242.0;6.71;-39.58;-39.6;224.16;-28.14;-15.54;5.0;986.8;41.858;35.958305;-83.924484;768.65;NaN;;0.0;27.481922;;5 / 18;104008;2022-10-26 21:28:54:110
0.4561;1.9606;9.9631;2.3285;2.2339;9.2606;-0.0599;0.7113;-1.0939;-0.7064;-0.5035;-1.0863;197.0;13.05;-36.64;-38.83;222.01;-17.53;-14.64;5.0;986.84;46.684;35.958305;-83.924484;768.65;NaN;;0.0;27.481922;;6 / 18;104507;2022-10-26 21:28:54:609
2.1212;2.272;7.9866;1.0945;3.0072;9.2698;0.5303;-1.6704;-1.1976;0.4481;0.388;-0.2847;94.0;16.59;-26.32;-43.72;237.97;-13.14;-12.64;5.0;986.84;44.664;35.958305;-83.924484;768.65;NaN;;0.0;27.481922;;6 / 18;105007;2022-10-26 21:28:55:109
3.3924;1.0857;9.0305;3.0446;1.5586;9.1908;0.5994;0.1585;-0.8902;-0.8449;-0.4968;-1.3943;59.0;17.79;-28.69;-42.04;234.97;-12.47;-17.34;5.0;986.83;45.417;35.958305;-83.924484;768.65;NaN;;0.0;27.481922;;8 / 18;105508;2022-10-26 21:28:55:610
2.4263;0.7421;8.6629;3.5021;2.0623;8.9248;0.7848;-0.9686;2.5805;1.504;-0.0948;0.1878;24.0;13.29;-14.74;-50.02;245.07;-1.15;-21.57;5.0;986.81;45.441;35.95829;-83.92448;769.36;NaN;;0.0;18.501328;;8 / 18;106007;2022-10-26 21:28:56:109
3.1077;-0.7385;7.1548;3.6327;-0.6965;9.0823;1.7914;-0.8017;-0.7066;-1.668;-0.3729;-2.0212;22.0;7.31;-16.65;-44.49;229.26;4.07;-21.8;5.0;986.81;43.596;35.95833;-83.92446;769.25;NaN;;0.0;14.33606;;10 / 18;106508;2022-10-26 21:28:56:610
6.597;-2.5451;9.501;3.2203;0.5247;9.248;2.8372;-2.5932;2.7601;2.3628;0.3628;1.5693;39.0;-3.21;-0.19;-44.74;246.52;12.84;-30.89;5.0;986.8;45.105;35.95833;-83.92446;769.25;NaN;;0.0;14.33606;;10 / 18;107007;2022-10-26 21:28:57:109
4.8003;-1.3968;12.8396;5.355;-2.1579;7.927;3.0561;-0.0866;1.4611;-0.9081;-0.3427;-1.125;40.0;-2.27;8.74;-27.39;285.02;12.71;-34.04;5.0;986.81;47.161;35.958317;-83.92446;770.05;NaN;;0.0;16.257534;;10 / 18;107507;2022-10-26 21:28:57:609
7.1441;-1.1719;11.8029;4.7975;-0.4226;8.5426;-1.606;-1.5323;3.4176;2.7627;1.2156;0.9651;44.0;-16.46;27.51;-9.77;18.37;2.47;-29.32;5.0;986.77;48.03;35.958317;-83.92446;770.05;NaN;;0.0;16.257534;;10 / 18;108007;2022-10-26 21:28:58:109
3.2369;5.1628;2.2648;4.2538;3.8328;7.9615;1.2503;-4.9858;0.5059;1.3756;0.2298;0.7213;41.0;19.44;13.24;-27.71;304.91;-15.3;-16.33;5.0;986.71;54.552;35.95828;-83.92446;771.53;NaN;;0.0;16.477968;;13 / 18;108507;2022-10-26 21:28:58:609
7.1321;4.1847;3.8773;5.9626;6.087;4.8545;-0.3244;-0.5711;0.8466;2.3981;0.158;-0.5414;21.0;24.99;-11.36;-36.04;260.92;-24.23;-45.18;5.0;986.67;52.07;35.95828;-83.92446;771.53;NaN;;0.0;16.477968;;13 / 18;109006;2022-10-26 21:28:59:108
7.7234;6.0141;7.424;6.2349;3.5213;6.7005;1.9865;2.3719;2.3069;-0.2542;-1.0074;0.4248;19.0;28.76;-28.54;-38.04;242.68;-18.94;-40.33;5.0;986.67;51.559;35.958252;-83.92446;772.29;NaN;;0.0;14.947368;;12 / 18;109508;2022-10-26 21:28:59:610
3.8988;2.6958;3.5719;5.4276;6.1655;5.357;1.8421;-0.4632;4.6485;1.51;1.0904;-0.188;17.0;33.83;-23.76;-52.69;260.35;-38.96;-45.37;5.0;986.67;50.483;35.958252;-83.92446;772.29;NaN;;0.0;14.947368;;12 / 18;110007;2022-10-26 21:29:00:109
4.7354;2.953;10.9301;2.4195;1.4689;9.3893;1.6568;2.7799;1.794;-1.049;1.4818;1.0736;17.0;47.21;-28.44;-53.83;254.68;-20.92;-32.19;5.0;986.66;48.344;35.958233;-83.9245;771.7;NaN;;0.0;13.982828;;13 / 18;110509;2022-10-26 21:29:00:611
2.0004;1.1408;9.058;-1.2047;0.8438;9.6957;2.0736;-2.2808;-1.5325;0.5836;-0.8359;-1.3488;129.0;44.44;-22.65;-34.56;243.69;-4.94;7.08;5.0;986.63;55.038;35.958233;-83.9245;771.7;NaN;;0.0;13.982828;;13 / 18;111007;2022-10-26 21:29:01:109
-2.1224;1.1898;8.8618;-1.0233;2.5376;9.4172;0.7742;0.5141;4.7822;1.4033;0.7946;-1.1859;188.0;43.14;0.15;-30.11;280.12;-12.14;5.42;5.0;986.66;48.185;35.958233;-83.9245;771.7;NaN;;0.0;13.982828;;13 / 18;111508;2022-10-26 21:29:01:610
2.388;3.4283;10.3137;-0.6435;3.4352;9.1627;1.2456;0.7967;0.7038;-0.0042;0.4516;0.4074;193.0;25.95;12.26;-36.36;316.25;-20.51;4.02;5.0;986.63;45.778;35.95825;-83.9245;772.62;NaN;;0.0;12.707972;;13 / 18;112006;2022-10-26 21:29:02:108
0.1519;1.4031;9.2821;1.2915;1.3365;9.6289;0.0042;-0.3114;-1.7951;-0.2379;-0.208;-0.988;267.0;10.48;20.08;-42.0;330.81;-11.83;-7.72;5.0;986.58;46.921;35.95824;-83.924515;771.64;NaN;;0.0;12.788212;;13 / 18;112506;2022-10-26 21:29:02:608
-1.3621;1.488;7.558;-0.2826;2.1589;9.5619;-0.5216;-1.0988;-1.2463;-0.4158;0.0149;0.6735;276.0;-8.04;16.18;-47.31;16.44;-14.24;-0.02;5.0;986.55;48.712;35.95824;-83.924515;771.64;NaN;;0.0;12.788212;;13 / 18;113008;2022-10-26 21:29:03:110
0.6404;0.0861;8.7781;0.0308;1.2291;9.7293;0.7;-0.127;0.9554;-0.2467;-0.374;-0.051;264.0;-2.01;16.2;-49.41;4.79;-7.2;-0.18;5.0;986.55;50.48;35.95825;-83.92453;771.43;NaN;;0.0;13.121696;;13 / 18;113508;2022-10-26 21:29:03:610
-3.4534;0.4693;11.5277;-2.4811;1.4868;9.3704;0.0041;0.5928;0.4235;0.0267;0.5287;-0.1601;222.0;-1.65;13.43;-48.47;35.67;-8.72;14.83;5.0;986.55;50.424;35.95825;-83.92453;771.43;NaN;;0.0;13.121696;;13 / 18;114007;2022-10-26 21:29:04:109
-3.6619;1.9618;8.1832;-4.2881;2.4764;8.4647;-0.1279;-1.2074;-0.1417;0.1817;0.0865;0.3704;105.0;7.58;15.51;-44.7;22.22;-12.87;23.26;5.0;986.58;51.677;35.95825;-83.92454;770.25;NaN;;0.0;12.960249;;13 / 18;114507;2022-10-26 21:29:04:609