sep=;
ACCELEROMETER X (m/s²);ACCELEROMETER Y (m/s²);ACCELEROMETER Z (m/s²);GRAVITY X (m/s²);GRAVITY Y (m/s²);GRAVITY Z (m/s²);LINEAR ACCELERATION X (m/s²);LINEAR ACCELERATION Y (m/s²);LINEAR ACCELERATION Z (m/s²);GYROSCOPE X (rad/s);GYROSCOPE Y (rad/s);GYROSCOPE Z (rad/s);LIGHT (lux);MAGNETIC FIELD X (μT);MAGNETIC FIELD Y (μT);MAGNETIC FIELD Z (μT);ORIENTATION Z (azimuth °);ORIENTATION X (pitch °);ORIENTATION Y (roll °);PROXIMITY (i);ATMOSPHERIC PRESSURE (hPa);SOUND LEVEL (dB);LOCATION Latitude : ;LOCATION Longitude : ;LOCATION Altitude ( m);LOCATION Altitude-google ( m);LOCATION Altitude-atmospheric pressure ( m);LOCATION Speed ( Kmh);LOCATION Accuracy ( m);LOCATION ORIENTATION (°);Satellites in range;Time since start in ms ;YYYY-MO-DD HH-MI-SS_SSS
-0.0574;3.6619;9.3275;-1.6223;3.9742;8.8173;0.837;0.093;1.1549;0.0741;-2.0301;-1.0528;3.0;15.02;-25.97;-5.02;213.04;-26.26;20.44;5.0;987.74;29.115;35.959312;-83.92232;;NaN;;;2258.0613;;0 / 17;20;2022-10-24 21:12:25:317
-1.2461;4.6971;10.0421;-2.5768;3.7444;8.6896;1.3913;1.5738;0.072;0.2666;-1.1058;-0.9265;3.0;15.77;-27.19;-11.98;214.32;-19.72;8.39;5.0;987.72;43.039;35.959312;-83.92232;;NaN;;;2258.0613;;0 / 17;520;2022-10-24 21:12:25:817
-2.1404;-0.1005;11.1924;-2.2782;3.1298;9.0103;0.3567;0.4721;-1.1893;-0.7555;-0.1241;0.5098;2.0;28.89;-35.91;-15.58;225.21;-24.25;16.32;5.0;987.67;40.956;35.959312;-83.92232;;NaN;;;2258.0613;;0 / 17;1020;2022-10-24 21:12:26:317
-3.3864;-1.7752;14.0318;-1.3716;2.6715;9.3355;-2.5859;-1.5348;-0.5378;-0.024;-0.3852;2.0804;1.0;30.75;-46.05;-20.91;215.68;-18.14;13.6;5.0;987.65;50.563;35.959312;-83.92232;;NaN;;;2258.0613;;0 / 17;1520;2022-10-24 21:12:26:817
0.984;0.9948;6.4496;-1.5124;1.7272;9.5341;0.5543;-1.909;1.9181;-0.6402;-0.5861;-2.2067;1.0;40.18;-57.82;-29.29;214.46;-10.14;9.01;5.0;987.62;52.578;35.959312;-83.92232;;NaN;;;2258.0613;;0 / 17;2021;2022-10-24 21:12:27:318
-2.9937;0.65;10.5006;-1.5721;2.0727;9.4553;-0.6283;-1.436;1.8465;-0.4259;1.0549;0.8374;1.0;72.19;-20.59;-36.15;250.3;-13.54;2.64;5.0;987.61;51.564;35.959312;-83.92232;;NaN;;;2258.0613;;0 / 17;2520;2022-10-24 21:12:27:817
0.4442;0.4681;12.1944;-1.9563;2.0541;9.3874;0.8118;-0.5129;0.4072;-1.4805;-1.2687;-0.9758;1.0;79.09;-20.03;-17.98;260.38;-12.09;11.77;5.0;987.6;35.175;35.959312;-83.92232;;NaN;;;2258.0613;;0 / 17;3020;2022-10-24 21:12:28:317
-3.5671;-0.0526;10.71;-1.2184;2.5541;9.3895;0.1642;-1.0262;1.0561;0.5777;0.8961;0.3;2.0;80.23;-6.9;-28.41;264.87;-12.07;1.64;5.0;987.59;51.237;35.959312;-83.92232;;NaN;;;2258.0613;;0 / 17;3520;2022-10-24 21:12:28:817
0.1292;1.7082;7.4731;-2.2777;2.6139;9.1733;0.5126;-1.3152;1.2985;0.597;-0.629;-1.0012;2.0;80.63;-17.4;-12.39;263.82;-14.0;16.93;5.0;987.54;49.813;35.959312;-83.92232;;NaN;;;2258.0613;;0 / 17;4020;2022-10-24 21:12:29:317
-2.4479;2.9028;5.2454;-3.2145;2.3326;8.9664;0.102;0.1186;-0.5441;-1.8948;0.9519;-0.4684;3.0;74.23;-18.19;-12.02;265.78;-24.34;12.13;5.0;987.52;54.143;35.959312;-83.92232;;NaN;;;2258.0613;;0 / 17;4520;2022-10-24 21:12:29:817
-7.101;2.7736;10.1115;-5.1135;4.3151;7.1695;3.7938;-3.5325;4.1665;3.5408;2.2999;-0.7177;4.0;60.64;-11.02;-14.06;265.91;-12.36;18.14;5.0;987.53;39.292;35.959312;-83.92232;;NaN;;;2258.0613;;0 / 17;5021;2022-10-24 21:12:30:318
0.2309;1.9618;9.0927;-1.8727;1.5915;9.4937;1.8494;-0.6214;-1.3337;0.5588;-0.0027;-0.7938;4.0;49.65;-4.69;-23.59;270.88;-9.23;13.38;5.0;987.52;54.435;35.959312;-83.92232;;NaN;;;2258.0613;;0 / 17;5520;2022-10-24 21:12:30:817
-2.004;2.9435;7.8072;-2.2763;2.0706;9.3114;0.7457;0.3713;-1.3398;0.0859;-0.3375;-0.8313;4.0;38.79;-3.66;-45.77;287.54;-12.85;14.78;5.0;987.5;43.55;35.959312;-83.92232;;NaN;;;2258.0613;;0 / 17;6022;2022-10-24 21:12:31:319
-2.1117;1.3047;8.0859;-4.8166;1.4139;8.4245;-0.2429;-1.8973;3.8004;0.9762;-0.2882;-0.7448;3.0;33.36;-5.62;-51.71;302.35;-8.91;24.3;5.0;987.52;32.311;35.959312;-83.92232;;NaN;;;2258.0613;;0 / 17;6521;2022-10-24 21:12:31:818
-3.821;2.3916;8.219;-4.2443;2.4606;8.4913;-2.488;-0.6858;0.3804;0.526;-0.1002;-0.727;4.0;35.91;-14.16;-42.73;269.12;-14.19;26.5;5.0;987.48;42.201;35.959312;-83.92232;;NaN;;;2258.0613;;0 / 17;7021;2022-10-24 21:12:32:318
-6.3251;-2.0674;9.6876;-3.2177;1.4861;9.1438;-2.5644;-2.984;0.9714;0.9969;-0.3498;-1.4955;4.0;31.29;-14.01;-43.65;280.79;-17.11;23.27;5.0;987.52;35.829;35.959312;-83.92232;;NaN;;;2258.0613;;0 / 17;7521;2022-10-24 21:12:32:818
-5.1784;4.9594;11.6928;-0.5687;4.0176;8.9278;1.0576;0.7348;-1.1056;0.3157;0.3002;-0.3332;2.0;16.44;-2.57;-49.5;324.79;-24.18;3.65;5.0;987.46;34.319;35.959312;-83.92232;;NaN;;;2258.0613;;0 / 17;8020;2022-10-24 21:12:33:317
-0.8151;2.8872;9.1741;-1.4268;2.9322;9.2486;1.182;2.0652;-0.5849;-0.4417;0.1965;-0.0912;1.0;18.96;2.85;-54.99;332.65;-21.2;7.06;5.0;987.45;41.216;35.959312;-83.92232;;NaN;;;2258.0613;;0 / 17;8521;2022-10-24 21:12:33:818
-3.7804;0.3915;9.2653;-3.0977;2.9076;8.8386;-0.9116;0.2785;0.4789;-1.7573;0.6756;1.3728;1.0;24.73;15.68;-49.37;346.78;-17.25;19.31;5.0;987.44;48.256;35.959312;-83.92232;;NaN;;;2258.0613;;0 / 17;9020;2022-10-24 21:12:34:317
-2.077;3.2357;9.8279;-2.9386;2.8085;8.9246;1.0888;1.0953;0.3571;0.5672;-0.2755;-0.1116;2.0;33.81;23.33;-36.6;332.03;-14.12;19.12;5.0;987.43;38.071;35.959312;-83.92232;;NaN;;;2258.0613;;0 / 17;9520;2022-10-24 21:12:34:817
-2.5005;3.2716;9.5429;-1.1759;3.4618;9.0996;-2.9237;0.8091;1.1908;0.1257;-0.3577;-0.2102;2.0;21.6;27.56;-34.26;338.01;-18.43;10.4;5.0;987.36;47.698;35.959312;-83.92232;;NaN;;;2258.0613;;0 / 17;10020;2022-10-24 21:12:35:317
0.3784;7.3379;5.6919;-0.1228;5.9399;7.8021;0.3234;0.7545;-0.8526;0.4918;-0.2709;0.0968;1.0;8.53;28.89;-40.8;353.16;-34.37;4.59;5.0;987.37;37.992;35.959312;-83.92232;;NaN;;;2258.0613;;0 / 17;10520;2022-10-24 21:12:35:817
1.0822;4.5763;8.2956;-0.2569;4.2511;8.8336;1.5411;-0.0203;-1.4988;-0.1652;-0.0081;-0.4704;0.0;1.03;32.31;-44.08;359.24;-27.8;0.46;5.0;987.35;43.661;35.959312;-83.92232;;NaN;;;2258.0613;;0 / 17;11020;2022-10-24 21:12:36:317
-0.2788;1.8745;11.1494;-1.6378;2.3527;9.3783;1.3012;-0.2892;-1.1255;0.5708;-0.1185;-0.4917;1.0;-1.29;36.81;-37.03;9.54;-14.06;10.16;5.0;987.35;39.746;35.959312;-83.92232;;NaN;;;2258.0613;;0 / 17;11520;2022-10-24 21:12:36:817
-0.7504;-0.5471;9.2785;-0.2938;-0.7245;9.7754;-0.5959;-0.9705;0.6131;0.0588;-0.0198;-0.4992;4.0;-6.06;39.49;-28.67;10.58;4.24;1.72;5.0;987.35;42.315;35.959312;-83.92232;;NaN;;;2258.0613;;0 / 17;12020;2022-10-24 21:12:37:317
-0.9278;-0.5471;7.9029;-1.9157;-0.8449;9.5805;0.2582;-1.1251;-0.4721;0.3948;0.1144;0.0058;12.0;-7.99;35.72;-33.17;23.21;5.41;10.94;5.0;987.3;41.092;35.959312;-83.92232;;NaN;;;2258.0613;;0 / 17;12520;2022-10-24 21:12:37:817
-1.13;-0.8139;6.8447;-2.209;1.1258;9.4881;-1.7036;-2.5936;4.0187;1.5632;-0.409;-1.0409;23.0;-4.41;36.69;-44.29;18.46;-6.59;13.11;5.0;987.29;32.446;35.959312;-83.92232;;NaN;;;2258.0613;;0 / 17;13020;2022-10-24 21:12:38:317
-2.1619;0.3604;10.704;-2.7967;1.0735;9.3379;0.505;-0.4273;1.452;0.1316;0.218;-0.6073;19.0;-21.79;26.21;-54.84;44.12;-9.76;11.98;5.0;987.3;47.452;35.959312;-83.92232;;NaN;;;2258.0613;;0 / 17;13520;2022-10-24 21:12:38:817
-3.7313;-1.3944;10.5939;-2.9023;0.3626;9.3603;-0.4396;-1.6799;2.525;-0.2485;0.1302;-1.6854;10.0;-28.18;-3.86;-54.51;93.14;-2.12;17.23;5.0;987.3;30.933;35.959312;-83.92232;;NaN;;;2258.0613;;0 / 17;14021;2022-10-24 21:12:39:318
-0.1747;1.1575;9.0616;-0.8895;1.4913;9.6517;0.5267;-0.0845;-0.5039;-0.129;0.674;-0.2359;12.0;-14.31;-14.31;-36.68;118.92;-8.32;2.4;5.0;987.29;46.116;35.959312;-83.92232;;NaN;;;2258.0613;;0 / 17;14520;2022-10-24 21:12:39:817
-0.2285;-2.2672;11.5253;-1.5795;0.6327;9.6579;1.6561;-0.3234;0.4698;-0.5094;-0.0518;-0.8942;18.0;-19.84;-18.68;-34.82;123.71;-3.7;9.29;5.0;987.31;32.547;35.959312;-83.92232;;NaN;;;2258.0613;;0 / 17;15021;2022-10-24 21:12:40:318
-0.0885;1.8135;10.5688;-1.4284;0.7401;9.6738;0.2377;-0.5793;1.9253;0.287;-0.3909;-0.8202;13.0;-6.82;-21.3;-30.66;147.28;-3.04;10.39;5.0;987.3;45.804;35.959312;-83.92232;;NaN;;;2258.0613;;0 / 17;15521;2022-10-24 21:12:40:818
-1.646;3.9861;7.873;-1.8533;2.5196;9.2945;-0.5025;1.3133;-1.5294;0.3331;0.1995;-0.4426;3.0;5.42;-21.69;-25.82;183.12;-12.47;9.02;5.0;987.29;33.548;35.959312;-83.92232;;NaN;;;2258.0613;;0 / 17;16021;2022-10-24 21:12:41:318
-3.3063;2.3605;6.6461;-1.791;3.1512;9.1122;-0.9053;-1.671;-0.4898;0.7166;-0.2069;-0.1027;2.0;8.7;-22.01;-29.64;190.57;-13.34;11.84;5.0;987.26;34.423;35.959312;-83.92232;;NaN;;;2258.0613;;0 / 17;16522;2022-10-24 21:12:41:819
-3.1364;2.0136;11.1314;-2.4213;2.2989;9.2208;1.2559;1.9399;0.3365;-0.0055;0.1888;-0.257;1.0;14.66;-24.49;-36.99;203.86;-14.22;13.42;5.0;987.23;39.561;35.959312;-83.92232;;NaN;;;2258.0613;;0 / 17;17020;2022-10-24 21:12:42:317
-1.7369;3.3458;10.448;-0.3792;2.4358;9.4917;0.2528;-0.4689;-0.7857;-0.4376;0.9874;0.2375;1.0;13.09;-20.62;-43.78;227.62;-14.12;3.39;5.0;987.22;43.69;35.959312;-83.92232;;NaN;;;2258.0613;;0 / 17;17520;2022-10-24 21:12:42:817
-1.2903;4.0424;9.4053;-2.0946;2.5191;9.2432;0.7164;0.1398;-0.0897;0.0658;0.5734;-0.214;1.0;16.44;-13.63;-53.1;276.62;-15.29;8.43;5.0;987.19;36.78;35.959312;-83.92232;;NaN;;;2258.0613;;0 / 17;18021;2022-10-24 21:12:43:318
-6.8207;0.6069;14.738;-2.3698;0.8606;9.477;-0.1439;-0.1827;-0.4049;0.2171;0.891;-0.2011;1.0;25.78;-8.53;-54.68;249.86;-5.01;15.68;5.0;987.18;40.548;35.959312;-83.92232;;NaN;;;2258.0613;;0 / 17;18521;2022-10-24 21:12:43:818
-1.9582;2.8896;6.5037;-3.2662;2.5046;8.9011;0.9296;-0.6999;-0.5484;0.5672;0.0262;-0.27;2.0;42.9;-2.89;-43.52;294.39;-14.8;20.15;5.0;987.16;42.839;35.959312;-83.92232;;NaN;;;2258.0613;;0 / 17;19021;2022-10-24 21:12:44:318
-4.1596;-0.7744;10.5413;-3.3245;1.0452;9.1665;-2.3046;-2.9625;3.2976;0.2265;0.3241;-0.3241;2.0;47.89;-3.62;-35.03;281.24;-12.61;19.06;5.0;987.15;39.811;35.959312;-83.92232;;NaN;;;2258.0613;;0 / 17;19521;2022-10-24 21:12:44:818
-2.6049;4.0555;8.8798;-2.9839;3.2354;8.7635;0.7368;0.2445;0.0256;0.555;0.3057;0.5227;3.0;56.36;2.74;-28.89;292.23;-19.26;18.8;5.0;987.15;38.56;35.959312;-83.92232;;NaN;;;2258.0613;;0 / 17;20020;2022-10-24 21:12:45:317
-0.9159;2.5196;9.253;-2.7126;3.0651;8.9116;1.7391;-0.1216;-0.2001;0.0696;-0.4479;-1.0084;4.0;52.67;-3.3;-23.53;281.42;-19.65;18.01;5.0;987.11;34.096;35.959312;-83.92232;;NaN;;;2258.0613;;0 / 17;20520;2022-10-24 21:12:45:817
-3.2812;3.0897;8.8271;-3.2179;3.382;8.6242;0.3152;-2.4181;0.1991;0.7682;0.0041;-0.4229;4.0;25.95;17.44;-29.1;333.45;-20.17;20.46;5.0;987.15;51.468;35.959312;-83.92232;;NaN;;;2258.0613;;0 / 17;21020;2022-10-24 21:12:46:317
-2.2373;3.2752;7.6086;-3.3257;3.3665;8.5893;0.9094;-0.157;-0.9798;0.1185;-0.2688;-0.7064;2.0;1.54;11.53;-41.06;27.59;-21.44;21.64;5.0;987.12;31.449;35.959312;-83.92232;;NaN;;;2258.0613;;0 / 17;21520;2022-10-24 21:12:46:817
-3.5539;3.699;6.719;-3.828;4.143;8.022;-1.4041;-1.3011;1.2918;0.9695;-0.9869;-1.3572;2.0;-11.51;-5.92;-35.94;79.11;-23.65;26.95;5.0;987.14;47.949;35.959312;-83.92232;;NaN;;;2258.0613;;0 / 17;22020;2022-10-24 21:12:47:317
-8.0955;4.2939;10.3834;-5.4109;5.3211;6.2112;-0.6728;-0.3635;2.6312;0.046;0.6438;-0.7358;1.0;0.26;-13.14;-15.22;114.85;-33.94;32.11;5.0;987.13;45.54;35.959312;-83.92232;;NaN;;;2258.0613;;0 / 17;22520;2022-10-24 21:12:47:817
-7.1871;2.0171;10.0026;-5.4693;3.7533;7.2228;0.0734;2.1519;-0.4371;-0.4276;-0.4454;-1.1705;1.0;-6.77;25.24;-18.88;32.71;-29.29;38.49;5.0;987.13;47.37;35.959312;-83.92232;;NaN;;;2258.0613;;0 / 17;23021;2022-10-24 21:12:48:318
-8.1182;2.5343;7.794;-5.3418;2.8517;7.7138;-0.176;-0.471;0.5886;-0.1235;0.7758;0.1284;0.0;-51.81;10.48;-13.54;84.07;-14.89;33.41;5.0;987.12;43.188;35.959312;-83.92232;;NaN;;;2258.0613;;0 / 17;23521;2022-10-24 21:12:48:818
-6.1672;3.5456;8.5887;-6.1677;3.8789;6.5638;1.2904;0.4982;1.4929;0.4316;0.3298;-0.0764;0.0;-35.36;-22.74;-22.05;119.8;-22.46;40.14;5.0;987.08;45.934;35.959312;-83.92232;;NaN;;;2258.0613;;0 / 17;24020;2022-10-24 21:12:49:317
-5.9853;3.2034;8.5074;-5.4633;3.0293;7.5595;0.7895;-0.122;-0.2212;0.2946;-0.0563;-0.6225;0.0;-23.29;-28.72;-20.29;131.52;-17.74;36.56;5.0;987.05;50.139;35.959312;-83.92232;;NaN;;;2258.0613;;0 / 17;24521;2022-10-24 21:12:49:818
-5.0539;3.4582;5.9399;-6.2087;3.0391;6.956;0.6962;-0.5269;-2.4595;-0.0822;0.3959;0.5556;0.0;4.22;-17.16;-12.62;155.3;-18.05;41.75;5.0;987.04;42.321;35.959312;-83.92232;;NaN;;;2258.0613;;0 / 17;25020;2022-10-24 21:12:50:317
-3.6583;1.6974;6.8518;-5.0005;2.1551;8.1561;0.3914;-0.4474;-1.2774;0.1349;-0.1966;0.161;1.0;5.36;-8.1;-18.19;127.96;-11.18;33.07;5.0;987.03;47.437;35.959312;-83.92232;;NaN;;;2258.0613;;0 / 17;25520;2022-10-24 21:12:50:817
-3.8593;1.7393;4.9654;-7.051;2.7021;6.2572;-1.0094;-1.8067;2.2145;-0.664;0.5186;1.1015;3.0;6.04;-6.19;-22.71;91.41;-15.99;48.41;5.0;987.01;45.289;35.959312;-83.92232;;NaN;;;2258.0613;;0 / 17;26020;2022-10-24 21:12:51:317
-7.1955;0.9422;5.8271;-6.1732;1.5906;7.452;-2.0128;-0.8926;2.8964;0.6502;-0.6948;-0.9596;4.0;5.19;-1.41;-26.85;76.95;-11.26;43.83;5.0;987.02;39.602;35.959312;-83.92232;;NaN;;;2258.0613;;0 / 17;26520;2022-10-24 21:12:51:817
-3.6197;-0.1938;7.558;-6.0854;1.9056;7.4503;-1.7051;0.6875;1.5774;-0.8194;-0.3475;0.5844;5.0;-3.19;-3.24;-34.05;85.67;-11.2;39.24;5.0;986.96;44.639;35.959312;-83.92232;;NaN;;;2258.0613;;0 / 17;27020;2022-10-24 21:12:52:317
-4.9857;-0.2524;11.3085;-4.8885;1.1228;8.4269;1.1721;2.4268;-0.187;-0.8905;-0.4782;-0.4612;5.0;-12.47;6.32;-40.09;73.13;-6.57;30.12;5.0;986.96;33.967;35.959312;-83.92232;;NaN;;;2258.0613;;0 / 17;27520;2022-10-24 21:12:52:817
-6.9452;2.3163;10.9301;-4.3175;2.5824;8.4179;-1.5548;0.9202;1.4873;-0.9588;-0.545;-0.4335;7.0;-20.76;-2.4;-39.32;82.68;-15.27;27.15;5.0;986.92;41.943;35.959312;-83.92232;;NaN;;;2258.0613;;0 / 17;28020;2022-10-24 21:12:53:317
-2.1033;3.6305;10.686;-2.4712;3.123;8.9616;0.7393;0.6682;-1.0733;-0.1294;-0.6202;-0.241;8.0;-14.06;-7.78;-37.8;83.0;-18.57;15.42;5.0;986.91;39.988;35.959312;-83.92232;;NaN;;;2258.0613;;0 / 17;28521;2022-10-24 21:12:53:818
-1.5622;4.9857;8.371;-1.639;3.5513;8.9929;2.0205;0.1891;0.4157;0.4536;-0.0024;-0.7942;7.0;-5.85;-7.11;-36.13;66.1;-18.83;7.26;5.0;986.92;41.97;35.959312;-83.92232;;NaN;;;2258.0613;;0 / 17;29020;2022-10-24 21:12:54:317
-3.1113;1.6436;8.0656;-3.562;1.7549;8.9668;0.7699;-0.6479;-1.0145;0.4687;-0.2606;-0.9173;7.0;12.06;1.22;-37.52;19.56;-10.31;21.67;5.0;986.89;54.111;35.959312;-83.92232;;NaN;;;2258.0613;;0 / 17;29520;2022-10-24 21:12:54:817
-3.3135;0.5064;10.4468;-3.4271;1.5926;9.0493;-0.1821;-1.5633;1.099;0.5224;-0.6835;-0.969;9.0;9.11;8.81;-38.61;19.4;-9.35;20.74;5.0;986.86;43.118;35.959312;-83.92232;;NaN;;;2258.0613;;0 / 17;30021;2022-10-24 21:12:55:318
-3.2931;2.0171;8.8834;-3.4551;2.2505;8.8977;-0.1268;-1.1376;2.5838;0.1859;-0.1069;-0.1342;6.0;-3.75;7.95;-42.51;46.68;-14.6;20.23;5.0;986.89;44.78;35.959312;-83.92232;;NaN;;;2258.0613;;0 / 17;30521;2022-10-24 21:12:55:818
-2.0435;1.0403;10.515;-3.4807;2.6195;8.786;0.927;-0.4302;1.1464;0.6196;-0.5524;-0.8918;6.0;-21.19;-1.86;-55.5;76.13;-15.49;21.61;5.0;986.9;40.091;35.959312;-83.92232;;NaN;;;2258.0613;;0 / 17;31021;2022-10-24 21:12:56:318
-4.0196;3.8641;9.009;-4.0155;4.7731;7.5673;0.3488;-0.1434;0.6572;0.3687;0.602;-0.0071;6.0;-17.33;-37.44;-27.51;130.65;-29.13;27.95;5.0;986.89;34.419;35.959312;-83.92232;;NaN;;;2258.0613;;0 / 17;31520;2022-10-24 21:12:56:817
-4.5021;3.3888;9.7403;-4.8431;4.5567;7.2077;1.2178;0.6701;1.193;0.3913;0.2521;-0.7836;4.0;-9.86;-49.31;-2.18;168.24;-27.69;33.9;5.0;986.88;33.36;35.959312;-83.92232;;NaN;;;2258.0613;;0 / 17;32020;2022-10-24 21:12:57:317
-7.3295;3.1938;7.3056;-4.6721;3.8943;7.6926;-2.2502;-0.0645;0.3116;0.4143;-0.1425;-0.2533;3.0;13.41;-44.12;7.93;200.35;-21.55;29.44;5.0;986.86;34.681;35.959312;-83.92232;;NaN;;;2258.0613;;0 / 17;32521;2022-10-24 21:12:57:818
-3.7648;5.0647;7.5174;-4.4637;3.5316;7.9858;0.7773;0.2453;-2.2346;0.3363;0.0908;-0.2321;1.0;23.04;-36.04;3.99;215.57;-21.11;29.2;5.0;986.84;39.769;35.959312;-83.92232;;NaN;;;2258.0613;;0 / 17;33020;2022-10-24 21:12:58:317
-5.3952;2.8669;7.1118;-3.2482;2.8695;8.7969;0.2205;-0.0421;-0.7932;0.1968;-0.262;-0.0199;1.0;23.48;-32.36;-5.91;216.22;-17.01;20.27;5.0;986.81;42.059;35.959312;-83.92232;;NaN;;;2258.0613;;0 / 17;33520;2022-10-24 21:12:58:817
-3.3996;4.4925;7.0496;-5.3063;2.8876;7.725;0.6472;0.4143;-0.4642;0.1977;-0.0214;-0.029;1.0;23.64;-27.41;-6.51;218.2;-17.12;34.48;5.0;986.82;47.432;35.959312;-83.92232;;NaN;;;2258.0613;;0 / 17;34020;2022-10-24 21:12:59:317
-3.7014;2.9662;8.9527;-3.3878;2.2909;8.9132;-0.1758;-1.0622;-0.3326;0.3402;-0.5844;-0.5874;1.0;24.04;-23.06;-7.74;226.45;-13.51;20.81;5.0;986.78;47.445;35.959312;-83.92232;;NaN;;;2258.0613;;0 / 17;34520;2022-10-24 21:12:59:817
-3.0021;3.2824;8.0285;-3.2796;2.5006;8.8973;2.3751;-0.17;-2.2175;-0.0105;-0.2553;-0.0261;1.0;26.01;-16.8;-9.66;239.34;-13.83;22.95;5.0;986.77;42.801;35.959312;-83.92232;;NaN;;;2258.0613;;0 / 17;35020;2022-10-24 21:13:00:317
0.2572;1.0247;8.948;-1.1715;1.6296;9.5991;-0.3267;-1.4076;0.0427;-0.0183;-0.2462;-0.1078;1.0;22.48;-12.49;-13.74;245.73;-9.57;6.96;5.0;986.74;49.715;35.959312;-83.92232;;NaN;;;2258.0613;;0 / 17;35520;2022-10-24 21:13:00:817
-0.1747;1.6519;6.0823;-2.0435;1.8909;9.4031;-2.1028;-1.2681;1.513;0.6728;0.4258;0.8967;2.0;18.04;-7.27;-18.49;258.74;-11.12;12.26;5.0;986.73;37.73;35.959312;-83.92232;;NaN;;;2258.0613;;0 / 17;36020;2022-10-24 21:13:01:317
-2.3007;-0.7959;8.7494;-1.9377;0.352;9.6069;0.0684;-1.4323;0.2989;0.1366;-0.1996;-0.6668;3.0;16.8;-4.35;-21.0;256.19;-2.56;12.97;5.0;986.72;42.179;35.959312;-83.92232;;NaN;;;2258.0613;;0 / 17;36520;2022-10-24 21:13:01:817
-2.7867;0.7708;7.4264;-3.9616;0.9929;8.9158;-1.5183;-1.0688;2.1075;-0.4423;0.1319;0.9542;6.0;14.55;-0.13;-27.32;318.62;-5.81;23.96;5.0;986.7;41.257;35.959312;-83.92232;;NaN;;;2258.0613;;0 / 17;37020;2022-10-24 21:13:02:317
-2.9722;0.6523;10.3953;-2.7533;2.4351;9.0918;0.1518;-0.3439;0.1486;-0.3205;-0.7126;-0.73;7.0;15.58;-10.93;-32.74;278.75;-17.54;20.59;5.0;986.71;46.278;35.959312;-83.92232;;NaN;;;2258.0613;;0 / 17;37521;2022-10-24 21:13:02:818
-1.6077;2.5149;10.2646;-1.9932;1.7956;9.4326;1.3256;-0.0343;2.1487;0.2075;0.4132;-1.5143;7.0;11.1;-17.19;-38.38;209.15;-11.19;8.8;5.0;986.67;34.404;35.959312;-83.92232;;NaN;;;2258.0613;;0 / 17;38020;2022-10-24 21:13:03:317
-0.6535;2.8872;8.8522;-1.044;3.2027;9.21;0.5401;-0.7631;-1.4263;0.3713;-0.2373;-0.7826;7.0;16.07;-26.89;-40.35;219.26;-16.48;6.27;5.0;986.65;50.005;35.959312;-83.92232;;NaN;;;2258.0613;;0 / 17;38521;2022-10-24 21:13:03:818
0.2393;2.5905;10.218;-0.3928;3.2786;9.234;0.0228;-0.4383;1.5374;0.0871;-0.0597;-0.9064;6.0;23.81;-28.41;-38.29;239.15;-19.53;2.44;5.0;986.63;47.54;35.959312;-83.92232;;NaN;;;2258.0613;;0 / 17;39020;2022-10-24 21:13:04:317
-0.5136;2.9243;9.4496;-1.1436;3.4175;9.1205;1.9475;0.7186;0.8772;0.1185;0.2563;-0.421;7.0;24.3;-16.71;-40.78;267.81;-20.4;7.15;5.0;986.63;37.835;35.959312;-83.92232;;NaN;;;2258.0613;;0 / 17;39520;2022-10-24 21:13:04:817
1.0307;5.3438;9.3574;-0.9149;3.7451;9.0171;0.8807;0.6582;0.7986;0.3493;-0.584;-1.1581;8.0;26.21;-14.38;-38.19;276.48;-22.45;5.79;5.0;986.65;38.832;35.959312;-83.92232;;NaN;;;2258.0613;;0 / 17;40020;2022-10-24 21:13:05:317
-0.9302;3.9251;9.8169;-1.1102;3.7968;8.9734;1.3163;-0.5124;-0.9916;0.2898;0.1821;-0.5261;11.0;21.73;-3.99;-38.46;304.86;-22.78;7.05;5.0;986.64;34.05;35.959312;-83.92232;;NaN;;;2258.0613;;0 / 17;40521;2022-10-24 21:13:05:818
-1.1444;2.7855;8.7996;-2.3248;3.1421;8.9941;3.001;-1.3561;0.0952;0.3916;0.4713;-1.0192;10.0;21.02;-5.85;-36.94;295.88;-18.17;10.29;5.0;986.63;38.87;35.959312;-83.92232;;NaN;;;2258.0613;;0 / 17;41020;2022-10-24 21:13:06:317
-4.4267;-0.2393;11.3097;-2.3242;1.9947;9.3161;-1.2776;-2.0409;0.6095;0.5236;-0.9041;-1.0307;4.0;26.03;-14.92;-38.16;249.77;-11.74;14.01;5.0;986.64;45.558;35.959312;-83.92232;;NaN;;;2258.0613;;0 / 17;41520;2022-10-24 21:13:06:817
-1.8266;3.2357;8.4667;-1.0874;2.5908;9.3955;-0.1428;-0.4314;-2.1065;-0.1571;-0.525;0.082;1.0;30.51;-22.89;-39.9;247.7;-15.32;6.6;5.0;986.6;37.535;35.959312;-83.92232;;NaN;;;2258.0613;;0 / 17;42020;2022-10-24 21:13:07:317
-0.6212;2.2804;10.133;-0.0277;2.6018;9.4552;-0.9126;-0.6018;-0.4095;0.021;-0.2462;0.0273;1.0;22.56;-25.14;-44.83;238.61;-13.79;1.24;5.0;986.57;54.389;35.959312;-83.92232;;NaN;;;2258.0613;;0 / 17;42520;2022-10-24 21:13:07:817
0.4573;2.953;8.7458;-1.4752;2.894;9.2531;1.1369;-2.4001;-1.5666;-0.1157;0.4795;0.7076;1.0;11.48;-23.92;-48.15;201.41;-17.16;9.06;5.0;986.57;47.444;35.959312;-83.92232;;NaN;;;2258.0613;;0 / 17;43020;2022-10-24 21:13:08:317
-3.2955;1.3178;9.9009;-2.7072;2.569;9.0687;-0.56;-1.6918;4.3299;0.8937;-0.469;-0.9683;1.0;12.94;-14.25;-49.84;89.56;-15.19;16.62;5.0;986.57;30.985;35.959312;-83.92232;;NaN;;;2258.0613;;0 / 17;43520;2022-10-24 21:13:08:817
-4.5153;2.1284;9.1849;-3.0894;4.8571;7.9394;1.1413;-0.077;1.145;0.7737;0.7017;0.008;1.0;12.47;-11.31;-50.47;8.36;-24.93;15.41;5.0;986.52;39.261;35.959312;-83.92232;;NaN;;;2258.0613;;0 / 17;44020;2022-10-24 21:13:09:317
-0.8608;4.9606;9.3754;-1.4822;3.946;8.8545;-0.1068;1.0386;-0.2052;-0.3069;-0.3974;-0.3002;1.0;15.26;-12.43;-46.82;337.24;-26.04;12.44;5.0;986.53;45.046;35.959312;-83.92232;;NaN;;;2258.0613;;0 / 17;44520;2022-10-24 21:13:09:817
-1.7501;3.5252;10.3496;-0.4689;2.8501;9.3716;0.3528;-0.0836;-1.1946;-0.3228;0.4381;0.2312;1.0;12.62;-7.56;-41.79;293.47;-16.9;2.86;5.0;986.52;42.4;35.9584;-83.92441;778.71;NaN;;;220.64517;;0 / 17;45021;2022-10-24 21:13:10:318
1.5491;1.3633;8.1449;-0.9819;2.1236;9.5235;0.4721;-0.8834;-1.4349;-0.6592;-0.3933;0.6083;2.0;17.85;-7.31;-44.01;282.8;-12.51;5.89;5.0;986.46;43.783;35.9584;-83.92441;778.71;NaN;;;220.64517;;0 / 17;45521;2022-10-24 21:13:10:818
0.4382;1.6137;6.7226;-0.2826;1.3661;9.7069;-0.7162;-0.8204;-1.7075;0.0146;-0.4713;0.1373;4.0;16.63;-2.08;-48.39;287.01;-8.01;1.67;5.0;986.45;44.751;35.9584;-83.92441;778.71;NaN;;;220.64517;;0 / 17;46021;2022-10-24 21:13:11:318
-2.9052;0.4011;9.9787;-2.5032;0.8825;9.4406;2.5165;0.3928;1.3159;-0.7557;1.4603;0.0816;4.0;11.16;1.54;-51.32;20.05;-5.16;14.85;5.0;986.47;57.249;35.9584;-83.92441;778.71;NaN;;;220.64517;;0 / 17;46521;2022-10-24 21:13:11:818
-2.1763;3.2441;8.2418;-3.0909;2.5939;8.9381;0.913;0.1893;-0.9633;0.3026;-0.2933;-0.4042;9.0;27.81;-1.03;-48.0;322.71;-14.06;20.53;5.0;986.44;42.07;35.9584;-83.92441;778.71;NaN;;;220.64517;;0 / 17;47021;2022-10-24 21:13:12:318
-2.3186;1.191;8.2537;-3.3517;1.7309;9.0521;-0.5582;-1.9481;3.4723;0.6289;-0.1645;-0.5812;9.0;21.23;-2.01;-47.74;337.38;-10.17;20.32;5.0;986.47;41.611;35.9584;-83.92441;778.71;NaN;;;220.64517;;0 / 17;47521;2022-10-24 21:13:12:818
-0.4765;-0.9936;7.922;-3.4341;2.4935;8.8408;0.4087;-0.2868;-1.5118;-0.0733;-0.5535;0.1233;8.0;19.44;2.27;-47.16;13.56;-15.91;26.32;5.0;986.43;47.222;35.9584;-83.92441;778.71;NaN;;;220.64517;;0 / 17;48021;2022-10-24 21:13:13:318
-6.2342;-2.5053;9.8722;-4.0197;-0.1241;8.9441;-2.1236;-0.9955;0.3203;-0.6163;0.0844;-1.1863;8.0;8.85;18.83;-53.4;27.65;-6.29;23.51;5.0;986.43;42.411;35.9584;-83.92441;778.71;NaN;;;220.64517;;0 / 17;48520;2022-10-24 21:13:13:817
-3.5934;0.1902;8.6868;-3.1479;0.5891;9.269;0.2281;-0.9201;-0.9399;1.1673;-0.0264;-1.2936;9.0;-2.51;-3.17;-56.18;89.64;-3.44;18.76;5.0;986.4;39.823;35.9584;-83.92441;778.71;NaN;;;220.64517;;0 / 17;49020;2022-10-24 21:13:14:317
-3.6461;1.4725;11.3623;-2.5206;3.1757;8.9293;-1.1066;-1.5934;2.0662;0.7358;-0.7022;-1.6459;9.0;4.59;-27.58;-36.58;160.16;-18.89;15.76;5.0;986.38;39.285;35.9584;-83.92441;778.71;NaN;;;220.64517;;0 / 17;49520;2022-10-24 21:13:14:817
-4.2832;3.4427;6.7609;-4.3038;5.2038;7.1112;-0.9764;2.0701;1.3277;-0.5246;-0.1307;-0.3063;5.0;16.67;-34.22;-24.28;193.7;-27.85;27.47;5.0;986.36;42.413;35.9584;-83.92441;778.71;NaN;;;220.64517;;0 / 17;50020;2022-10-24 21:13:15:317
-2.6073;9.6422;10.3496;-1.4431;6.4487;7.2458;-0.1645;-1.0119;-1.6377;0.8575;-0.9831;0.0239;3.0;26.68;-32.25;-24.56;243.86;-33.65;17.72;5.0;986.34;36.092;35.9584;-83.92441;778.71;NaN;;;220.64517;;0 / 17;50520;2022-10-24 21:13:15:817
-0.711;5.7242;5.182;-1.852;6.6899;6.9272;-1.7106;-3.2167;0.1315;-0.4128;0.2656;0.6033;1.0;10.03;-39.28;-23.36;197.79;-43.01;14.97;5.0;986.3;47.523;35.9584;-83.92441;778.71;NaN;;;220.64517;;0 / 17;51020;2022-10-24 21:13:16:317
-1.1192;3.4056;8.6474;-0.745;4.0802;8.8864;-1.6917;-1.9384;4.1451;0.1655;-0.5505;-0.4967;0.0;-0.94;-27.17;-27.32;166.35;-24.59;4.79;5.0;986.28;45.218;35.9584;-83.92441;778.71;NaN;;;220.64517;;0 / 17;51520;2022-10-24 21:13:16:817
-3.1184;2.8131;7.3104;-0.7281;3.8661;8.9829;0.2174;-2.345;3.2422;1.3943;0.3288;-1.3462;1.0;-7.86;-14.29;-29.23;125.81;-15.43;0.02;5.0;986.2;48.929;35.9584;-83.92441;778.71;NaN;;;220.64517;;0 / 17;52020;2022-10-24 21:13:17:317
0.7086;4.477;5.3267;-0.1148;4.0924;8.9112;-1.0208;-1.8527;-0.7965;0.4381;-0.4545;1.8334;1.0;-12.41;-9.54;-25.57;82.17;-24.66;0.74;5.0;986.2;44.086;35.9584;-83.92441;778.71;NaN;;;220.64517;;0 / 17;52520;2022-10-24 21:13:17:817
-2.983;0.8429;10.0062;-2.0227;2.2151;9.3366;-1.6454;-1.2463;1.0238;-0.9822;0.155;-0.1853;3.0;-10.72;-4.56;-32.96;69.76;-20.61;9.93;5.0;986.17;46.285;35.9584;-83.92441;778.71;NaN;;;220.64517;;0 / 17;53020;2022-10-24 21:13:18:317
-2.764;3.0105;9.4053;-3.5142;2.852;8.6998;1.1754;-0.6874;-0.6354;1.0113;1.5697;0.3263;9.0;-13.8;-9.11;-41.57;87.63;-16.91;22.0;5.0;986.16;37.725;35.9584;-83.92441;778.71;NaN;;;220.64517;;0 / 17;53520;2022-10-24 21:13:18:817
-5.3028;2.1906;6.7813;-4.721;3.1779;7.9864;0.2778;-2.1201;-0.8979;1.0069;-1.112;-0.8679;17.0;-5.42;-22.57;-47.06;111.85;-15.67;35.67;5.0;986.13;43.474;35.9584;-83.92441;778.71;NaN;;;220.64517;;0 / 17;54020;2022-10-24 21:13:19:317
-4.459;1.7907;9.9476;-4.2311;3.2653;8.2223;1.244;0.1098;0.7612;0.1668;-0.66;-0.6157;15.0;-2.94;-50.02;-32.08;152.96;-20.86;31.24;5.0;986.14;34.77;35.9584;-83.92441;778.71;NaN;;;220.64517;;0 / 17;54520;2022-10-24 21:13:19:817
-3.9885;2.2636;8.0704;-3.9224;3.4911;8.2823;-0.6272;-1.5192;-0.0398;0.4421;-0.3722;-0.5116;9.0;26.34;-62.91;-11.61;199.78;-20.85;25.34;5.0;986.13;38.022;35.9584;-83.92441;778.71;NaN;;;220.64517;;0 / 17;55020;2022-10-24 21:13:20:317
-2.9447;2.7413;8.3088;-3.3608;3.8238;8.3817;0.63;-1.3114;0.4837;0.4869;-1.1151;-1.1095;5.0;37.05;-47.21;-8.76;221.81;-22.95;21.85;5.0;986.13;36.374;35.9584;-83.92441;778.71;NaN;;;220.64517;;0 / 17;55521;2022-10-24 21:13:20:818
-2.3474;6.5527;10.4444;-2.3822;4.1073;8.5805;-0.4579;-1.0874;-1.5114;0.8798;-0.851;-0.026;3.0;36.06;-26.74;-18.09;242.25;-20.61;14.47;5.0;986.13;44.504;35.9584;-83.92441;778.71;NaN;;;220.64517;;0 / 17;56021;2022-10-24 21:13:21:318
0.1472;4.4076;5.8319;-1.0803;5.9949;7.6853;-0.0834;-1.533;-2.2179;0.1835;-0.304;-0.1439;4.0;22.43;-16.72;-24.15;276.4;-35.75;8.8;5.0;986.1;42.41;35.9584;-83.92441;778.71;NaN;;;220.64517;;0 / 17;56520;2022-10-24 21:13:21:817
-2.8358;2.63;6.3407;-2.6077;5.0855;7.9692;-1.1137;4.5812;2.5097;-0.6312;-0.0839;-0.1133;3.0;11.76;-20.33;-17.46;222.03;-31.24;18.12;5.0;986.08;46.077;35.9584;-83.92441;778.71;NaN;;;220.64517;;0 / 17;57020;2022-10-24 21:13:22:317
-1.555;2.8418;8.3818;-2.6017;3.422;8.8143;-0.2097;0.4221;-0.1035;0.4375;-0.4092;-0.4136;3.0;14.68;-20.96;-11.49;217.83;-20.42;16.44;5.0;986.09;44.519;35.9584;-83.92441;778.71;NaN;;;220.64517;;0 / 17;57520;2022-10-24 21:13:22:817
-2.5654;3.1938;6.0751;-3.7035;5.1289;7.4933;-0.5607;-0.7895;-0.1115;0.4162;0.1164;0.5718;3.0;10.35;-15.66;-11.29;207.94;-29.16;27.9;5.0;986.05;49.243;35.9584;-83.92441;778.71;NaN;;;220.64517;;0 / 17;58020;2022-10-24 21:13:23:317
-4.4698;8.8176;9.8192;-2.7482;5.0145;7.967;1.6133;0.952;-1.8698;-0.0169;-0.8512;-0.8497;3.0;0.32;-12.41;-14.57;122.04;-30.75;19.03;5.0;986.02;38.048;35.9584;-83.92441;778.71;NaN;;;220.64517;;0 / 17;58521;2022-10-24 21:13:23:818
-2.7257;3.5779;6.5025;-3.1083;3.3739;8.6675;0.1168;-0.2821;-1.5603;0.6943;-0.7038;-0.7734;4.0;11.89;-17.25;-7.95;212.2;-17.27;22.74;5.0;985.99;45.425;35.9584;-83.92441;778.71;NaN;;;220.64517;;0 / 17;59021;2022-10-24 21:13:24:318
-7.1536;5.9626;9.4292;-3.6647;4.3463;7.9906;-3.4074;2.5071;2.6685;0.4927;-0.1868;0.4358;4.0;25.01;-8.03;-6.19;269.62;-26.31;24.64;5.0;986.0;41.827;35.9584;-83.92441;778.71;NaN;;;220.64517;;0 / 17;59521;2022-10-24 21:13:24:818
-2.2205;5.2597;9.1992;-3.662;4.5212;7.8942;2.7639;0.8323;-1.5359;-0.0956;0.3077;-0.372;4.0;23.12;3.17;-5.42;295.21;-28.86;22.49;5.0;985.95;40.954;35.9584;-83.92441;778.71;NaN;;;220.64517;;0 / 17;60021;2022-10-24 21:13:25:318
-1.6424;4.5368;8.5636;-3.1262;4.6414;8.0532;1.1073;-0.4846;0.737;0.7804;-0.4626;-0.5798;5.0;10.8;11.4;-8.53;335.21;-23.99;21.36;5.0;985.93;54.406;35.9584;-83.92441;778.71;NaN;;;220.64517;;0 / 17;60520;2022-10-24 21:13:25:817
-1.2365;4.4686;8.1903;-2.294;5.8312;7.5436;1.8958;-1.4653;1.1387;0.0493;0.071;-0.481;5.0;6.62;16.41;-16.69;355.78;-36.49;16.91;5.0;985.9;46.367;35.9584;-83.92441;778.71;NaN;;;220.64517;;0 / 17;61021;2022-10-24 21:13:26:318
-6.05;0.3257;10.1354;-3.3678;2.025;8.9848;-2.4986;-1.3377;1.5795;-0.0738;0.6752;-1.1285;4.0;-19.69;13.46;-21.9;59.59;-11.92;20.55;5.0;985.92;45.132;35.9584;-83.92441;778.71;NaN;;;220.64517;;0 / 17;61520;2022-10-24 21:13:26:817
-3.1962;3.2142;11.3444;-2.8866;2.6559;8.988;0.6245;-0.9975;-1.4336;0.6667;0.7644;0.5461;5.0;-38.48;-25.07;-17.19;119.78;-11.75;19.03;5.0;985.9;53.097;35.9584;-83.92441;778.71;NaN;;;220.64517;;0 / 17;62020;2022-10-24 21:13:27:317
-1.4198;2.5295;6.7071;-3.329;3.6044;8.491;2.6265;-1.3726;-3.3443;0.1572;0.0646;-0.134;6.0;-27.88;-45.22;-12.47;144.03;-19.87;21.15;5.0;985.88;44.532;35.9584;-83.92441;778.71;NaN;;;220.64517;;0 / 17;62520;2022-10-24 21:13:27:817
-2.5415;3.2429;9.8109;-2.8928;3.0924;8.8453;0.585;0.1154;1.2439;0.1897;-0.8084;-1.0168;6.0;-14.66;-47.83;-12.38;157.5;-18.38;18.11;5.0;985.87;46.969;35.9584;-83.92441;778.71;NaN;;;220.64517;;0 / 17;63021;2022-10-24 21:13:28:318
-0.9494;4.3394;8.6856;-1.4833;4.6097;8.5277;-0.2725;-0.637;0.5293;0.6916;-0.4868;-0.0086;6.0;9.62;-46.59;-15.08;192.18;-28.04;9.87;5.0;985.87;47.191;35.9584;-83.92441;778.71;NaN;;;220.64517;;0 / 17;63522;2022-10-24 21:13:28:819
-1.4174;6.1732;7.6433;-1.7778;5.8116;7.6964;0.9957;-0.1122;-0.6926;0.1414;-0.3828;-0.7969;5.0;13.39;-49.82;-16.43;197.93;-36.4;11.63;5.0;985.86;46.539;35.9584;-83.92441;778.71;NaN;;;220.64517;;0 / 17;64020;2022-10-24 21:13:29:317
-0.8931;2.1583;8.1736;-2.2633;4.0297;8.6492;-0.6461;-2.0773;0.8659;-0.2383;-0.4072;-0.9291;3.0;25.99;-46.63;-16.35;211.99;-24.26;14.66;5.0;985.86;53.327;35.9584;-83.92441;778.71;NaN;;;220.64517;;0 / 17;64521;2022-10-24 21:13:29:818
-4.0771;2.5989;7.2159;-4.3884;4.8634;7.2979;-0.9285;-1.1843;1.0446;-0.2402;0.9275;0.6176;1.0;37.31;-35.32;-20.34;238.4;-27.66;25.61;5.0;985.87;37.564;35.9584;-83.92441;778.71;NaN;;;220.64517;;0 / 17;65020;2022-10-24 21:13:30:317
-6.1481;3.2177;8.9324;-4.2368;4.6153;7.5445;0.9819;1.2729;-0.6713;-0.5976;-0.0218;-0.461;1.0;34.99;-36.58;-10.93;231.39;-28.08;29.32;5.0;985.83;40.669;35.9584;-83.92441;778.71;NaN;;;220.64517;;0 / 17;65520;2022-10-24 21:13:30:817
-6.8136;4.4973;6.446;-4.1861;3.1982;8.2716;-0.4542;0.5543;-0.3519;-0.0693;0.0787;0.1662;1.0;34.03;-30.06;-19.89;231.83;-19.88;26.31;5.0;985.8;39.68;35.9584;-83.92441;778.71;NaN;;;220.64517;;0 / 17;66021;2022-10-24 21:13:31:318
-2.4443;4.0711;7.8538;-4.2326;3.3055;8.2054;1.7801;0.1383;-0.6373;0.1057;0.0874;-0.0161;1.0;29.4;-26.53;-24.73;226.31;-19.02;26.73;5.0;985.8;35.093;35.9584;-83.92441;778.71;NaN;;;220.64517;;0 / 17;66520;2022-10-24 21:13:31:817
-3.2859;2.9578;8.0154;-3.1077;2.9594;8.8178;-0.8028;-0.4126;-0.8851;0.0811;-0.7105;0.0995;2.0;25.71;-24.3;-25.78;230.97;-17.56;19.41;5.0;985.78;39.151;35.9584;-83.92441;778.71;NaN;;;220.64517;;0 / 17;67021;2022-10-24 21:13:32:318
-1.8159;3.1376;7.18;-3.9037;3.4438;8.3109;2.1832;-0.3594;-1.1897;-0.2783;0.4412;0.4668;2.0;26.81;-23.62;-26.12;232.75;-20.56;25.16;5.0;985.76;41.456;35.9584;-83.92441;778.71;NaN;;;220.64517;;0 / 17;67520;2022-10-24 21:13:32:817
-4.7258;0.7074;9.3526;-4.4445;2.7925;8.2836;0.8986;-0.0496;2.6524;0.239;-0.9145;-0.9242;3.0;29.33;-23.74;-26.85;233.81;-19.6;26.53;5.0;985.76;41.404;35.9584;-83.92441;778.71;NaN;;;220.64517;;0 / 17;68020;2022-10-24 21:13:33:317
-3.8916;3.4499;10.8236;-3.2155;2.8462;8.8165;-0.7994;2.013;0.633;-0.4961;0.7524;0.1996;4.0;31.05;-15.83;-31.57;263.06;-18.69;16.24;5.0;985.73;37.654;35.9584;-83.92441;778.71;NaN;;;220.64517;;0 / 17;68520;2022-10-24 21:13:33:817
0.5506;3.8844;12.2734;-2.3225;3.5213;8.8531;-0.1311;0.2131;-1.6076;-0.9189;-0.7207;-0.5476;3.0;33.3;-18.11;-33.53;265.13;-21.04;14.7;5.0;985.71;41.438;35.9584;-83.92441;778.71;NaN;;;220.64517;;0 / 17;69020;2022-10-24 21:13:34:317
0.7576;2.4072;7.9125;-0.9422;2.3714;9.4689;0.9737;-0.0862;-1.7923;-0.2113;-0.2865;-0.4921;3.0;32.49;-18.26;-40.93;256.18;-13.99;5.68;5.0;985.7;48.812;35.9584;-83.92441;778.71;NaN;;;220.64517;;0 / 17;69520;2022-10-24 21:13:34:817
-0.1627;2.7796;7.9819;-0.8844;1.9417;9.5717;0.3176;-0.2372;-0.7409;0.1227;-0.2117;-0.4338;3.0;37.95;-18.26;-45.56;255.63;-10.73;6.2;5.0;985.69;37.403;35.9584;-83.92441;778.71;NaN;;;220.64517;;0 / 17;70020;2022-10-24 21:13:35:317
1.4498;-1.4976;13.9983;-0.2239;1.2815;9.72;1.081;-0.3291;2.4266;-0.1871;-1.193;-2.014;4.0;39.13;-24.02;-54.77;246.39;-7.51;1.32;5.0;985.69;29.767;35.9584;-83.92441;778.71;NaN;;;220.64517;;0 / 17;70522;2022-10-24 21:13:35:819
1.3502;2.3797;8.578;-0.2607;1.7215;9.6508;1.747;-0.2702;-0.9906;0.2905;0.1142;-1.1631;10.0;35.4;-11.98;-73.16;266.78;-7.82;-0.65;5.0;985.63;46.944;35.9584;-83.92441;778.71;NaN;;;220.64517;;0 / 17;71021;2022-10-24 21:13:36:318
0.28;2.3043;8.5528;-1.0043;2.8996;9.3142;0.4104;-1.1567;-1.131;-0.0417;-0.3377;-1.3116;10.0;38.53;-10.42;-76.52;291.89;-15.74;6.14;5.0;985.63;33.494;35.958183;-83.92438;808.85;NaN;;0.0;152.7439;;0 / 17;71522;2022-10-24 21:13:36:819
-1.27;1.9932;11.3384;-1.9885;3.0909;9.0919;3.0022;-0.8289;1.8526;-0.0703;0.2501;-1.0372;9.0;29.74;-25.86;-65.42;267.72;-20.08;8.95;5.0;985.67;49.361;35.958183;-83.92438;808.85;NaN;;0.0;152.7439;;0 / 17;72020;2022-10-24 21:13:37:317
-2.0662;3.6763;7.3307;-3.0722;4.0576;8.3826;0.8163;-1.0732;0.4324;0.3353;-0.534;-1.245;9.0;37.24;-31.42;-46.05;258.74;-25.53;17.41;5.0;985.66;41.82;35.958183;-83.924385;808.83;NaN;;0.0;140.83038;;5 / 17;72520;2022-10-24 21:13:37:817
-3.0811;1.7632;9.0401;-2.5096;3.1527;8.9405;-0.1083;-1.4244;1.4136;0.1337;-0.4853;-0.9615;4.0;32.85;-15.9;-35.25;266.28;-18.75;15.68;5.0;985.67;40.949;35.958183;-83.924385;808.83;NaN;;0.0;140.83038;;5 / 17;73020;2022-10-24 21:13:38:317
-1.6125;2.7975;6.0069;-2.7325;3.2807;8.8284;-0.7507;-1.8686;-0.3244;0.1775;-0.4921;0.8098;1.0;17.49;-5.48;-40.95;353.96;-19.52;21.14;5.0;985.63;40.101;35.958225;-83.92441;809.17;NaN;;0.0;116.48702;;5 / 17;73520;2022-10-24 21:13:38:817
-3.4798;1.9848;8.7996;-2.8063;2.2075;9.1336;-0.5595;0.4627;1.6922;0.4758;-0.1198;-0.3224;2.0;11.87;-1.46;-42.43;5.58;-13.01;17.08;5.0;985.63;41.532;35.958225;-83.92441;809.17;NaN;;0.0;116.48702;;5 / 17;74020;2022-10-24 21:13:39:317
-0.9482;2.7138;6.8877;-1.9209;2.4451;9.3006;0.0615;-2.1582;-2.1318;0.0351;-0.3096;0.7009;1.0;10.03;1.8;-41.81;9.2;-13.02;15.9;5.0;985.6;40.405;35.958313;-83.92447;808.71;NaN;;0.0;83.73231;;6 / 17;74520;2022-10-24 21:13:39:817
-1.4916;0.0622;9.0269;-1.7629;1.9128;9.4554;-0.8252;0.8716;0.6056;-0.2128;-0.834;-0.6829;1.0;5.55;5.29;-42.15;7.78;-11.25;10.56;5.0;985.59;39.616;35.958313;-83.92447;808.71;NaN;;0.0;83.73231;;6 / 17;75020;2022-10-24 21:13:40:317
-1.2209;1.8505;7.1728;-2.4575;1.9758;9.2859;-1.647;-2.1072;3.9931;-0.029;0.3951;0.7888;1.0;0.26;10.05;-42.39;25.28;-11.26;11.58;5.0;985.58;44.317;35.958313;-83.92447;808.71;NaN;;0.0;83.73231;;6 / 17;75520;2022-10-24 21:13:40:817
-3.4463;1.3502;11.2929;-2.115;1.8692;9.3917;-0.5385;1.361;1.4152;-0.5913;-0.4155;-0.3474;2.0;8.29;11.64;-43.57;8.05;-14.9;14.49;5.0;985.53;41.757;35.958313;-83.92447;808.71;NaN;;0.0;83.73231;;6 / 17;76020;2022-10-24 21:13:41:317
-4.3908;1.6149;13.0932;-1.9253;1.1211;9.5502;1.1759;-0.1896;0.1321;-0.525;0.1387;-0.7256;3.0;9.94;11.79;-43.18;351.68;-11.27;9.22;5.0;985.54;36.446;35.958313;-83.92447;808.71;NaN;;0.0;83.73231;;6 / 17;76520;2022-10-24 21:13:41:817
-1.5455;2.6898;10.0899;-2.2938;1.7964;9.3639;1.5516;0.5537;-0.0324;0.313;-0.2882;-0.5861;4.0;15.79;12.99;-40.18;346.36;-10.03;15.25;5.0;985.5;43.015;35.958313;-83.92447;808.71;NaN;;0.0;83.73231;;6 / 17;77020;2022-10-24 21:13:42:317
0.5471;1.8577;7.6684;-0.2431;2.1165;9.5725;-0.0582;-0.9795;-1.3583;0.0189;0.0357;-0.5256;4.0;16.82;10.16;-42.82;321.95;-11.56;3.23;5.0;985.51;44.812;35.958313;-83.92447;808.71;NaN;;0.0;83.73231;;6 / 17;77521;2022-10-24 21:13:42:818
-0.8342;0.5136;8.0716;-1.7448;2.3558;9.3582;1.1919;-2.4321;-1.2986;0.5879;-0.0666;-0.7543;3.0;10.61;3.45;-47.36;346.27;-10.35;9.8;5.0;985.44;52.401;35.958313;-83.92447;808.71;NaN;;0.0;83.73231;;6 / 17;78020;2022-10-24 21:13:43:317
-1.7716;4.2497;9.0879;-2.3773;3.1116;8.9909;0.1153;0.8296;-0.774;0.3176;-0.5192;-0.7178;3.0;10.43;-5.55;-48.51;17.54;-19.12;15.4;5.0;985.49;41.374;35.958313;-83.92447;808.71;NaN;;0.0;83.73231;;6 / 17;78520;2022-10-24 21:13:43:817
-0.8764;2.1523;8.6821;-1.1507;2.8075;9.3255;0.3881;-0.4594;-1.5768;-0.1129;-0.0959;-0.5542;2.0;4.71;-19.35;-44.04;175.59;-16.64;7.03;5.0;985.47;44.059;35.958313;-83.92447;808.71;NaN;;0.0;83.73231;;6 / 17;79021;2022-10-24 21:13:44:318
-2.6599;-0.8067;12.9903;-2.1807;1.7144;9.4062;0.6276;0.1277;2.3524;-0.5749;0.3531;0.0512;6.0;0.3;-23.55;-39.75;160.73;-12.84;7.32;5.0;985.48;36.088;35.958313;-83.92447;808.71;NaN;;0.0;83.73231;;6 / 17;79520;2022-10-24 21:13:44:817
-2.6133;3.5456;6.8853;-2.4662;3.6045;8.7804;1.5764;-0.7459;-1.9841;0.0212;-0.4723;-0.9728;7.0;-0.28;-28.24;-33.6;146.72;-21.57;15.69;5.0;985.45;45.34;35.958313;-83.92447;808.71;NaN;;0.0;83.73231;;6 / 17;80020;2022-10-24 21:13:45:317
-3.9383;-1.5562;12.0159;-3.4151;1.3821;9.0883;0.7974;-1.6746;-0.4366;-1.2643;0.4923;0.705;6.0;10.54;-35.61;-22.01;187.27;-15.04;18.08;5.0;985.45;48.915;35.958313;-83.92447;808.71;NaN;;0.0;83.73231;;5 / 17;80520;2022-10-24 21:13:45:817
-1.3226;2.8717;7.0316;-2.9424;3.0226;8.8531;1.347;-0.8851;-1.4824;0.8299;-0.0885;-0.1888;6.0;13.28;-33.6;-24.15;189.72;-11.87;18.41;5.0;985.41;43.827;35.958313;-83.92447;808.71;NaN;;0.0;83.73231;;5 / 17;81020;2022-10-24 21:13:46:317
-2.7401;2.7532;9.3897;-3.6118;4.0869;8.15;0.8499;-2.2126;2.0688;0.475;0.1229;-0.1603;5.0;9.92;-35.57;-18.86;183.59;-24.44;23.75;5.0;985.42;41.928;35.958317;-83.92446;808.9;NaN;;0.0;96.50122;;5 / 17;81520;2022-10-24 21:13:46:817
-2.2337;2.3952;9.629;-2.2994;3.3012;8.9435;-0.5906;-0.0982;3.7169;-0.0473;-1.296;-0.8289;4.0;9.84;-33.24;-9.41;193.14;-23.08;21.6;5.0;985.43;43.39;35.958317;-83.92446;808.9;NaN;;0.0;96.50122;;5 / 17;82020;2022-10-24 21:13:47:317
-3.5444;2.1978;10.2562;-2.428;1.9134;9.3067;0.8011;-0.6802;-0.4113;-0.0433;0.1884;-0.773;3.0;9.51;-25.84;-12.54;197.14;-12.84;13.1;5.0;985.4;36.338;35.958317;-83.92446;808.9;NaN;;0.0;96.50122;;5 / 17;82521;2022-10-24 21:13:47:818
-3.2656;2.2684;7.1249;-4.5711;2.1852;8.3964;1.2413;0.0674;-0.7057;0.1223;0.2007;-0.0304;1.0;10.03;-24.79;-18.26;182.18;-12.06;26.92;5.0;985.38;40.859;35.958317;-83.92446;808.9;NaN;;0.0;96.50122;;5 / 17;83020;2022-10-24 21:13:48:317
-2.4263;-2.4239;8.857;-3.6174;-0.0925;9.1146;-4.5646;-0.4157;3.0909;0.3793;-1.3088;-0.8905;2.0;13.5;-25.05;-18.97;193.39;0.54;21.65;5.0;985.37;47.672;35.958324;-83.92446;809.47;NaN;;0.0;113.94723;;5 / 17;83520;2022-10-24 21:13:48:817
-5.3653;-1.5347;9.0987;-3.61;0.2181;9.1154;-1.4974;-0.8802;3.4076;-0.0637;1.0632;1.0843;2.0;17.23;-19.28;-26.53;208.31;0.14;13.41;5.0;985.34;42.121;35.958324;-83.92446;809.47;NaN;;0.0;113.94723;;5 / 17;84021;2022-10-24 21:13:49:318
-2.575;-3.845;13.6307;-1.4697;-0.402;9.6876;0.0307;1.9525;2.0213;-1.3622;-1.5196;-0.7178;3.0;15.15;-20.38;-27.53;196.12;-9.63;20.62;5.0;985.33;49.955;35.958324;-83.92446;809.47;NaN;;0.0;113.94723;;5 / 17;84521;2022-10-24 21:13:49:818
-5.6548;-0.5207;9.1645;-3.106;-0.4588;9.2905;-1.3169;0.0416;2.903;-0.6782;1.018;0.3108;3.0;2.29;-12.77;-31.48;151.14;2.68;18.49;5.0;985.31;50.457;35.958324;-83.92446;809.47;NaN;;0.0;113.94723;;5 / 17;85020;2022-10-24 21:13:50:317
-3.4307;0.5614;11.9178;-3.9327;0.5595;8.9661;3.2555;1.4481;0.2596;-0.4664;0.6883;0.0731;3.0;1.99;-4.16;-33.81;93.04;-6.05;21.81;5.0;985.29;44.984;35.958324;-83.92446;809.47;NaN;;0.0;113.94723;;5 / 17;85520;2022-10-24 21:13:50:817
-5.9949;-1.0152;12.6745;-3.4965;0.4206;9.1525;0.6218;-0.6097;-1.2244;-1.2272;1.1928;0.7527;4.0;-0.94;4.43;-33.58;67.76;-2.46;20.91;5.0;985.3;44.864;35.958324;-83.92446;809.47;NaN;;0.0;113.94723;;5 / 17;86020;2022-10-24 21:13:51:317
-2.3773;1.902;9.003;-4.7234;1.0193;8.5335;1.2275;0.336;-0.3967;0.0902;0.0418;0.1416;6.0;2.78;9.43;-36.98;51.55;-5.17;28.69;5.0;985.25;39.867;35.958324;-83.92446;809.47;NaN;;0.0;113.94723;;6 / 17;86521;2022-10-24 21:13:51:818
-3.6173;-0.3257;9.0174;-4.7618;-0.078;8.5726;1.3252;-0.3827;-0.187;0.2974;0.0612;-0.6154;8.0;2.91;9.51;-45.62;62.74;-0.08;28.79;5.0;985.24;53.76;35.958324;-83.92446;809.47;NaN;;0.0;113.94723;;6 / 17;87021;2022-10-24 21:13:52:318
-3.6305;0.2106;8.1242;-5.0941;0.9146;8.3297;0.2295;-1.0752;-1.7931;0.8383;-0.2497;0.0372;10.0;7.07;-2.87;-50.23;97.92;-0.01;33.21;5.0;985.23;38.499;35.958336;-83.92447;809.97;NaN;;0.0;84.07045;;6 / 17;87522;2022-10-24 21:13:52:819
-8.8331;-2.9219;11.7455;-5.4664;0.5087;8.1259;-0.7907;-1.4997;3.5202;-0.0254;0.0793;-0.8869;13.0;27.24;-23.34;-45.79;170.48;-7.68;33.24;5.0;985.21;35.027;35.958336;-83.92447;809.97;NaN;;0.0;84.07045;;6 / 17;88021;2022-10-24 21:13:53:318
-4.1225;1.2688;8.4763;-3.7662;1.7129;8.8911;0.9014;-1.4911;-0.3681;1.2028;-0.4488;-1.4864;13.0;36.75;-26.16;-42.24;219.24;-6.46;24.58;5.0;985.18;38.847;35.958336;-83.92447;809.97;NaN;;0.0;84.07045;;6 / 17;88522;2022-10-24 21:13:53:819
-1.829;3.396;7.3881;-3.7605;3.4597;8.3701;0.4384;0.669;-2.131;-0.2932;-0.2915;-0.338;7.0;46.82;-16.01;-25.78;270.34;-20.66;24.19;5.0;985.2;45.487;35.958336;-83.92447;809.97;NaN;;0.0;84.07045;;6 / 17;89021;2022-10-24 21:13:54:318
-3.6257;1.3155;8.8857;-3.6523;2.885;8.6318;-0.5813;-2.4656;4.0456;0.6118;-0.813;-1.2997;6.0;37.14;-16.61;-34.71;262.96;-17.11;22.93;5.0;985.22;55.048;35.95833;-83.92446;809.84;NaN;;0.0;47.40814;;9 / 17;89521;2022-10-24 21:13:54:818
-1.8434;2.7437;7.247;-2.0477;3.0916;9.0785;-1.1852;-1.4053;2.3475;0.5592;-0.928;-1.2351;6.0;35.7;-1.78;-29.96;293.45;-18.67;18.07;5.0;985.18;46.388;35.95833;-83.92446;809.84;NaN;;0.0;47.40814;;9 / 17;90021;2022-10-24 21:13:55:318
-1.7201;1.646;11.2965;-0.9886;3.0135;9.2797;1.7127;-0.8859;0.653;-0.2256;0.1665;-1.2015;7.0;24.68;11.31;-25.24;312.8;-21.29;6.64;5.0;985.2;38.809;35.958313;-83.92447;809.79;NaN;;0.0;40.96977;;9 / 17;90521;2022-10-24 21:13:55:818
-4.3932;-0.195;14.1455;-2.0285;2.4206;9.2842;1.8634;1.6559;0.7686;-0.1119;0.725;-0.4503;1.0;-8.53;18.32;-6.64;28.87;-14.29;12.32;5.0;985.19;37.35;35.958313;-83.92447;809.79;NaN;;0.0;40.96977;;9 / 17;91021;2022-10-24 21:13:56:318
-3.7696;2.4538;8.6725;-2.9274;1.8899;9.1667;-0.7413;0.5558;-0.9742;-0.0931;0.0136;-0.3515;1.0;-26.01;5.64;-6.84;78.04;-12.26;16.67;5.0;985.2;40.332;35.958313;-83.92447;809.79;NaN;;0.0;40.96977;;9 / 17;91521;2022-10-24 21:13:56:818
-1.6567;0.1519;10.0086;-2.3336;1.2325;9.4449;0.7788;-2.156;0.4694;0.9829;-0.209;-1.6136;2.0;-31.69;-10.84;-13.16;106.75;-7.22;13.88;5.0;985.14;40.03;35.958313;-83.92447;809.79;NaN;;0.0;40.96977;;9 / 17;92020;2022-10-24 21:13:57:317
-4.1237;0.262;9.3311;-3.5712;2.0269;8.9055;-1.0272;0.2771;1.1239;-0.7541;0.1959;0.2601;2.0;-27.77;-19.95;-12.41;121.86;-14.98;20.17;5.0;985.15;55.301;35.958313;-83.92447;809.79;NaN;;0.0;40.96977;;9 / 17;92521;2022-10-24 21:13:57:818
-5.8451;3.0224;10.6226;-3.9891;2.2146;8.6806;-0.8979;0.8643;1.6516;-0.1549;-0.1148;-0.128;2.0;-24.22;-13.26;-20.81;108.68;-15.3;26.73;5.0;985.16;34.486;35.958313;-83.92447;809.79;NaN;;0.0;40.96977;;9 / 17;93020;2022-10-24 21:13:58:317
-1.0822;2.7353;8.4679;-2.1064;2.3111;9.2948;-0.1388;-0.3043;-1.0199;0.0559;-0.7562;-0.6628;3.0;-17.46;-8.51;-19.24;103.34;-15.43;17.24;5.0;985.13;38.189;35.958313;-83.92447;809.79;NaN;;0.0;40.96977;;9 / 17;93521;2022-10-24 21:13:58:818
-3.0476;1.1001;6.4519;-2.9878;2.2119;9.0747;-0.2696;-1.5238;-2.1481;0.0266;0.1293;0.2703;1.0;0.49;-7.42;-17.44;124.04;-12.07;17.51;5.0;985.07;44.643;35.958313;-83.92447;809.79;NaN;;0.0;40.96977;;9 / 17;94020;2022-10-24 21:13:59:317
-0.8728;0.7756;8.5708;-1.8895;1.834;9.4465;-1.2181;-0.5646;2.3578;0.1117;0.0056;0.4432;2.0;15.24;-8.23;-21.11;249.44;-10.62;14.89;5.0;985.1;40.921;35.95831;-83.92448;809.74;NaN;;0.0;37.470352;;9 / 17;94520;2022-10-24 21:13:59:817
-4.4495;2.6061;9.501;-3.2486;1.9169;9.0522;-0.3393;0.873;1.9082;-0.1932;0.9152;0.3657;7.0;11.36;-15.0;-24.39;207.15;-12.27;14.4;5.0;985.08;36.906;35.95831;-83.92448;809.74;NaN;;0.0;37.470352;;9 / 17;95020;2022-10-24 21:14:00:317
-4.8087;2.2732;8.7912;-3.986;1.2725;8.8692;0.4057;-0.3127;-1.0982;0.0065;0.1744;0.3199;13.0;10.48;-14.17;-26.1;175.73;-7.34;22.62;5.0;985.07;38.568;35.95831;-83.92448;809.74;NaN;;0.0;37.470352;;7 / 17;95520;2022-10-24 21:14:00:817
-1.276;1.6496;7.1668;-2.0587;1.8646;9.4051;-0.4023;-1.1905;-1.7393;0.1251;-0.7922;0.1679;30.0;2.51;-9.0;-28.63;126.81;-8.95;17.67;5.0;985.02;50.425;35.95831;-83.92448;809.74;NaN;;0.0;37.470352;;7 / 17;96020;2022-10-24 21:14:01:317
-5.3797;2.6994;10.8787;-5.6427;2.5929;7.5899;0.5297;1.2245;2.2726;-0.3921;0.9593;-0.8772;28.0;-6.09;-5.62;-29.27;88.74;-13.34;14.63;5.0;985.03;40.014;35.95831;-83.92448;809.74;NaN;;0.0;37.470352;;7 / 17;96520;2022-10-24 21:14:01:817
-3.4475;2.6085;5.3749;-5.1788;3.3941;7.6047;-0.2084;-1.5025;-0.257;0.842;-0.403;-0.0822;44.0;5.16;-0.08;-33.86;54.51;-20.25;34.25;5.0;985.03;43.712;35.95831;-83.92448;809.74;NaN;;0.0;37.470352;;7 / 17;97020;2022-10-24 21:14:02:317
-3.8031;1.5754;9.2833;-5.2;2.8079;7.826;0.8452;0.0374;1.1394;0.834;-0.0912;-0.6509;56.0;5.72;-3.54;-37.74;73.05;-14.25;32.99;5.0;985.06;38.663;35.95831;-83.92448;809.74;NaN;;0.0;37.470352;;6 / 17;97520;2022-10-24 21:14:02:817
-3.9311;2.7796;7.922;-4.9931;3.3421;7.7505;1.3253;0.5617;-0.4838;-0.2097;0.0554;-0.0938;62.0;5.63;-19.58;-40.41;110.57;-19.93;32.79;5.0;985.01;41.187;35.95831;-83.92448;809.74;NaN;;0.0;37.470352;;6 / 17;98020;2022-10-24 21:14:03:317
-2.9806;0.315;10.3196;-4.6661;2.1541;8.3521;-0.0495;0.3528;1.1463;0.3399;-0.2924;-0.6409;82.0;13.35;-21.41;-43.11;134.15;-13.6;30.26;5.0;985.0;38.421;35.95831;-83.92448;809.74;NaN;;0.0;37.470352;;7 / 17;98520;2022-10-24 21:14:03:817
-6.0811;1.9211;9.3287;-3.9624;3.6455;8.1963;-0.0208;-1.3837;-0.5422;-0.3969;0.8506;0.4128;97.0;16.59;-26.68;-48.81;134.49;-21.82;25.8;5.0;985.0;39.99;35.95831;-83.92448;809.74;NaN;;0.0;37.470352;;7 / 17;99020;2022-10-24 21:14:04:317
-3.5468;2.551;9.0772;-4.4948;3.0671;8.1584;2.5341;-0.9084;0.5211;0.5161;-0.3954;-1.363;67.0;12.41;-37.61;-43.74;152.0;-20.54;28.29;5.0;985.02;40.889;35.958313;-83.92446;808.6;NaN;;0.0;28.653463;;6 / 17;99520;2022-10-24 21:14:04:817
-4.2832;3.7804;9.1753;-4.4978;2.8261;8.2434;0.5082;-0.0812;2.3037;0.6829;-0.0131;-0.5188;15.0;18.88;-38.96;-37.59;178.36;-14.59;27.61;5.0;985.02;44.885;35.958313;-83.92446;808.6;NaN;;0.0;28.653463;;6 / 17;100020;2022-10-24 21:14:05:317
-2.2875;5.8968;7.7665;-2.6124;4.2362;8.4499;-0.6577;-0.9209;-0.8786;0.0858;-1.122;-0.2262;12.0;21.51;-43.48;-31.22;196.79;-21.2;23.14;5.0;984.98;44.565;35.958313;-83.92446;808.6;NaN;;0.0;28.653463;;7 / 17;100520;2022-10-24 21:14:05:817
-1.3023;3.967;7.5918;-0.7572;4.0611;8.8941;-0.5677;-0.3801;-1.1881;-0.3267;-0.3793;-0.8709;11.0;19.24;-47.93;-21.84;208.37;-27.22;4.35;5.0;984.99;54.472;35.958313;-83.92446;808.6;NaN;;0.0;28.653463;;7 / 17;101020;2022-10-24 21:14:06:317
-2.1835;5.7123;6.2701;-1.4029;4.4114;8.6453;-1.248;-4.3636;2.1963;-0.304;1.7802;0.6007;13.0;21.62;-36.28;-27.73;211.03;-3.87;3.16;5.0;984.95;40.857;35.958313;-83.92446;808.6;NaN;;0.0;28.653463;;7 / 17;101520;2022-10-24 21:14:06:817
-3.4582;1.0475;7.1118;-4.8433;4.2472;7.3942;2.3746;0.0415;1.0468;0.6743;0.403;-1.963;7.0;19.43;-32.62;-15.75;209.4;-26.58;23.57;5.0;984.93;50.292;35.958313;-83.92446;808.6;NaN;;0.0;28.653463;;7 / 17;102020;2022-10-24 21:14:07:317
-7.2075;3.6846;7.2326;-2.5863;2.2378;9.191;-4.529;1.5712;-1.8251;-0.6078;-1.1695;-0.6435;8.0;23.19;-17.87;-11.47;234.29;-16.83;25.67;5.0;984.94;46.416;35.958317;-83.92447;808.95;NaN;;0.0;23.10514;;7 / 17;102520;2022-10-24 21:14:07:817
-2.2911;2.4263;9.1262;-3.1246;3.0587;8.7779;-0.3832;-1.7953;-0.0307;-0.352;1.135;1.2289;11.0;30.73;3.21;-22.59;300.88;-18.17;19.59;5.0;984.91;44.335;35.958317;-83.92447;808.95;NaN;;0.0;23.10514;;7 / 17;103020;2022-10-24 21:14:08:317
-2.8047;3.1854;9.1657;-2.1052;2.5867;9.2221;1.0464;0.8183;-1.6058;0.0799;-0.2491;-0.7449;9.0;39.73;-2.34;-18.47;278.24;-15.17;13.21;5.0;984.89;50.231;35.958286;-83.92445;808.96;NaN;;0.0;21.726028;;7 / 17;103521;2022-10-24 21:14:08:818
-4.9726;0.9194;5.2334;-2.5242;3.8069;8.6779;0.4772;-2.5312;-0.294;-0.3073;0.6723;0.1465;8.0;48.49;1.03;-17.64;287.36;-22.84;16.22;5.0;984.86;48.719;35.958286;-83.92445;808.96;NaN;;0.0;21.726028;;7 / 17;104022;2022-10-24 21:14:09:319
-2.12;0.8294;8.3327;-1.8252;1.119;9.5701;0.4126;0.2233;1.8081;0.3322;-0.3968;-0.4518;9.0;55.35;-8.92;-15.9;264.63;-6.71;14.25;5.0;984.86;42.989;35.95825;-83.92446;807.84;NaN;;0.0;18.413788;;7 / 17;104521;2022-10-24 21:14:09:818
-1.5311;0.3724;9.7594;-1.8578;2.3433;9.3396;-0.8253;-1.0384;3.5277;0.4433;0.4114;1.4284;25.0;57.98;-3.26;-20.83;271.94;-8.46;11.62;5.0;984.87;46.684;35.95825;-83.92446;807.84;NaN;;0.0;18.413788;;7 / 17;105021;2022-10-24 21:14:10:318
-1.8625;3.026;10.3869;-3.2036;4.2128;8.2559;-0.6356;-0.532;0.6352;0.2274;-1.2316;-0.1152;29.0;60.68;-14.85;-14.79;274.77;-24.66;28.15;5.0;984.84;53.617;35.95825;-83.92446;807.84;NaN;;0.0;18.413788;;9 / 17;105521;2022-10-24 21:14:10:818
-2.2445;3.839;8.3423;-1.9126;2.9172;9.1653;0.0901;-0.0952;0.5958;0.2415;-0.4171;-1.1475;29.0;63.39;-13.31;-13.01;266.13;-17.72;13.94;5.0;984.8;53.673;35.95825;-83.92446;807.84;NaN;;0.0;18.413788;;9 / 17;106020;2022-10-24 21:14:11:317
-0.4442;1.4163;10.2622;-1.5188;1.7717;9.5249;-1.7515;-0.1326;2.5568;1.28;-0.2162;-0.5333;28.0;62.96;5.36;-27.28;285.02;-15.4;11.36;5.0;984.84;54.847;35.958233;-83.92448;809.44;NaN;;0.0;18.63529;;11 / 17;106521;2022-10-24 21:14:11:818
1.6807;4.5894;8.4057;-1.1403;3.0207;9.2599;1.0964;0.1346;1.6697;0.9245;0.8432;-0.2499;47.0;42.3;13.24;-37.31;298.54;-15.07;1.24;5.0;984.79;46.143;35.958233;-83.92448;809.44;NaN;;0.0;18.63529;;11 / 17;107020;2022-10-24 21:14:12:317
-0.1567;1.6591;9.0497;0.0261;1.8059;9.6389;0.1879;0.3251;-0.4893;-0.8534;-0.7181;0.2896;70.0;24.23;19.03;-38.57;318.07;-11.12;0.66;5.0;984.79;46.09;35.958233;-83.92451;803.89;NaN;;0.0;16.949068;;13 / 17;107520;2022-10-24 21:14:12:817
-1.0427;1.7931;9.8327;-0.2108;0.6496;9.7828;3.1299;2.0437;1.0439;-0.6315;0.347;-0.2785;125.0;8.48;27.83;-36.92;346.67;-3.8;1.23;5.0;984.81;45.006;35.958233;-83.92451;803.89;NaN;;0.0;16.949068;;13 / 17;108020;2022-10-24 21:14:13:317
-0.7636;2.1978;8.4799;-0.8305;2.3077;9.495;0.1849;-0.7492;-0.5886;0.5514;0.3034;-0.2501;131.0;8.44;25.29;-40.35;349.74;-8.05;6.03;5.0;984.78;45.303;35.958233;-83.92451;803.89;NaN;;0.0;16.949068;;14 / 17;108520;2022-10-24 21:14:13:817
1.5108;1.9379;8.3542;0.3577;3.1589;9.2771;0.1312;-0.0324;1.1201;-0.3208;-0.3978;0.1387;132.0;2.61;16.69;-47.91;351.25;-18.79;-2.21;5.0;984.78;45.306;35.958233;-83.92451;803.89;NaN;;0.0;16.949068;;14 / 17;109020;2022-10-24 21:14:14:317
1.4426;2.5834;9.4448;1.209;2.6074;9.3761;0.5503;0.1818;-0.6274;-0.3451;0.0117;-0.3296;129.0;-7.48;13.22;-49.89;359.76;-17.32;-8.1;5.0;984.74;43.379;35.958233;-83.924515;801.35;NaN;;0.0;33.814026;;15 / 17;109521;2022-10-24 21:14:14:818
-2.3916;-0.1316;11.2487;-0.0929;1.9894;9.6023;1.2703;0.6656;0.4616;0.1067;0.577;0.0806;122.0;-10.71;13.09;-49.37;26.87;-11.7;0.55;5.0;984.75;42.857;35.958233;-83.924515;801.35;NaN;;0.0;33.814026;;15 / 17;110020;2022-10-24 21:14:15:317
-4.2126;2.132;10.145;-2.4744;2.6968;9.0981;-0.9079;0.2072;-1.0239;-0.6832;0.3958;0.7726;99.0;-1.99;10.37;-49.27;27.93;-19.89;13.63;5.0;984.73;43.794;35.958233;-83.924515;801.35;NaN;;0.0;33.814026;;16 / 17;110521;2022-10-24 21:14:15:818
-1.6675;1.5981;11.3719;-2.4169;3.8184;8.7034;0.6862;-0.6269;-1.0162;-0.4602;-0.0432;-0.0762;77.0;18.0;10.41;-48.28;353.36;-24.51;16.61;5.0;984.74;44.548;35.958233;-83.924515;801.35;NaN;;0.0;33.814026;;16 / 17;111021;2022-10-24 21:14:16:318
-2.3282;3.8617;8.1568;-3.1603;4.3366;8.2084;1.6973;-1.0695;0.3045;-0.0496;0.9645;0.5006;98.0;23.57;5.18;-49.11;340.78;-25.59;15.9;5.0;984.71;47.06;35.958233;-83.924515;801.35;NaN;;0.0;33.814026;;16 / 17;111521;2022-10-24 21:14:16:818