sep=;
ACCELEROMETER X (m/s²);ACCELEROMETER Y (m/s²);ACCELEROMETER Z (m/s²);GRAVITY X (m/s²);GRAVITY Y (m/s²);GRAVITY Z (m/s²);LINEAR ACCELERATION X (m/s²);LINEAR ACCELERATION Y (m/s²);LINEAR ACCELERATION Z (m/s²);GYROSCOPE X (rad/s);GYROSCOPE Y (rad/s);GYROSCOPE Z (rad/s);LIGHT (lux);MAGNETIC FIELD X (μT);MAGNETIC FIELD Y (μT);MAGNETIC FIELD Z (μT);ORIENTATION Z (azimuth °);ORIENTATION X (pitch °);ORIENTATION Y (roll °);PROXIMITY (i);ATMOSPHERIC PRESSURE (hPa);SOUND LEVEL (dB);LOCATION Latitude : ;LOCATION Longitude : ;LOCATION Altitude ( m);LOCATION Altitude-google ( m);LOCATION Altitude-atmospheric pressure ( m);LOCATION Speed ( Kmh);LOCATION Accuracy ( m);LOCATION ORIENTATION (°);Satellites in range;Time since start in ms ;YYYY-MO-DD HH-MI-SS_SSS
-1.6998;-0.0826;9.8722;-0.95;2.2508;9.4975;0.4408;-0.1058;2.1785;0.3733;-0.2714;-0.8594;5.0;22.09;-26.21;-14.55;223.66;-13.27;5.71;5.0;990.62;40.227;35.957973;-83.922646;;NaN;;;1612.9032;;0 / 15;7;2022-10-22 18:40:35:289
-1.142;1.8458;9.501;-1.9481;1.1976;9.5363;0.0386;-0.1086;0.2937;0.5813;-0.1923;-0.0919;4.0;30.34;-28.65;-17.62;224.88;-7.01;11.55;5.0;990.54;57.139;35.957973;-83.922646;;NaN;;;1612.9032;;0 / 15;506;2022-10-22 18:40:35:788
-1.8194;2.5319;7.5126;-1.37;2.1353;9.4728;0.344;-0.3021;-1.2478;-0.1061;0.2926;-0.3373;4.0;36.45;-36.07;-23.53;228.14;-12.58;8.23;5.0;990.56;48.011;35.957973;-83.922646;;NaN;;;1612.9032;;0 / 15;1007;2022-10-22 18:40:36:289
-0.2273;1.7584;7.1668;-0.8722;1.9732;9.5664;1.0572;-0.9312;-0.8;0.5092;0.2446;-0.2621;4.0;44.76;-33.92;-26.78;236.23;-9.94;5.99;5.0;990.53;38.619;35.957973;-83.922646;;NaN;;;1612.9032;;0 / 15;1506;2022-10-22 18:40:36:788
-2.2911;0.2886;10.4181;-2.2805;0.2911;9.5334;-2.1669;-2.4818;-0.814;-1.5897;0.2229;0.0043;3.0;53.57;-21.28;-28.82;246.63;-1.7;13.45;5.0;990.53;32.751;35.957973;-83.922646;;NaN;;;1612.9032;;0 / 15;2007;2022-10-22 18:40:37:289
-1.3968;3.9503;8.4009;-5.3603;1.4636;8.0805;3.1543;2.0404;-0.3687;-0.5208;0.2838;0.8317;7.0;47.96;-33.47;-23.87;226.35;-4.36;28.15;5.0;990.52;50.02;35.957973;-83.922646;;NaN;;;1612.9032;;0 / 15;2506;2022-10-22 18:40:37:788
-2.278;-0.2838;9.6171;-2.3379;-2.1295;9.2828;0.1105;0.4645;1.2278;0.6694;-1.1352;3.264;11.0;34.11;-66.09;-24.64;202.58;5.4;11.12;5.0;990.49;45.385;35.957973;-83.922646;;NaN;;;1612.9032;;0 / 15;3006;2022-10-22 18:40:38:288
1.2736;-1.8003;9.3766;1.592;0.4279;9.6671;0.548;-1.4461;-1.0515;0.1849;-0.4433;0.1125;9.0;28.16;-72.99;-37.65;203.3;-0.05;-5.35;5.0;990.46;32.656;35.957973;-83.922646;;NaN;;;1612.9032;;0 / 15;3506;2022-10-22 18:40:38:788
0.3413;0.5112;10.6071;0.1256;0.1285;9.805;-0.4175;0.9008;0.2286;0.0579;-0.2547;0.0768;6.0;41.18;-68.16;-32.21;211.5;-0.75;-0.73;5.0;990.43;49.391;35.957973;-83.922646;;NaN;;;1612.9032;;0 / 15;4007;2022-10-22 18:40:39:289
0.8584;0.2058;9.1765;0.585;0.7443;9.7609;0.0035;-0.8624;0.3553;-0.1251;0.3402;-0.9613;12.0;39.64;-59.91;-26.21;216.17;-6.27;-4.12;5.0;990.44;51.636;35.957973;-83.922646;;NaN;;;1612.9032;;0 / 15;4508;2022-10-22 18:40:39:790
1.5586;-1.3705;8.633;1.6672;-0.082;9.6636;-0.018;-0.697;-2.3015;-0.2145;-1.0477;-0.9411;15.0;30.17;-49.41;-28.5;215.04;0.48;-9.79;5.0;990.41;45.195;35.957973;-83.922646;;NaN;;;1612.9032;;0 / 15;5009;2022-10-22 18:40:40:291
-0.262;-0.0969;7.4264;-1.7918;-0.3626;9.6348;1.0274;-0.2241;-1.388;0.4892;-0.4892;-0.5532;22.0;37.84;-36.6;-24.26;220.87;2.12;10.53;5.0;990.4;37.073;35.957973;-83.922646;;NaN;;;1612.9032;;0 / 15;5506;2022-10-22 18:40:40:788
-0.6188;-1.1492;9.1083;-0.004;-0.3203;9.8014;-0.5166;-1.4054;-0.364;-0.1051;-0.2316;-1.7095;23.0;33.96;-26.94;-27.75;230.71;-0.11;2.15;5.0;990.38;27.787;35.957973;-83.922646;;NaN;;;1612.9032;;0 / 15;6006;2022-10-22 18:40:41:288
0.0407;0.431;9.5345;-0.5373;1.5507;9.6683;0.0585;-0.4602;0.5349;-0.3275;-0.584;0.2594;10.0;27.77;-15.3;-42.39;252.8;-9.1;3.18;5.0;990.41;44.199;35.957973;-83.922646;;NaN;;;1612.9032;;0 / 15;6506;2022-10-22 18:40:41:788
-2.1894;-4.101;13.7121;0.3835;0.5758;9.7822;0.0953;-1.3099;0.1924;-1.346;-0.3683;-1.7505;8.0;14.93;-13.69;-51.6;237.23;-3.37;-2.24;5.0;990.38;35.136;35.957973;-83.922646;;NaN;;;1612.9032;;0 / 15;7006;2022-10-22 18:40:42:288
-0.0526;-2.916;12.69;-0.2309;-0.4801;9.7922;4.0E-4;0.107;2.7188;0.5069;0.5056;0.398;20.0;7.58;-2.76;-49.52;227.76;6.37;-1.56;5.0;990.47;26.347;35.957973;-83.922646;;NaN;;;1612.9032;;0 / 15;7506;2022-10-22 18:40:42:788
1.5215;0.2946;9.1143;1.836;0.54;9.6181;1.6613;0.5296;-2.0371;-0.4765;0.1864;-0.5583;20.0;2.59;-5.42;-45.62;264.83;-3.86;-7.06;5.0;990.46;41.356;35.957973;-83.922646;;NaN;;;1612.9032;;0 / 15;8007;2022-10-22 18:40:43:289
0.935;-1.1755;8.3746;1.5294;-0.3838;9.6791;-0.4441;-0.7641;-1.0263;-0.1416;-0.007;-0.6008;8.0;1.24;-1.39;-43.82;251.98;1.87;-8.41;5.0;990.35;35.489;35.957973;-83.922646;;NaN;;;1612.9032;;0 / 15;8507;2022-10-22 18:40:43:789
-1.3777;1.3382;9.9296;-1.4061;1.4596;9.5949;-0.1558;0.5016;-0.9639;0.1138;0.0795;0.1093;2.0;11.55;1.73;-42.64;303.49;-5.96;2.87;5.0;990.39;34.672;35.957973;-83.922646;;NaN;;;1612.9032;;0 / 15;9007;2022-10-22 18:40:44:289
-2.9447;-1.2102;7.1417;-3.2579;-0.7606;9.2184;-1.9151;-1.5199;0.987;0.0378;0.0633;-0.9583;5.0;41.18;10.59;-37.82;285.34;4.45;19.46;5.0;990.38;42.823;35.957973;-83.922646;;NaN;;;1612.9032;;0 / 15;9507;2022-10-22 18:40:44:789
-2.6731;-0.2189;7.7462;-2.8675;-0.4427;9.3676;-2.044;-0.161;0.4695;0.4499;-0.0738;1.0334;8.0;38.59;26.42;-30.07;304.4;6.94;13.47;5.0;990.29;39.705;35.957973;-83.922646;;NaN;;;1612.9032;;0 / 15;10009;2022-10-22 18:40:45:291
0.8548;-1.398;7.6229;-1.8618;-1.2476;9.5471;-1.1697;-2.0891;1.8255;0.4226;0.0544;-1.3573;8.0;33.36;25.8;-22.99;308.31;7.31;11.03;5.0;990.32;41.222;35.957973;-83.922646;;NaN;;;1612.9032;;0 / 15;10508;2022-10-22 18:40:45:790
-4.0041;-1.3143;11.4209;-2.5472;-0.4218;9.4607;-1.6768;0.8594;2.4031;-0.8411;0.0593;0.9873;9.0;19.37;37.65;-17.03;339.4;2.46;15.07;5.0;990.32;40.135;35.957973;-83.922646;;NaN;;;1612.9032;;0 / 15;11008;2022-10-22 18:40:46:290
-1.2688;-3.5862;10.3041;2.3412;-2.5576;9.1732;0.731;-1.9929;1.0288;-0.1623;2.3481;-1.0381;9.0;25.24;38.59;-15.15;321.78;15.12;-14.32;5.0;990.3;42.8;35.957973;-83.922646;;NaN;;;1612.9032;;0 / 15;11507;2022-10-22 18:40:46:789
-1.6244;-1.6519;10.7399;-0.6951;-2.5593;9.4413;1.328;2.205;0.4201;-0.643;0.0993;0.253;10.0;24.62;44.12;-7.78;328.27;15.88;2.46;5.0;990.3;44.461;35.957973;-83.922646;;NaN;;;1612.9032;;0 / 15;12006;2022-10-22 18:40:47:288
-2.8119;-2.1069;7.9388;0.0575;-1.7826;9.6431;-1.7932;-0.9564;-1.836;0.2643;1.5647;-0.9227;15.0;26.72;44.14;-5.62;327.36;10.47;-0.34;5.0;990.25;47.561;35.957973;-83.922646;;NaN;;;1612.9032;;0 / 15;12506;2022-10-22 18:40:47:788
0.8847;0.207;10.8296;0.1733;-1.5444;9.6827;0.9577;-0.0597;0.0558;0.3448;0.3401;-0.0446;22.0;9.3;44.61;-12.64;347.72;9.06;-1.03;5.0;990.27;38.828;35.957973;-83.922646;;NaN;;;1612.9032;;0 / 15;13007;2022-10-22 18:40:48:289
0.4501;0.5506;9.7511;-0.0356;1.7883;9.6422;0.6682;-1.3297;-2.0767;0.6152;0.2569;-0.5456;25.0;8.59;36.0;-33.47;346.57;-6.59;-0.76;5.0;990.17;48.653;35.957973;-83.922646;;NaN;;;1612.9032;;0 / 15;13506;2022-10-22 18:40:48:788
-0.6942;-0.2213;7.751;1.2054;-0.3814;9.7248;-3.8095;-1.5945;1.901;1.1055;-1.4666;-1.1973;26.0;-8.83;31.13;-46.39;6.41;2.23;-7.07;5.0;990.15;49.451;35.957973;-83.922646;;NaN;;;1612.9032;;0 / 15;14007;2022-10-22 18:40:49:289
1.2042;2.0889;10.1845;3.3668;1.3471;9.1115;-1.4035;0.0097;0.6426;0.5098;-0.5937;1.5681;30.0;-33.3;21.84;-40.41;32.96;-8.62;-18.27;5.0;990.19;42.16;35.957973;-83.922646;;NaN;;;1612.9032;;0 / 15;14507;2022-10-22 18:40:49:789
1.4773;3.1113;9.9978;3.7339;2.8988;8.5921;0.6267;-1.4032;0.2865;-0.7292;-0.2986;-1.5558;17.0;-32.27;19.99;-37.07;32.58;-13.81;-17.66;5.0;990.2;45.651;35.957973;-83.922646;;NaN;;;1612.9032;;0 / 15;15006;2022-10-22 18:40:50:288
1.8027;3.2919;9.4543;3.3803;2.6315;8.8215;0.4148;-0.0644;0.1529;-0.0806;0.0474;0.2556;13.0;-34.46;12.39;-28.95;43.74;-16.93;-20.26;5.0;990.19;46.348;35.957973;-83.922646;;NaN;;;1612.9032;;0 / 15;15507;2022-10-22 18:40:50:789
0.8174;4.7019;11.1649;2.7286;4.2104;8.426;-1.0832;1.0848;3.6167;-0.7544;0.5734;-1.6326;15.0;-34.69;4.44;-24.32;55.14;-25.43;-17.94;5.0;990.24;39.309;35.957973;-83.922646;;NaN;;;1612.9032;;0 / 15;16007;2022-10-22 18:40:51:289
2.272;5.6082;10.6071;1.6006;3.7222;8.9305;0.7502;-0.0487;0.1015;1.7233;-1.4469;0.7669;14.0;-30.04;-7.56;-16.39;83.36;-25.51;-15.47;5.0;990.19;36.203;35.957973;-83.922646;;NaN;;;1612.9032;;0 / 15;16506;2022-10-22 18:40:51:788
2.3282;3.2501;6.9272;2.2398;4.3583;8.4947;-0.4735;-0.6475;-2.032;-0.4236;-0.3971;0.1116;5.0;-23.21;-9.79;-16.8;85.02;-32.33;-12.98;5.0;990.2;42.566;35.957973;-83.922646;;NaN;;;1612.9032;;0 / 15;17007;2022-10-22 18:40:52:289
-0.443;2.0327;9.9559;0.2542;3.0851;9.3053;-1.47;1.3141;2.5065;0.1464;-0.1889;-0.4206;4.0;-21.69;-7.26;-25.41;86.22;-18.34;-1.56;5.0;990.17;41.159;35.957973;-83.922646;;NaN;;;1612.9032;;0 / 15;17507;2022-10-22 18:40:52:789
-1.0798;3.5647;10.2299;0.8426;2.4944;9.4466;-0.4934;1.4995;3.8795;-0.3967;-0.5488;0.0578;4.0;-15.24;-19.24;-33.9;92.49;-24.04;-5.05;5.0;990.14;31.549;35.957973;-83.922646;;NaN;;;1612.9032;;0 / 15;18006;2022-10-22 18:40:53:288
-0.1854;1.5538;7.0651;-1.5475;3.366;9.0799;0.112;0.2701;-1.7883;-0.6217;-0.3397;0.6894;5.0;0.02;-25.05;-36.37;151.84;-20.07;9.67;5.0;990.08;45.921;35.957973;-83.922646;;NaN;;;1612.9032;;0 / 15;18507;2022-10-22 18:40:53:789
-3.0176;4.3238;9.3467;-0.6108;2.5648;9.4456;-2.4918;2.4441;1.32;0.0457;0.3357;0.1813;6.0;0.77;-24.92;-37.82;174.15;-15.16;3.7;5.0;990.07;54.319;35.957973;-83.922646;;NaN;;;1612.9032;;0 / 15;19007;2022-10-22 18:40:54:289
0.7851;0.5602;8.723;0.101;1.0074;9.7543;-0.0197;-0.9451;-1.8587;-0.067;-1.0852;-0.1691;9.0;5.16;-34.12;-36.04;180.57;-7.74;7.46;5.0;990.02;38.541;35.957973;-83.922646;;NaN;;;1612.9032;;0 / 15;19507;2022-10-22 18:40:54:789
0.1077;1.2317;5.9949;0.1969;2.4519;9.4931;-2.0801;1.6666;-0.058;-0.5065;-0.5156;0.2795;8.0;1.91;-36.66;-37.74;184.5;-11.94;-0.34;5.0;989.99;40.136;35.957973;-83.922646;;NaN;;;1612.9032;;0 / 15;20006;2022-10-22 18:40:55:288
2.5259;0.929;8.8259;1.8478;1.445;9.522;0.8121;-0.6133;-0.5486;-0.1534;-0.2828;-0.0195;8.0;-9.24;-41.76;-34.63;174.26;-8.78;-8.67;5.0;990.02;28.796;35.957973;-83.922646;;NaN;;;1612.9032;;0 / 15;20507;2022-10-22 18:40:55:789
2.12;0.8548;8.8534;2.2605;1.6703;9.3952;-1.305;-1.1627;-0.343;0.4284;-0.4186;-0.6205;8.0;-13.27;-40.87;-32.16;171.03;-4.66;-12.09;5.0;990.02;43.819;35.957973;-83.922646;;NaN;;;1612.9032;;0 / 15;21006;2022-10-22 18:40:56:288
2.0303;2.1523;8.4488;1.8474;2.5905;9.2761;-2.289;-0.0685;0.5163;-0.1251;-0.3693;-1.9519;13.0;5.61;-43.2;-22.67;198.17;-15.84;-14.94;5.0;990.02;39.678;35.957973;-83.922646;;NaN;;;1612.9032;;0 / 15;21506;2022-10-22 18:40:56:788
1.634;0.7756;8.5397;1.9276;1.9619;9.4131;-1.3022;2.1158;1.1204;-1.182;-0.7316;-2.1177;17.0;26.72;-21.3;-21.49;241.9;-14.97;-12.03;5.0;990.05;32.471;35.957973;-83.922646;;NaN;;;1612.9032;;0 / 15;22006;2022-10-22 18:40:57:288
1.9379;1.5766;9.7032;2.5942;1.4845;9.3401;0.2519;-0.8241;0.8004;0.2191;-0.4282;0.1031;16.0;4.07;20.61;-31.33;333.87;-5.59;-14.51;5.0;990.03;35.955;35.957973;-83.922646;;NaN;;;1612.9032;;0 / 15;22507;2022-10-22 18:40:57:789
3.7038;0.6523;10.0816;3.268;1.8969;9.0494;0.1809;-0.5701;0.2625;-0.0693;-0.2785;-0.8198;11.0;-12.43;16.11;-28.69;3.94;-10.04;-19.81;5.0;990.03;39.065;35.957973;-83.922646;;NaN;;;1612.9032;;0 / 15;23007;2022-10-22 18:40:58:289
-0.0502;1.3741;10.2921;1.2554;0.8636;9.6875;0.3586;-0.9554;-3.6644;0.626;0.081;0.0969;10.0;-11.89;1.74;-11.38;73.59;-5.05;-7.38;5.0;990.08;39.96;35.957973;-83.922646;;NaN;;;1612.9032;;0 / 15;23507;2022-10-22 18:40:58:789
3.4259;2.5283;8.4452;2.6497;3.0361;8.9404;0.5106;-0.728;-1.6801;-0.5104;-0.5074;-0.5089;15.0;11.85;4.2;-2.34;288.85;-14.29;-4.48;5.0;990.01;31.918;35.957973;-83.922646;;NaN;;;1612.9032;;0 / 15;24006;2022-10-22 18:40:59:288
0.1352;0.577;6.5922;0.5148;2.2144;9.5395;-2.0845;0.6456;3.0621;-0.7746;-0.9531;-0.8524;10.0;15.66;45.45;10.48;339.54;-13.05;-3.09;5.0;990.01;39.393;35.957973;-83.922646;;NaN;;;1612.9032;;0 / 15;24506;2022-10-22 18:40:59:788
-1.4474;2.9818;7.8622;-1.4649;3.1;9.1877;-1.8178;2.5703;1.8061;-0.0404;0.1241;0.5223;3.0;-12.58;49.44;17.06;16.19;-6.3;-2.12;5.0;990.04;33.059;35.957973;-83.922646;;NaN;;;1612.9032;;0 / 15;25006;2022-10-22 18:41:00:288
-1.4414;6.3634;12.332;-0.6871;4.3783;8.7481;-0.334;2.6587;5.376;0.1732;-0.9357;-0.9341;4.0;-21.66;34.61;-15.88;33.56;-24.17;9.93;5.0;990.0;37.806;35.957973;-83.922646;;NaN;;;1612.9032;;0 / 15;25506;2022-10-22 18:41:00:788
5.91;-0.5231;9.3778;3.8457;1.3288;8.9227;-1.2852;0.8525;0.3674;2.1249;-0.719;0.2728;5.0;-37.59;15.92;-1.52;61.02;-13.03;-21.58;5.0;989.97;30.791;35.957973;-83.922646;;NaN;;;1612.9032;;0 / 15;26006;2022-10-22 18:41:01:288
6.9954;1.4198;11.3157;3.6063;3.3374;8.4869;2.4364;-1.2986;-0.5672;0.4453;0.8673;0.0776;4.0;-8.21;7.82;19.74;83.36;-18.52;-28.87;5.0;989.99;40.311;35.957973;-83.922646;;NaN;;;1612.9032;;0 / 15;26513;2022-10-22 18:41:01:795
4.6241;1.9175;8.0596;4.402;2.4434;8.4156;-2.3657;0.0371;-1.5208;-1.0135;0.6858;-0.9299;5.0;-4.74;11.42;4.91;33.68;-14.43;-27.61;5.0;989.91;42.519;35.957973;-83.922646;;NaN;;;1612.9032;;0 / 15;27006;2022-10-22 18:41:02:288
1.2903;4.4662;6.4558;1.5906;4.3165;8.6607;-1.7321;1.7382;-1.8403;0.3999;0.825;1.1078;5.0;-10.22;10.37;-7.2;31.88;-22.63;-14.34;5.0;989.92;38.513;35.957973;-83.922646;;NaN;;;1612.9032;;0 / 15;27507;2022-10-22 18:41:02:789
0.4884;4.4877;7.436;1.2721;4.9273;8.383;-1.6226;1.1025;-0.2924;-0.6307;-0.7985;-0.4359;5.0;-6.79;9.86;-15.71;13.39;-34.37;-9.57;5.0;989.87;43.395;35.957973;-83.922646;;NaN;;;1612.9032;;0 / 15;28006;2022-10-22 18:41:03:288
0.8043;5.5639;12.143;0.8638;4.0566;8.8864;0.2053;0.4699;0.9431;1.2498;0.1798;0.099;7.0;-5.7;20.68;-24.15;7.11;-24.43;-5.55;5.0;989.91;41.501;35.957973;-83.922646;;NaN;;;1612.9032;;0 / 15;28506;2022-10-22 18:41:03:788
1.4904;6.1744;10.8882;0.4997;5.7046;7.961;1.853;-1.2142;0.5381;0.0881;0.4545;0.0591;9.0;-5.1;19.69;-30.92;3.51;-35.79;-5.3;5.0;989.89;39.844;35.957973;-83.922646;;NaN;;;1612.9032;;0 / 15;29006;2022-10-22 18:41:04:288
1.4809;2.7221;8.8499;1.1162;4.2815;8.7518;-0.6965;-0.8967;-1.8628;-0.5159;-0.1462;-0.668;14.0;1.31;24.73;-37.71;351.52;-25.89;-7.27;5.0;989.84;34.823;35.957973;-83.922646;;NaN;;;1612.9032;;0 / 15;29507;2022-10-22 18:41:04:789
1.3478;1.9944;7.4767;1.3636;2.7307;9.3196;-0.9072;0.5855;-1.4196;-0.3226;0.035;0.7029;16.0;-5.66;26.94;-35.06;2.43;-20.69;-7.14;5.0;989.85;35.207;35.957973;-83.922646;;NaN;;;1612.9032;;0 / 15;30006;2022-10-22 18:41:05:288
-0.862;3.9467;10.0301;1.6957;3.5174;8.9957;-0.3285;-0.5912;2.2971;-0.2755;0.367;-1.3194;17.0;-0.56;18.73;-34.48;349.88;-21.02;-10.68;5.0;989.83;39.577;35.957973;-83.922646;;NaN;;;1612.9032;;0 / 15;30506;2022-10-22 18:41:05:788
1.2461;4.5607;12.3404;1.3544;2.5354;9.3759;0.129;-1.5645;1.4733;0.1442;0.219;-0.3764;26.0;0.92;9.39;-33.68;341.71;-15.28;-8.11;5.0;989.83;34.757;35.957973;-83.922646;;NaN;;;1612.9032;;0 / 15;31006;2022-10-22 18:41:06:288
3.6763;2.6336;8.2238;2.9575;2.3203;9.0576;0.0992;0.3282;-1.108;-0.8292;-0.8792;-1.5523;27.0;2.29;-3.0;-35.25;300.17;-15.96;-14.69;5.0;989.78;33.36;35.957973;-83.922646;;NaN;;;1612.9032;;0 / 15;31506;2022-10-22 18:41:06:788
3.3793;1.1587;8.2454;3.6344;1.5373;8.9777;-0.85;-0.5743;-0.7746;-0.1731;0.1029;-0.6381;19.0;-4.24;1.54;-39.54;305.37;-9.02;-22.04;5.0;989.75;40.581;35.957973;-83.922646;;NaN;;;1612.9032;;0 / 15;32008;2022-10-22 18:41:07:290
3.0033;2.4084;8.5002;3.4767;1.534;9.0405;0.5329;-1.3154;0.0934;0.7019;-0.4868;-0.0799;26.0;-3.07;16.41;-39.75;333.84;-5.48;-18.21;5.0;989.77;38.956;35.957973;-83.922646;;NaN;;;1612.9032;;0 / 15;32507;2022-10-22 18:41:07:789
3.4726;0.0814;12.1334;2.7642;1.2282;9.3285;0.7121;-0.6471;-0.5435;-0.3889;-0.3018;-1.1954;17.0;-11.68;21.23;-45.77;346.94;-7.62;-18.33;5.0;989.8;39.818;35.957973;-83.922646;;NaN;;;1612.9032;;0 / 15;33006;2022-10-22 18:41:08:288
2.4431;1.9765;9.0233;2.5336;1.9538;9.27;-0.3484;-0.6745;-0.624;-0.1494;-0.2509;-0.7221;16.0;-34.03;17.12;-40.57;41.42;-10.58;-14.61;5.0;989.77;31.93;35.957973;-83.922646;;NaN;;;1612.9032;;0 / 15;33506;2022-10-22 18:41:08:788
2.5822;1.78;8.79;2.0524;3.2097;9.0364;0.7036;-1.5161;-0.3233;0.072;-0.0796;-0.5766;24.0;-40.09;3.39;-26.87;69.6;-14.8;-13.83;5.0;989.76;41.984;35.957973;-83.922646;;NaN;;;1612.9032;;0 / 15;34006;2022-10-22 18:41:09:288
0.3975;3.7229;9.2195;1.2464;3.4081;9.1105;-1.3176;0.7086;-0.0285;0.0996;-0.6836;-0.4799;19.0;-45.45;-9.9;-9.36;94.72;-19.7;-11.15;5.0;989.77;50.257;35.957973;-83.922646;;NaN;;;1612.9032;;0 / 15;34506;2022-10-22 18:41:09:788
3.0691;4.6098;8.4236;1.7318;4.3167;8.6335;-0.0053;-0.2545;0.2778;0.4684;0.0243;0.243;6.0;-42.32;-27.21;4.01;119.46;-22.27;-9.85;5.0;989.77;34.738;35.957973;-83.922646;;NaN;;;1612.9032;;0 / 15;35006;2022-10-22 18:41:10:288
1.1982;1.8254;8.2585;2.5113;3.4523;8.8287;-2.0227;-0.0886;-1.371;-0.5685;0.2978;-0.3683;5.0;-35.44;-18.73;5.08;114.69;-20.61;-15.88;5.0;989.76;43.344;35.957973;-83.922646;;NaN;;;1612.9032;;0 / 15;35506;2022-10-22 18:41:10:788
0.5183;4.4698;8.129;1.0425;3.8919;8.9407;-1.2711;0.91;0.48;0.5814;0.9686;0.4138;3.0;-29.38;-19.87;-0.17;122.11;-15.91;-9.18;5.0;989.73;38.216;35.957973;-83.922646;;NaN;;;1612.9032;;0 / 15;36006;2022-10-22 18:41:11:288
-1.1192;3.8091;10.5269;-0.1248;2.917;9.3619;-1.6646;-0.075;1.9072;-0.0408;-0.9547;-1.7081;4.0;-25.44;-23.74;-3.07;131.46;-17.3;0.76;5.0;989.73;49.742;35.957973;-83.922646;;NaN;;;1612.9032;;0 / 15;36507;2022-10-22 18:41:11:789
1.5419;1.5742;7.6205;1.9879;2.7159;9.211;-1.5591;0.2697;-1.1487;-0.004;0.2593;0.3418;4.0;-11.59;-31.18;-5.83;158.52;-15.01;-8.37;5.0;989.69;50.464;35.957973;-83.922646;;NaN;;;1612.9032;;0 / 15;37007;2022-10-22 18:41:12:289
-0.3843;1.0235;8.2669;0.6352;1.7207;9.6336;-0.5774;-0.1518;-1.0499;-0.4765;-0.1377;-0.2451;3.0;-2.53;-25.72;-1.59;173.49;-15.21;-5.53;5.0;989.69;45.157;35.957973;-83.922646;;NaN;;;1612.9032;;0 / 15;37506;2022-10-22 18:41:12:788
0.5973;2.4766;7.6516;0.2976;1.7565;9.6435;-1.2413;1.9094;1.912;0.2764;-0.3828;0.6443;4.0;6.3;-19.37;-6.0;199.3;-10.32;-1.77;5.0;989.64;40.607;35.957973;-83.922646;;NaN;;;1612.9032;;0 / 15;38009;2022-10-22 18:41:13:291
2.0877;2.8071;9.5943;1.0747;3.2329;9.1959;1.1861;0.2836;1.0137;0.1526;0.1905;-0.7976;4.0;8.81;-15.88;-8.74;217.65;-16.31;-8.22;5.0;989.64;37.788;35.957973;-83.922646;;NaN;;;1612.9032;;0 / 15;38509;2022-10-22 18:41:13:791
1.5885;2.5606;12.3882;1.5722;1.6898;9.5312;0.3249;-0.3928;-0.4787;0.8902;0.1258;-0.4434;7.0;11.51;-9.75;-13.05;240.65;-11.61;-5.6;5.0;989.63;40.097;35.957973;-83.922646;;NaN;;;1612.9032;;0 / 15;39007;2022-10-22 18:41:14:289
2.4455;2.7867;10.7602;1.37;2.5445;9.3712;0.3145;0.2424;-1.2141;-0.0509;-0.1403;0.1448;7.0;4.44;-4.31;-23.53;286.13;-15.04;-8.32;5.0;989.6;52.108;35.957973;-83.922646;;NaN;;;1612.9032;;0 / 15;39506;2022-10-22 18:41:14:788
2.9447;2.0064;7.7605;0.717;2.0284;9.5677;1.6737;-0.5326;-2.0715;-0.7664;-0.0928;-0.8443;9.0;0.81;-5.74;-26.53;304.94;-17.62;-5.16;5.0;989.56;46.269;35.957973;-83.922646;;NaN;;;1612.9032;;0 / 15;40006;2022-10-22 18:41:15:288
-0.3592;0.4442;8.1194;-0.9757;2.2938;9.4846;-0.2164;-0.0889;-1.2009;-0.0335;-0.1617;-0.1104;15.0;1.74;-15.08;-30.24;171.86;-13.53;5.87;5.0;989.56;40.719;35.957973;-83.922646;;NaN;;;1612.9032;;0 / 15;40506;2022-10-22 18:41:15:788
-2.12;4.3609;10.2275;0.1318;4.0542;8.9284;-1.0873;2.1192;4.0064;-0.3941;1.1275;-1.2501;24.0;-4.61;-26.16;-30.6;165.67;-14.4;-1.0;5.0;989.57;46.794;35.957973;-83.922646;;NaN;;;1612.9032;;0 / 15;41006;2022-10-22 18:41:16:288
2.7006;2.9028;8.1413;1.9526;2.9692;9.1401;-0.3557;-1.7064;-0.5738;0.3347;-0.7291;-0.3457;17.0;-7.44;-35.34;-27.6;177.68;-17.62;-12.06;5.0;989.55;41.578;35.957973;-83.922646;;NaN;;;1612.9032;;0 / 15;41507;2022-10-22 18:41:16:789
1.7548;3.0607;7.7354;0.9374;3.9728;8.9168;-0.4383;0.4154;0.6512;0.5434;-0.0944;-0.3893;14.0;-12.13;-34.59;-26.68;174.6;-21.88;-20.02;5.0;989.56;42.127;35.957973;-83.922646;;NaN;;;1612.9032;;0 / 15;42006;2022-10-22 18:41:17:288
-2.5487;3.4247;11.2618;0.0288;2.6546;9.4405;-1.0433;-1.6303;4.153;-0.1528;-1.4407;-1.6992;17.0;-3.3;-33.77;-22.41;173.75;-15.71;-0.18;5.0;989.53;45.401;35.957973;-83.922646;;NaN;;;1612.9032;;0 / 15;42506;2022-10-22 18:41:17:788
1.6507;4.6564;12.2339;1.1683;3.2951;9.1623;1.5219;-0.5548;1.6039;1.3464;-0.5872;0.5146;13.0;4.07;-25.03;-24.17;201.02;-14.71;-7.31;5.0;989.55;36.368;35.958344;-83.924355;778.71;NaN;;;94.05484;;0 / 15;43007;2022-10-22 18:41:18:289
0.5016;3.8641;7.57;0.6532;4.3124;8.7833;-0.1366;-1.1854;-1.4197;-0.1306;-0.2031;-0.6438;8.0;0.56;-23.7;-30.04;209.67;-27.79;-6.13;5.0;989.53;39.209;35.958344;-83.924355;778.71;NaN;;;94.05484;;0 / 15;43506;2022-10-22 18:41:18:788
-2.3378;3.3027;7.2864;-1.5432;3.8302;8.8949;-1.3597;1.3976;0.7242;-0.5033;-1.6119;-0.711;8.0;-5.12;-25.74;-38.7;105.02;-30.8;9.63;5.0;989.5;40.839;35.958344;-83.924355;778.71;NaN;;;94.05484;;0 / 15;44006;2022-10-22 18:41:19:288
-5.1173;3.6727;11.3791;-1.9685;2.4881;9.2793;-2.6403;1.0471;1.746;0.2515;0.8136;0.5462;9.0;-2.27;-24.09;-38.18;167.16;-12.54;2.21;5.0;989.5;41.71;35.958344;-83.924355;778.71;NaN;;;94.05484;;0 / 15;44506;2022-10-22 18:41:19:788
-3.8509;1.5706;8.2334;-2.5665;2.3106;9.1785;1.8737;-1.3163;0.9406;-0.2811;0.3903;-0.2152;9.0;8.59;-22.56;-32.12;180.2;-13.63;15.62;5.0;989.49;41.501;35.958344;-83.924355;778.71;NaN;;;94.05484;;0 / 15;45007;2022-10-22 18:41:20:289
-3.7146;1.6759;11.263;-2.0465;-0.6221;9.5705;-0.1246;0.0309;-0.25;-0.0282;-0.2795;-0.09;8.0;13.99;-13.69;-27.17;206.82;1.28;13.31;5.0;989.47;36.019;35.958344;-83.924355;778.71;NaN;;;94.05484;;0 / 15;45506;2022-10-22 18:41:20:788
-0.8883;2.9303;10.7124;-1.27;3.7243;8.9826;1.4669;-0.7816;3.1373;0.7994;0.3625;-0.5194;8.0;25.54;3.54;-17.18;296.16;-22.32;8.05;5.0;989.48;50.704;35.958344;-83.924355;778.71;NaN;;;94.05484;;0 / 15;46006;2022-10-22 18:41:21:288
1.3717;3.754;9.944;1.3156;1.7394;9.5611;-1.0302;1.9033;0.1769;1.0888;-0.3037;0.2346;9.0;23.01;22.59;-21.92;317.32;-13.18;-5.02;5.0;989.39;47.297;35.958344;-83.924355;778.71;NaN;;;94.05484;;0 / 15;46506;2022-10-22 18:41:21:788
1.829;2.7568;9.2471;0.9534;4.333;8.7456;0.9257;-1.4066;-0.2801;0.2791;0.3437;0.049;10.0;14.21;36.49;-37.67;334.65;-22.49;-12.56;5.0;989.4;38.97;35.958344;-83.924355;778.71;NaN;;;94.05484;;0 / 15;47006;2022-10-22 18:41:22:288
-0.9266;3.5264;8.7171;0.2488;4.2438;8.8373;0.0823;0.1176;-0.2618;-0.5406;-0.364;-0.3358;14.0;6.43;37.11;-52.74;352.41;-25.64;-1.61;5.0;989.39;43.999;35.958344;-83.924355;778.71;NaN;;;94.05484;;0 / 15;47506;2022-10-22 18:41:22:788
-0.1161;6.0775;9.9667;-0.108;3.2517;9.2512;1.3147;0.2897;0.0315;0.1826;1.1194;-0.7489;14.0;-12.38;-1.07;-44.7;23.29;-19.38;-5.44;5.0;989.37;33.964;35.958344;-83.924355;778.71;NaN;;;94.05484;;0 / 15;48006;2022-10-22 18:41:23:288
2.2708;3.2106;8.9204;-0.0258;4.292;8.8175;0.6426;-0.6989;-1.259;-0.1387;0.1772;0.567;15.0;7.26;-17.59;-46.18;299.96;-25.95;0.17;5.0;989.39;31.694;35.958344;-83.924355;778.71;NaN;;;94.05484;;0 / 15;48507;2022-10-22 18:41:23:789
-0.5495;1.8733;7.8694;-0.4732;4.1294;8.8823;-1.8993;0.484;0.3227;0.196;-0.6615;-0.1238;19.0;21.6;-19.76;-49.46;276.32;-24.05;3.02;5.0;989.35;35.168;35.958344;-83.924355;778.71;NaN;;;94.05484;;0 / 15;49007;2022-10-22 18:41:24:289
0.6954;5.1353;8.1365;1.6738;4.4244;8.5903;-1.9534;0.5273;0.918;0.3089;-0.9544;0.1052;20.0;24.64;-14.44;-62.36;292.99;-25.65;-5.47;5.0;989.33;31.235;35.958344;-83.924355;778.71;NaN;;;94.05484;;0 / 15;49506;2022-10-22 18:41:24:788
1.9295;3.6197;8.9121;1.6754;4.385;8.6102;0.4588;-0.5543;-0.5507;-0.4317;-0.7156;-0.629;22.0;9.24;-15.45;-54.28;295.26;-25.19;-9.62;5.0;989.37;44.057;35.958344;-83.924355;778.71;NaN;;;94.05484;;0 / 15;50006;2022-10-22 18:41:25:288
1.6507;4.3478;9.4149;1.8435;3.7032;8.8915;-0.6002;0.352;0.4358;-0.0074;-0.7465;-0.5753;21.0;5.06;-16.05;-43.16;276.69;-22.95;-9.93;5.0;989.34;41.897;35.958344;-83.924355;778.71;NaN;;;94.05484;;0 / 15;50506;2022-10-22 18:41:25:788
0.8294;3.1232;7.6229;0.6587;3.6828;9.065;0.0039;0.7236;-0.9504;-0.2546;-0.6571;-0.2847;20.0;12.02;-7.97;-44.62;300.9;-22.06;-4.16;5.0;989.32;39.156;35.958344;-83.924355;778.71;NaN;;;94.05484;;0 / 15;51008;2022-10-22 18:41:26:290
2.8286;2.5977;12.6024;2.4461;3.4813;8.8356;0.8657;-0.499;2.8192;-0.0929;-0.6707;-0.8924;22.0;5.25;0.56;-50.77;318.71;-20.49;-12.37;5.0;989.31;33.562;35.958344;-83.924355;778.71;NaN;;;94.05484;;0 / 15;51506;2022-10-22 18:41:26:788
2.0602;-1.0666;6.8339;3.6253;1.3454;9.0121;-1.5751;-1.4075;-2.5744;-1.0688;-0.1431;-0.1504;22.0;-22.41;-1.5;-45.62;28.43;-7.89;-21.91;5.0;989.27;40.895;35.958344;-83.924355;778.71;NaN;;;94.05484;;0 / 15;52008;2022-10-22 18:41:27:290
4.276;0.1615;7.9807;4.5735;1.8306;8.4795;0.5748;-1.304;0.2793;-0.0276;0.8385;-0.7637;30.0;-26.74;-1.11;-35.16;68.61;-6.42;-24.88;5.0;989.27;49.146;35.958344;-83.924355;778.71;NaN;;;94.05484;;0 / 15;52506;2022-10-22 18:41:27:788
2.8932;3.609;8.9157;2.562;3.6243;8.7448;0.7323;-0.7407;-0.4216;0.1196;-0.0961;-0.9536;18.0;-28.46;-2.12;-26.31;59.73;-17.63;-24.05;5.0;989.26;33.006;35.958344;-83.924355;778.71;NaN;;;94.05484;;0 / 15;53006;2022-10-22 18:41:28:288
0.2154;2.2241;8.7374;0.4813;3.2422;9.2427;-0.8038;2.0035;1.0555;-0.5811;-0.7254;-0.4514;10.0;-27.73;-17.01;-19.33;109.0;-19.31;-2.98;5.0;989.26;38.305;35.958344;-83.924355;778.71;NaN;;;94.05484;;0 / 15;53507;2022-10-22 18:41:28:789
1.7716;4.6229;7.2757;1.8357;4.5039;8.5156;-1.0885;2.0898;0.5424;1.2796;0.591;0.0096;6.0;-23.59;-20.47;-23.42;124.82;-12.34;-9.41;5.0;989.24;35.269;35.958344;-83.924355;778.71;NaN;;;94.05484;;0 / 15;54006;2022-10-22 18:41:29:288
0.0443;5.7553;11.5959;1.8648;4.197;8.6648;2.3416;-1.4662;0.9437;-0.3625;0.1621;-0.6914;5.0;-18.84;-20.55;-24.99;117.08;-25.34;-12.15;5.0;989.23;39.37;35.958344;-83.924355;778.71;NaN;;;94.05484;;0 / 15;54506;2022-10-22 18:41:29:788
2.0183;1.3382;7.3391;2.2136;2.8672;9.1131;-0.1373;0.5729;-0.2201;0.0679;-0.0731;-0.3008;5.0;-17.01;-15.96;-29.06;109.54;-17.0;-13.65;5.0;989.24;38.515;35.958344;-83.924355;778.71;NaN;;;94.05484;;0 / 15;55006;2022-10-22 18:41:30:288
1.2341;3.7146;7.1895;0.4844;4.5039;8.6978;1.3438;-0.7686;-1.8402;-0.1456;0.1703;0.5049;5.0;-11.85;-13.11;-28.99;80.99;-27.47;-0.34;5.0;989.21;34.832;35.958344;-83.924355;778.71;NaN;;;94.05484;;0 / 15;55506;2022-10-22 18:41:30:788
0.9087;1.3884;5.9997;0.7215;3.7892;9.0162;-0.6416;0.1752;1.5206;-1.0584;-0.6654;-0.7487;9.0;-6.99;-8.74;-28.2;39.05;-28.74;-4.65;5.0;989.17;43.407;35.958344;-83.924355;778.71;NaN;;;94.05484;;0 / 15;56006;2022-10-22 18:41:31:288
0.2453;4.8553;8.4595;1.5249;3.9524;8.8444;-1.0537;0.7428;-0.5686;0.3833;0.3899;0.9344;9.0;-6.21;0.58;-22.26;11.54;-20.6;-10.67;5.0;989.14;39.205;35.958344;-83.924355;778.71;NaN;;;94.05484;;0 / 15;56506;2022-10-22 18:41:31:788
-0.0371;5.6572;8.8044;2.3254;4.22;8.5413;1.61;-1.9816;1.3983;-0.5472;-0.0167;-0.9125;13.0;-0.47;-9.96;-20.68;272.05;-27.14;-17.69;5.0;989.18;36.74;35.958344;-83.924355;778.71;NaN;;;94.05484;;0 / 15;57006;2022-10-22 18:41:32:288
1.0032;4.1536;11.505;1.9097;1.5415;9.4946;0.2802;-0.2122;1.6021;-0.2184;0.0152;-0.7507;14.0;14.38;2.33;-22.63;287.47;-12.12;-13.45;5.0;989.13;36.747;35.958344;-83.924355;778.71;NaN;;;94.05484;;0 / 15;57506;2022-10-22 18:41:32:788
5.3462;3.3039;7.6564;3.3929;3.3328;8.5762;1.4765;-0.0469;-0.5012;0.7665;-0.5437;-0.022;11.0;13.71;18.0;-25.29;316.09;-19.87;-21.58;5.0;989.13;41.57;35.958344;-83.924355;778.71;NaN;;;94.05484;;0 / 15;58007;2022-10-22 18:41:33:289
2.1416;3.603;9.4053;2.0478;3.1927;9.0434;-0.1278;-1.4206;-0.5249;0.3084;0.1574;-0.152;12.0;11.25;29.21;-29.72;334.88;-19.53;-12.12;5.0;989.12;44.433;35.958344;-83.924355;778.71;NaN;;;94.05484;;0 / 15;58509;2022-10-22 18:41:33:791
-0.5267;3.3852;8.0225;-1.0994;3.8294;8.9609;0.4709;-0.3845;-0.5354;0.0098;0.3305;0.395;19.0;1.91;39.64;-39.71;3.15;-22.99;6.99;5.0;989.06;42.682;35.958344;-83.924355;778.71;NaN;;;94.05484;;0 / 15;59007;2022-10-22 18:41:34:289
-0.1472;4.4291;10.5556;-0.4071;4.3234;8.7928;1.1959;-2.3356;1.1688;0.1854;0.3072;-0.7959;40.0;6.0;40.59;-52.05;356.57;-26.16;2.65;5.0;989.08;48.376;35.958344;-83.924355;778.71;NaN;;;94.05484;;0 / 15;59506;2022-10-22 18:41:34:788
0.7552;1.3513;8.4021;1.1054;3.1333;9.2266;-1.2167;-1.2057;-1.2564;-0.6417;-0.7043;-1.3216;46.0;-25.33;18.09;-54.11;33.19;-27.06;1.45;5.0;989.05;46.147;35.958344;-83.924355;778.71;NaN;;;94.05484;;0 / 15;60006;2022-10-22 18:41:35:288
2.4203;2.892;8.2729;4.3999;3.3957;8.0796;-1.7199;2.6205;0.2136;-1.7673;-0.4642;-1.1066;45.0;-52.33;-18.45;-14.33;95.89;-20.26;-28.57;5.0;989.03;44.7;35.958344;-83.924355;778.71;NaN;;;94.05484;;0 / 15;60507;2022-10-22 18:41:35:789
2.6695;2.5941;9.2064;4.7788;2.0104;8.3241;-0.8709;-1.5278;0.755;-0.1745;0.5495;-0.8287;25.0;-53.72;-42.9;4.65;128.75;-7.75;-29.92;5.0;989.04;46.212;35.958344;-83.924355;778.71;NaN;;;94.05484;;0 / 15;61006;2022-10-22 18:41:36:288
2.1069;4.684;7.9579;3.3386;4.5939;7.995;-1.1872;0.6631;0.403;0.7959;0.7956;-0.175;24.0;-22.61;-78.83;2.98;162.91;-20.31;-25.9;5.0;989.04;41.575;35.958344;-83.924355;778.71;NaN;;;94.05484;;0 / 15;61506;2022-10-22 18:41:36:788
1.9283;3.912;7.9902;2.5183;4.8567;8.1389;0.36;-1.0664;1.0152;-0.145;-0.9025;-0.488;20.0;-18.73;-59.23;-1.8;159.72;-29.69;-17.19;5.0;989.08;39.614;35.958344;-83.924355;778.71;NaN;;;94.05484;;0 / 15;62006;2022-10-22 18:41:37:288
3.2393;3.5611;7.9986;3.0343;3.6144;8.5965;-1.1829;0.409;-0.4316;0.5395;-0.8309;0.0797;17.0;-5.21;-51.09;-10.26;177.14;-18.49;-15.01;5.0;989.03;36.116;35.958344;-83.924355;778.71;NaN;;;94.05484;;0 / 15;62507;2022-10-22 18:41:37:789
2.5594;4.5595;9.4998;1.9065;4.7659;8.3559;0.5469;-1.1832;-0.3242;-0.0213;-0.2314;-0.5734;15.0;6.84;-27.88;-18.04;205.56;-27.25;-13.68;5.0;989.04;47.581;35.958344;-83.924355;778.71;NaN;;;94.05484;;0 / 15;63007;2022-10-22 18:41:38:289
2.4479;8.0967;7.6277;2.4331;6.3193;7.0934;-0.2516;0.6323;0.7888;0.4316;-0.1926;0.4581;12.0;1.71;-14.85;-18.11;260.9;-38.97;-15.18;5.0;989.04;45.988;35.958344;-83.924355;778.71;NaN;;;94.05484;;0 / 15;63508;2022-10-22 18:41:38:790
1.4103;4.4351;9.2207;-0.2415;5.6017;8.0457;1.0437;-0.529;0.4079;0.0776;-0.0609;0.2462;14.0;-6.04;-16.91;-11.31;137.06;-34.95;9.27;5.0;989.03;39.706;35.958344;-83.924355;778.71;NaN;;;94.05484;;0 / 15;64006;2022-10-22 18:41:39:288
0.1866;5.1257;8.0776;1.2351;4.8236;8.4485;-0.9236;0.3353;-0.9592;0.0909;-0.4869;0.3766;10.0;-13.33;-28.8;0.39;152.59;-29.94;-0.5;5.0;989.01;39.83;35.958344;-83.924355;778.71;NaN;;;94.05484;;0 / 15;64506;2022-10-22 18:41:39:788
1.6316;5.5184;7.3463;1.1653;6.1841;7.5213;0.853;-0.9448;-0.3467;0.3622;-0.1392;0.6847;11.0;-4.31;-22.05;9.32;168.86;-35.81;-3.37;5.0;988.99;40.495;35.958344;-83.924355;778.71;NaN;;;94.05484;;0 / 15;65007;2022-10-22 18:41:40:289
-0.4765;5.1987;6.1576;0.1042;5.882;7.8461;-1.6459;1.0797;-0.0057;-0.3908;-0.2624;0.0534;12.0;-5.36;3.41;5.12;96.29;-36.86;-0.76;5.0;988.97;42.922;35.958344;-83.924355;778.71;NaN;;;94.05484;;0 / 15;65507;2022-10-22 18:41:40:789
-0.9996;5.7912;6.087;-0.866;6.9148;6.8997;-0.1566;-0.0438;-0.2415;0.2705;0.4316;0.2712;13.0;-22.01;3.56;-0.66;80.37;-33.72;0.68;5.0;988.94;38.914;35.958344;-83.924355;778.71;NaN;;;94.05484;;0 / 15;66006;2022-10-22 18:41:41:288
-3.7074;7.6756;7.7904;-1.2134;6.7267;7.032;0.8767;-0.246;0.4842;0.0812;-1.268;0.0783;13.0;-21.67;-7.73;4.95;119.46;-43.31;9.79;5.0;988.93;37.219;35.958344;-83.924355;778.71;NaN;;;94.05484;;0 / 15;66506;2022-10-22 18:41:41:788
-1.2676;7.9137;5.9076;-1.0236;7.2522;6.5214;-0.7043;1.3701;0.131;-0.4311;0.6203;0.5014;14.0;-6.34;-21.22;8.31;164.91;-39.88;1.72;5.0;988.91;42.7;35.958344;-83.924355;778.71;NaN;;;94.05484;;0 / 15;67006;2022-10-22 18:41:42:288
-1.6687;7.0615;8.5421;-1.27;6.984;6.7661;0.2874;-0.3979;0.4743;-0.822;0.0525;-0.7837;15.0;1.65;-26.16;13.16;185.9;-49.05;3.39;5.0;988.89;40.818;35.958344;-83.924355;778.71;NaN;;;94.05484;;0 / 15;67506;2022-10-22 18:41:42:788
0.7361;6.2486;7.5329;0.1147;6.2631;7.5453;-0.1027;0.0501;-0.4232;0.8043;1.4033;0.1884;17.0;11.4;-20.19;16.61;203.71;-40.34;1.52;5.0;988.91;41.402;35.958344;-83.924355;778.71;NaN;;;94.05484;;0 / 15;68007;2022-10-22 18:41:43:289
0.5483;6.3826;6.7848;-0.4623;6.9125;6.9408;0.1623;-0.6421;-0.0768;0.2384;-0.0417;0.2377;19.0;19.43;-5.14;8.34;247.79;-43.62;4.87;5.0;988.87;46.071;35.958344;-83.924355;778.71;NaN;;;94.05484;;0 / 15;68506;2022-10-22 18:41:43:788
-1.9872;6.239;7.1058;-0.1188;6.8666;7.0005;-2.1942;2.5931;2.3798;0.0239;-0.8929;-0.6053;23.0;18.34;-0.79;6.58;253.57;-43.86;1.04;5.0;988.86;42.106;35.958344;-83.924355;778.71;NaN;;;94.05484;;0 / 15;69006;2022-10-22 18:41:44:288
0.0742;8.0752;8.1063;0.5243;6.7699;7.0755;-0.0344;-0.477;1.424;0.8133;-0.5535;-0.2545;20.0;22.05;9.51;-0.37;288.14;-39.96;-1.88;5.0;988.86;47.88;35.958344;-83.924355;778.71;NaN;;;94.05484;;0 / 15;69507;2022-10-22 18:41:44:789
1.1623;5.0659;7.6528;0.9059;5.6833;7.9404;0.499;-0.55;-0.5601;-0.3056;-0.6579;-0.2908;15.0;24.26;27.09;-13.76;312.84;-43.76;2.71;5.0;988.84;51.477;35.958344;-83.924355;778.71;NaN;;;94.05484;;0 / 15;70007;2022-10-22 18:41:45:289
2.065;3.4618;6.026;2.5463;4.6468;8.2519;-0.805;0.7792;-1.1137;-0.5452;-0.6199;-0.3724;14.0;-7.5;38.49;-22.95;0.64;-36.27;-17.99;5.0;988.8;44.349;35.958344;-83.924355;778.71;NaN;;;94.05484;;0 / 15;70506;2022-10-22 18:41:45:788
2.5101;8.9001;6.9607;3.4331;6.9456;6.0119;-0.7529;1.9426;1.2469;0.8154;0.8225;-0.8589;12.0;-43.09;26.94;-1.95;38.82;-29.54;-41.61;5.0;988.82;52.434;35.958344;-83.924355;778.71;NaN;;;94.05484;;0 / 15;71006;2022-10-22 18:41:46:288
2.4993;5.3964;5.9853;2.6401;6.9454;6.4002;-0.3565;-1.0427;-0.6303;-0.7719;-0.7402;-0.8533;11.0;-48.69;-6.34;-1.03;77.87;-45.09;-22.42;5.0;988.81;41.425;35.958344;-83.924355;778.71;NaN;;;94.05484;;0 / 15;71506;2022-10-22 18:41:46:788
2.0614;5.9794;6.2151;2.6399;6.4206;6.9265;-1.2391;0.4319;-1.4553;-1.0103;-1.6809;-0.4813;9.0;-34.31;-30.04;1.07;115.55;-40.9;-20.86;5.0;988.8;44.202;35.958344;-83.924355;778.71;NaN;;;94.05484;;0 / 15;72006;2022-10-22 18:41:47:288
2.0973;4.9367;7.8706;2.7934;5.309;7.7577;0.1672;-0.3407;0.374;0.2835;0.0086;-0.2756;6.0;-30.0;-40.29;-2.68;134.35;-32.78;-19.8;5.0;988.81;38.476;35.958344;-83.924355;778.71;NaN;;;94.05484;;0 / 15;72507;2022-10-22 18:41:47:789
-1.628;5.3028;7.2266;-0.2347;5.8513;7.8663;-2.1659;1.7295;1.0856;-0.4353;-0.5915;-0.4502;5.0;-28.86;-45.3;-9.88;135.26;-36.91;-8.88;5.0;988.8;32.112;35.958344;-83.924355;778.71;NaN;;;94.05484;;0 / 15;73006;2022-10-22 18:41:48:288
-0.4143;10.9926;7.788;-0.0669;7.6638;6.1181;-0.5639;1.9549;2.0468;1.5593;0.1748;0.4162;4.0;-14.14;-48.73;-11.89;154.62;-40.15;0.73;5.0;988.79;35.91;35.958344;-83.924355;778.71;NaN;;;94.05484;;0 / 15;73506;2022-10-22 18:41:48:788
0.504;7.4563;8.7111;0.4654;7.3663;6.4568;0.9033;-1.3987;0.2291;0.2009;0.2229;-0.7216;4.0;-17.93;-47.98;-4.8;147.2;-48.34;-2.88;5.0;988.76;38.467;35.958344;-83.924355;778.71;NaN;;;94.05484;;0 / 15;74006;2022-10-22 18:41:49:288
0.821;4.8386;6.7729;0.9179;5.7177;7.9142;-0.6016;-0.8302;-1.1781;-0.4274;-0.8739;-0.377;5.0;-17.57;-42.79;-9.47;146.91;-39.47;-2.72;5.0;988.75;50.059;35.958344;-83.924355;778.71;NaN;;;94.05484;;0 / 15;74506;2022-10-22 18:41:49:788
1.1013;5.8463;5.1245;-0.5875;6.6875;7.1486;-1.1995;0.978;-0.8973;0.3195;-0.4364;0.8991;3.0;-11.36;-37.67;-12.02;149.47;-43.0;4.7;5.0;988.72;39.881;35.958344;-83.924355;778.71;NaN;;;94.05484;;0 / 15;75006;2022-10-22 18:41:50:288
-1.7895;7.733;8.7709;-0.7409;6.8537;6.9748;-0.2607;2.5309;3.1325;-0.3778;0.8908;-0.4002;3.0;-12.13;-34.99;-10.26;145.12;-46.6;-3.83;5.0;988.72;39.093;35.958344;-83.924355;778.71;NaN;;;94.05484;;0 / 15;75506;2022-10-22 18:41:50:788
-0.2429;7.5257;6.7585;1.1786;5.6323;7.941;-0.8651;1.1901;-0.9898;0.8381;0.4128;-2.0E-4;6.0;-9.26;-29.29;-14.53;155.14;-35.05;-8.44;5.0;988.71;40.109;35.958344;-83.924355;778.71;NaN;;;94.05484;;0 / 15;76008;2022-10-22 18:41:51:290
4.1644;6.5815;8.2896;1.6628;7.181;6.4682;0.3416;-2.8153;1.6719;-0.5501;0.7174;-0.8159;7.0;-10.2;-31.89;-11.1;152.54;-39.9;-6.21;5.0;988.73;40.967;35.958344;-83.924355;778.71;NaN;;;94.05484;;0 / 15;76506;2022-10-22 18:41:51:788
-0.5818;7.3451;9.5716;-0.4523;3.4279;9.1769;-1.5128;1.6826;0.4778;-0.5096;-0.1072;-1.2862;12.0;-6.0;-32.27;-14.01;165.15;-20.46;2.82;5.0;988.69;37.422;35.958344;-83.924355;778.71;NaN;;;94.05484;;0 / 15;77007;2022-10-22 18:41:52:289
-0.8979;2.2576;8.4416;-1.4109;6.4463;7.2543;1.2862;-1.4543;-0.669;-0.0171;1.0428;0.5323;16.0;0.84;-33.09;-15.56;171.82;-41.1;11.01;5.0;988.66;49.104;35.958344;-83.924355;778.71;NaN;;;94.05484;;0 / 15;77506;2022-10-22 18:41:52:788
0.449;3.6173;5.9566;1.1146;5.0818;8.3129;-1.5423;3.3744;-0.0678;-0.5901;-2.5887;0.3018;25.0;2.49;-36.11;-14.08;177.77;-37.15;11.31;5.0;988.61;45.02;35.958344;-83.924355;778.71;NaN;;;94.05484;;0 / 15;78006;2022-10-22 18:41:53:288
1.5837;3.2919;5.8271;4.6836;4.8559;7.1172;-1.9987;0.3914;-1.2362;-0.0977;1.5386;0.735;14.0;-23.85;-42.92;-26.06;164.0;-29.68;-33.35;5.0;988.6;34.374;35.958344;-83.924355;778.71;NaN;;;94.05484;;0 / 15;78506;2022-10-22 18:41:53:788
3.3924;4.04;9.8889;0.7133;5.0037;8.4039;3.1659;-1.772;1.4784;0.5177;0.0304;-1.2587;15.0;-31.26;-42.58;-35.27;130.09;-27.0;-10.92;5.0;988.61;34.789;35.958344;-83.924355;778.71;NaN;;;94.05484;;0 / 15;79006;2022-10-22 18:41:54:288
0.14;4.5727;6.5312;1.2431;5.8661;7.7598;-1.4705;-0.7095;-0.6835;-0.0801;-0.9687;-0.8101;39.0;-19.05;-43.71;-42.24;117.53;-38.45;-7.25;5.0;988.59;40.004;35.958344;-83.924355;778.71;NaN;;;94.05484;;0 / 15;79507;2022-10-22 18:41:54:789
1.8517;8.1206;8.0345;0.4973;6.9652;6.8854;0.8869;-0.4393;1.5088;-0.3761;1.176;-0.115;40.0;-22.74;-50.98;-39.43;122.06;-39.98;-2.13;5.0;988.57;49.737;35.958344;-83.924355;778.71;NaN;;;94.05484;;0 / 15;80006;2022-10-22 18:41:55:288
0.4765;4.1919;9.4268;0.1637;5.1437;8.3478;-1.7307;-0.8292;1.2385;-0.9144;-1.2714;-1.6491;28.0;-13.5;-76.07;-32.94;160.68;-40.24;-2.16;5.0;988.64;38.628;35.958344;-83.924355;778.71;NaN;;;94.05484;;0 / 15;80506;2022-10-22 18:41:55:788
0.8222;1.7357;7.9029;0.3593;2.0345;9.5865;-2.6344;1.5168;-0.7221;-0.2913;-1.7088;-0.5499;23.0;11.72;-44.18;-68.81;206.82;-11.97;-2.15;5.0;988.58;34.533;35.958344;-83.924355;778.71;NaN;;;94.05484;;0 / 15;81007;2022-10-22 18:41:56:289
2.8346;1.3143;8.0824;2.8747;2.1065;9.1361;-0.6993;0.3663;-0.2285;-0.604;-0.1064;-0.8962;33.0;-21.07;-27.54;-61.14;179.18;-13.97;-18.85;5.0;988.57;42.8;35.958344;-83.924355;778.71;NaN;;;94.05484;;0 / 15;81507;2022-10-22 18:41:56:789
1.6137;-1.7824;7.6816;2.9946;-1.1007;9.2731;-1.5988;-1.6016;-0.8704;0.7481;0.0669;-0.8752;34.0;-14.29;-24.81;-49.5;183.81;6.44;-17.9;5.0;988.55;38.504;35.958344;-83.924355;778.71;NaN;;;94.05484;;0 / 15;82007;2022-10-22 18:41:57:289
-3.5827;-0.4501;11.1589;1.4624;-1.1009;9.6343;1.549;-0.1822;1.5486;1.1594;-1.0533;0.0263;29.0;-0.3;-12.94;-43.93;203.31;6.94;-10.23;5.0;988.56;39.18;35.958344;-83.924355;778.71;NaN;;;94.05484;;0 / 15;82506;2022-10-22 18:41:57:788
1.9331;0.1244;9.8073;1.8076;0.2853;9.6344;1.3946;0.3465;-0.2301;-0.2637;0.1711;-0.9405;7.0;10.71;-7.03;-35.98;252.38;-6.31;-11.6;5.0;988.55;41.266;35.958344;-83.924355;778.71;NaN;;;94.05484;;0 / 15;83006;2022-10-22 18:41:58:288
1.9992;-0.195;10.9062;1.1864;-1.233;9.6562;0.412;-0.7452;-0.0897;-0.2065;0.0768;-0.7525;8.0;8.87;14.33;-30.0;309.24;7.22;-7.0;5.0;988.58;34.943;35.958344;-83.924355;778.71;NaN;;;94.05484;;0 / 15;83507;2022-10-22 18:41:58:789
5.1377;0.3532;7.0831;6.5529;-0.417;7.284;-1.9081;0.7938;-0.0937;0.259;-1.2603;-0.091;6.0;-9.08;12.15;-21.41;326.4;2.44;-41.98;5.0;988.48;42.818;35.958344;-83.924355;778.71;NaN;;;94.05484;;0 / 15;84007;2022-10-22 18:41:59:289
3.6209;-2.0171;8.7494;3.5849;-2.6057;8.7481;0.2179;0.5107;-0.0609;-0.5569;0.6538;-0.854;2.0;-12.11;6.53;-11.98;61.64;13.24;-24.77;5.0;988.51;47.57;35.958344;-83.924355;778.71;NaN;;;94.05484;;0 / 15;84509;2022-10-22 18:41:59:791
2.2564;-2.3282;7.5437;3.3857;-2.6919;8.8012;-0.0917;-1.9669;3.0703;0.7361;-0.9583;-0.2853;2.0;-5.76;6.45;-12.86;50.01;18.86;-19.68;5.0;988.48;41.768;35.958344;-83.924355;778.71;NaN;;;94.05484;;0 / 15;85006;2022-10-22 18:42:00:288
3.2297;-5.1102;7.0026;2.7092;-2.5339;9.078;1.9943;-2.4302;0.9528;-1.5182;1.6441;0.0199;2.0;2.55;9.99;-11.66;319.1;3.65;-27.05;5.0;988.45;40.053;35.958344;-83.924355;778.71;NaN;;;94.05484;;0 / 15;85506;2022-10-22 18:42:00:788
2.4156;-2.5244;9.4017;2.7357;-3.9967;8.5272;-0.386;0.6077;-0.796;-0.0899;0.3645;0.2614;2.0;5.44;19.41;-9.28;332.72;26.1;-14.61;5.0;988.48;41.751;35.958344;-83.924355;778.71;NaN;;;94.05484;;0 / 15;86006;2022-10-22 18:42:01:288
2.2002;-2.9937;8.0979;3.3939;-3.3494;8.5693;-1.1151;0.2637;0.3066;0.3683;-0.5534;-0.031;3.0;-4.07;29.96;-15.39;358.58;22.67;-16.91;5.0;988.45;42.58;35.958344;-83.924355;778.71;NaN;;;94.05484;;0 / 15;86507;2022-10-22 18:42:01:789
2.4885;-3.9048;7.1369;2.3181;-3.6928;8.7841;-0.1086;-1.0681;-1.3844;-0.2614;0.108;-0.8413;3.0;-7.74;28.5;-25.22;4.56;22.12;-14.78;5.0;988.41;45.802;35.958344;-83.924355;778.71;NaN;;;94.05484;;0 / 15;87007;2022-10-22 18:42:02:289
1.13;-5.2262;9.3323;1.813;-3.9534;8.7894;1.212;0.4822;2.3167;-0.0518;0.5591;0.247;4.0;-7.82;29.51;-26.81;0.92;23.71;-15.97;5.0;988.47;53.467;35.958344;-83.924355;778.71;NaN;;;94.05484;;0 / 15;87506;2022-10-22 18:42:02:788
3.7229;0.0311;7.2135;3.6484;-2.1141;8.8538;-0.2162;1.44;-2.511;0.2353;-0.0825;0.19;7.0;-0.73;28.24;-30.84;342.67;17.36;-13.89;5.0;988.41;43.2;35.958344;-83.924355;778.71;NaN;;;94.05484;;0 / 15;88006;2022-10-22 18:42:03:288
0.5124;-5.3629;8.2837;-0.7139;-4.1773;8.8437;-1.1489;-2.8635;2.2009;0.0928;-0.2778;-0.4982;7.0;1.78;26.76;-32.06;332.3;21.05;-9.66;5.0;988.37;38.348;35.958344;-83.924355;778.71;NaN;;;94.05484;;0 / 15;88506;2022-10-22 18:42:03:788
2.0877;-2.5184;7.6229;2.0122;-3.1985;9.0494;0.1604;0.5815;-1.5629;0.2318;-0.097;-0.8604;13.0;6.71;31.05;-28.2;336.79;24.55;-0.22;5.0;988.4;39.252;35.958344;-83.924355;778.71;NaN;;;94.05484;;0 / 15;89006;2022-10-22 18:42:04:288
3.0547;-1.3717;6.7334;3.7426;-2.0515;8.8292;-1.5559;-1.7811;-0.1853;0.3585;0.1941;-0.9808;16.0;-15.43;20.61;-32.29;5.74;12.08;-22.97;5.0;988.37;51.192;35.958344;-83.924355;778.71;NaN;;;94.05484;;0 / 15;89507;2022-10-22 18:42:04:789
2.077;-5.6644;7.0639;2.5565;-3.2079;8.9075;0.7295;-2.5335;3.6266;-1.8467;0.4161;-0.4452;17.0;-23.25;17.14;-30.39;71.77;19.09;-16.01;5.0;988.47;37.303;35.958344;-83.924355;778.71;NaN;;;94.05484;;0 / 15;90006;2022-10-22 18:42:05:288
5.4407;-3.7648;9.865;3.6538;-3.5201;8.3922;-0.7338;-0.5265;-0.6357;-0.202;0.4245;-0.8854;11.0;-31.41;22.76;-15.36;61.68;21.04;-23.53;5.0;988.41;36.251;35.958344;-83.924355;778.71;NaN;;;94.05484;;0 / 15;90506;2022-10-22 18:42:05:788
2.2995;-0.0335;7.5293;3.602;-1.8843;8.9244;-1.8346;1.3764;-2.0404;0.06;0.5531;0.4172;15.0;-39.47;-0.24;-14.06;102.04;13.61;-22.43;5.0;988.31;44.045;35.958344;-83.924355;778.71;NaN;;;94.05484;;0 / 15;91006;2022-10-22 18:42:06:288
0.1567;-5.1568;7.7653;1.3102;-3.7549;8.9641;-2.2031;-3.473;2.106;-0.3773;-0.207;-0.5504;23.0;-33.13;-8.64;-21.11;118.44;16.37;-8.84;5.0;988.28;33.356;35.958344;-83.924355;778.71;NaN;;;94.05484;;0 / 15;91507;2022-10-22 18:42:06:789
1.148;-1.7082;8.2107;2.5797;-2.5709;9.1053;0.0464;-1.153;-1.8911;0.1605;1.8035;-0.0998;17.0;-31.89;-6.39;-25.07;121.61;19.46;-12.09;5.0;988.33;35.441;35.958344;-83.924355;778.71;NaN;;;94.05484;;0 / 15;92006;2022-10-22 18:42:07:288
-0.6392;-0.382;8.8534;-0.0103;-0.6183;9.7871;-0.9535;-0.6882;-0.6121;0.9417;0.3845;-0.1107;16.0;-19.39;-22.03;-27.88;145.64;9.45;-1.92;5.0;988.31;39.566;35.958344;-83.924355;778.71;NaN;;;94.05484;;0 / 15;92506;2022-10-22 18:42:07:788
-2.91;-4.0866;11.4927;-0.1413;-0.3118;9.8007;0.065;0.3539;0.5244;-0.7265;0.6397;-0.958;10.0;-13.63;-26.49;-22.57;153.12;0.24;-1.91;5.0;988.34;38.428;35.958344;-83.924355;778.71;NaN;;;94.05484;;0 / 15;93006;2022-10-22 18:42:08:288
-0.8871;-1.3502;14.1467;0.5412;-1.6744;9.6475;-0.2608;0.682;1.4083;0.2107;0.0268;-0.6354;7.0;-5.94;-17.03;-21.36;165.13;11.23;-1.31;5.0;988.34;37.634;35.958344;-83.924355;778.71;NaN;;;94.05484;;0 / 15;93506;2022-10-22 18:42:08:788
0.984;-0.5518;11.2977;0.9873;-0.0588;9.7566;0.5494;0.148;1.9115;-0.1081;0.1644;0.4121;7.0;-7.52;-17.1;-21.79;158.12;0.43;-2.86;5.0;988.28;45.848;35.958344;-83.924355;778.71;NaN;;;94.05484;;0 / 15;94006;2022-10-22 18:42:09:288
1.4809;-0.5471;9.1992;0.3106;-0.3312;9.7961;0.0232;-0.0597;-1.8845;-0.0081;-0.5328;-0.2419;8.0;-11.25;-11.49;-21.34;138.88;3.46;-0.81;5.0;988.27;47.012;35.958344;-83.924355;778.71;NaN;;;94.05484;;0 / 15;94507;2022-10-22 18:42:09:789
1.2784;0.2572;7.4228;1.6353;0.1151;9.6687;-0.9274;0.1024;-2.0789;0.2237;-0.7187;0.866;11.0;-9.26;-9.45;-22.56;149.97;-0.67;-9.6;5.0;988.24;51.19;35.958344;-83.924355;778.71;NaN;;;94.05484;;0 / 15;95006;2022-10-22 18:42:10:288
-1.6507;-1.0463;9.5285;0.5826;0.3089;9.7845;1.393;-0.0796;0.9665;-0.0976;-0.0381;-0.4656;9.0;-10.74;-5.38;-22.46;113.89;-1.81;-3.41;5.0;988.24;43.375;35.958344;-83.924355;778.71;NaN;;;94.05484;;0 / 15;95506;2022-10-22 18:42:10:788
-0.4944;0.0359;9.7869;0.0956;-0.4017;9.798;0.5224;0.7016;1.5993;-0.0154;0.5401;0.7636;13.0;-7.73;2.72;-23.68;75.48;2.35;-0.56;5.0;988.22;36.29;35.958344;-83.924355;778.71;NaN;;;94.05484;;0 / 15;96010;2022-10-22 18:42:11:292
0.1807;-0.9769;12.216;0.8825;1.1726;9.6962;0.4035;0.1191;-0.4965;-0.6543;0.2931;-0.49;14.0;-7.95;8.68;-25.48;25.41;-6.87;-5.2;5.0;988.23;42.766;35.958344;-83.924355;778.71;NaN;;;94.05484;;0 / 15;96507;2022-10-22 18:42:11:789
0.1292;1.7046;10.8715;-0.5454;-0.3772;9.7842;0.2752;0.6199;0.0988;-0.2698;0.5924;0.1426;19.0;-6.77;12.62;-26.51;33.47;0.43;3.13;5.0;988.18;47.247;35.958344;-83.924355;778.71;NaN;;;94.05484;;0 / 15;97007;2022-10-22 18:42:12:289
0.0778;1.1743;8.511;0.1734;0.0778;9.8048;-0.4014;0.8169;-1.5437;0.3065;0.1098;0.9137;26.0;-7.14;11.63;-27.99;31.26;1.65;-0.42;5.0;988.17;37.91;35.958344;-83.924355;778.71;NaN;;;94.05484;;0 / 15;97509;2022-10-22 18:42:12:791
0.1364;-1.9487;7.1824;-1.0869;-0.0187;9.7462;-0.9615;-1.9485;-1.3646;-0.1671;-0.2697;-0.0467;28.0;-11.01;13.93;-39.21;47.6;0.11;6.36;5.0;988.07;37.519;35.958344;-83.924355;778.71;NaN;;;94.05484;;0 / 15;98006;2022-10-22 18:42:13:288
-0.1831;-0.0598;8.4057;-0.5491;-0.1393;9.7903;-2.2881;-1.0325;1.0695;0.088;-0.4623;0.387;34.0;-13.52;5.16;-47.98;77.2;1.24;4.28;5.0;988.12;42.475;35.958344;-83.924355;778.71;NaN;;;94.05484;;0 / 15;98506;2022-10-22 18:42:13:788
0.8764;0.2982;9.3347;-0.1196;0.565;9.7896;1.3425;-0.1503;-0.2592;0.2362;0.1195;-0.6407;33.0;-13.97;-11.57;-50.63;104.26;-3.95;-0.44;5.0;988.14;41.877;35.958344;-83.924355;778.71;NaN;;;94.05484;;0 / 15;99006;2022-10-22 18:42:14:288
-2.3868;-2.6336;9.3287;-1.3666;-0.77;9.6804;-1.4932;-1.2642;-1.2009;-0.7658;-0.4171;-0.9357;33.0;-3.71;-18.47;-49.44;144.97;0.41;10.49;5.0;988.12;43.596;35.958344;-83.924355;778.71;NaN;;;94.05484;;0 / 15;99506;2022-10-22 18:42:14:788
0.6093;0.9529;9.2892;0.2284;-0.5444;9.7889;0.724;0.5817;-0.6446;0.4991;-0.098;-1.4291;55.0;9.66;-19.95;-48.68;206.16;3.18;-1.34;5.0;988.09;37.762;35.958344;-83.924355;778.71;NaN;;;94.05484;;0 / 15;100006;2022-10-22 18:42:15:288
2.327;1.0068;7.745;1.4019;0.5009;9.693;0.2529;-0.8912;1.1665;0.3511;-0.237;-1.5454;51.0;22.8;-18.94;-40.16;237.25;-3.49;-4.2;5.0;988.06;48.382;35.958344;-83.924355;778.71;NaN;;;94.05484;;0 / 15;100506;2022-10-22 18:42:15:788
1.774;-0.2369;9.7822;2.4359;0.076;9.499;-0.2229;-0.4477;0.3181;-0.3917;-0.0715;-0.964;38.0;17.25;-14.46;-38.08;249.16;-6.91;-15.1;5.0;988.1;45.325;35.958344;-83.924355;778.71;NaN;;;94.05484;;0 / 15;101006;2022-10-22 18:42:16:288
4.5835;1.1073;7.9412;3.8254;0.2217;9.0271;-0.2439;-0.6485;1.5488;0.1142;0.1933;0.1728;43.0;10.58;-4.99;-37.16;260.01;-1.3;-22.97;5.0;988.07;41.312;35.958344;-83.924355;778.71;NaN;;;94.05484;;0 / 15;101506;2022-10-22 18:42:16:788
3.335;-3.8414;10.2897;3.0946;-0.6719;9.2813;2.2986;-1.4175;0.4816;-0.7107;1.33;-0.6322;44.0;17.72;-5.64;-27.69;254.04;3.93;-18.44;5.0;988.11;45.406;35.958344;-83.924355;778.71;NaN;;;94.05484;;0 / 15;102007;2022-10-22 18:42:17:289
1.4163;-0.1065;11.129;1.8683;-0.8328;9.5909;-0.3932;0.7329;-0.517;0.2532;0.5192;-0.2448;23.0;21.71;7.14;-10.07;285.45;4.87;-11.02;5.0;988.15;41.949;35.958344;-83.924355;778.71;NaN;;;94.05484;;0 / 15;102507;2022-10-22 18:42:17:789
1.1276;0.3592;10.4264;1.3265;-0.2166;9.7141;0.8261;0.1897;-1.4474;-0.1786;0.2474;-0.938;7.0;10.95;19.71;8.78;334.61;0.18;-8.72;5.0;988.09;40.504;35.95836;-83.924385;916.28;NaN;;0.0;275.89005;;0 / 15;103007;2022-10-22 18:42:18:289
0.3568;-4.532;8.948;1.184;-0.9156;9.6918;-0.6752;-2.7948;-1.4613;-0.5236;-0.0892;-0.9193;8.0;-14.76;21.23;19.11;38.01;1.96;-5.87;5.0;988.06;42.647;35.95836;-83.924385;916.28;NaN;;0.0;275.89005;;0 / 15;103507;2022-10-22 18:42:18:789
-1.3454;-2.2062;12.7188;0.1133;-2.558;9.4665;0.3331;1.6944;2.7188;0.1944;-0.5569;0.9722;10.0;-31.61;12.84;14.93;65.16;12.54;-4.86;5.0;988.12;39.924;35.95836;-83.924385;916.28;NaN;;0.0;275.89005;;7 / 15;104007;2022-10-22 18:42:19:289
3.4235;-1.1133;9.0293;2.6045;-0.7187;9.4271;0.46;-0.8457;-0.3828;0.3228;-0.1009;0.8059;12.0;-33.58;10.11;7.05;74.34;6.21;-15.17;5.0;988.07;39.953;35.95836;-83.924385;916.28;NaN;;0.0;275.89005;;7 / 15;104506;2022-10-22 18:42:19:788
1.5933;-1.5574;10.3869;1.6214;-2.525;9.3363;0.1372;1.0793;-2.0274;-0.129;0.1928;-0.1064;8.0;-27.96;20.53;10.78;53.59;13.92;-10.35;5.0;988.06;36.522;35.95836;-83.924385;916.28;NaN;;0.0;275.89005;;7 / 15;105006;2022-10-22 18:42:20:288
1.1037;-1.3597;7.6899;2.5593;-1.4646;9.3528;-0.8247;0.0063;-1.6558;0.5645;-0.7381;0.4498;9.0;-26.44;20.01;6.45;53.16;12.12;-8.99;5.0;988.02;44.832;35.95836;-83.924385;916.28;NaN;;0.0;275.89005;;7 / 15;105506;2022-10-22 18:42:20:788
0.8258;-3.2297;9.4029;1.014;-3.7955;8.9854;0.8769;1.1281;-0.0822;-0.3707;0.736;-1.5359;8.0;-27.64;22.28;4.46;53.0;12.41;-9.82;5.0;987.98;51.077;35.95836;-83.924385;916.28;NaN;;0.0;275.89005;;7 / 15;106006;2022-10-22 18:42:21:288
1.1169;-0.006;7.4803;1.2024;-2.6634;9.3612;-2.3873;0.0726;0.7687;0.2453;-1.7782;0.4195;13.0;-17.49;3.58;-9.39;88.14;19.84;-1.64;5.0;987.96;44.891;35.95836;-83.924385;916.28;NaN;;0.0;275.89005;;7 / 15;106506;2022-10-22 18:42:21:788
0.6452;-3.1747;7.3403;0.7404;-2.6147;9.4226;0.9509;-1.3708;0.6758;-0.0483;0.9049;-0.761;12.0;-17.33;3.3;-14.66;95.26;15.46;-4.49;5.0;987.98;40.148;35.95836;-83.924385;916.28;NaN;;0.0;275.89005;;7 / 15;107006;2022-10-22 18:42:22:288
-2.764;-4.6923;12.4397;0.5186;-2.5811;9.4467;1.1684;1.3949;0.8523;0.1529;-0.8298;1.042;20.0;-15.11;5.36;-18.43;90.5;15.26;-3.14;5.0;987.96;49.137;35.95836;-83.924385;916.28;NaN;;0.0;275.89005;;7 / 15;107506;2022-10-22 18:42:22:788
0.941;-1.427;11.2187;-0.0286;-1.4159;9.7039;1.8277;0.2586;-1.2998;0.2248;0.4916;0.8875;29.0;-14.63;15.08;-16.37;50.19;8.3;0.17;5.0;987.94;38.066;35.95836;-83.924385;916.28;NaN;;0.0;275.89005;;7 / 15;108006;2022-10-22 18:42:23:288
1.0008;-3.4307;7.2745;-0.2606;-2.573;9.4595;-0.8369;-1.6316;-1.2347;0.2685;-0.2042;-0.7093;32.0;-6.43;23.27;-10.27;17.73;15.21;1.58;5.0;987.89;52.461;35.95836;-83.924385;916.28;NaN;;0.0;275.89005;;7 / 15;108508;2022-10-22 18:42:23:790
-0.3796;-3.2213;10.2658;0.6266;-1.1423;9.7197;1.3924;-2.116;1.231;0.1811;0.0199;-1.6878;50.0;-7.86;25.39;-14.57;17.99;7.21;-2.15;5.0;987.93;47.611;35.95836;-83.924385;916.28;NaN;;0.0;275.89005;;7 / 15;109006;2022-10-22 18:42:24:288
-0.1292;-4.4554;11.0692;0.9084;-1.9404;9.5697;-0.2694;-0.5359;1.0109;-0.342;0.8127;-1.2383;132.0;-20.21;11.74;-30.34;67.69;9.88;-8.88;5.0;987.92;38.992;35.95836;-83.924385;916.28;NaN;;0.0;275.89005;;7 / 15;109507;2022-10-22 18:42:24:789
0.2536;-0.2898;9.987;0.1817;-1.6689;9.6619;1.1351;1.2882;-1.0001;0.2145;-0.0754;0.0057;319.0;-18.37;0.32;-38.81;115.01;11.55;-1.54;5.0;987.92;36.314;35.958366;-83.9244;844.13;NaN;;0.0;131.8975;;5 / 15;110006;2022-10-22 18:42:25:288
0.3138;0.0407;6.2892;0.6093;-0.5614;9.7716;-0.2368;0.4795;-3.1614;0.3459;0.1142;0.4254;358.0;-10.12;-13.89;-48.77;157.34;5.14;-2.72;5.0;987.95;39.475;35.958366;-83.9244;844.13;NaN;;0.0;131.8975;;5 / 15;110506;2022-10-22 18:42:25:788
0.6464;-1.6962;8.6785;-1.1007;-2.0495;9.5267;1.5819;-1.722;1.2138;0.2493;-0.2998;-0.5883;185.0;-6.58;-15.75;-50.91;153.83;12.06;6.59;5.0;987.9;48.736;35.958355;-83.92446;813.08;NaN;;0.0;64.2552;;6 / 15;111007;2022-10-22 18:42:26:289
-0.1711;-1.6819;8.1338;-0.139;-1.0364;9.7507;-0.1783;-1.639;-0.4579;0.2706;0.2161;-0.778;65.0;-4.91;-18.73;-46.72;166.63;6.07;0.82;5.0;987.9;42.164;35.958355;-83.92446;813.08;NaN;;0.0;64.2552;;6 / 15;111506;2022-10-22 18:42:26:788
-0.9948;-4.5284;8.814;-1.016;-3.2117;9.2099;-0.3224;-1.1886;-0.8231;0.0757;-0.0021;-1.2789;37.0;-2.83;-15.9;-45.15;165.06;19.12;6.3;5.0;987.92;36.369;35.95836;-83.92446;799.15;NaN;;0.0;67.588455;;6 / 15;112007;2022-10-22 18:42:27:289
0.1077;-1.6484;6.3909;-0.1597;-2.7173;9.4213;-1.0725;-1.3682;3.6549;0.3076;-1.6802;0.3048;38.0;2.78;-14.72;-46.78;180.44;14.19;3.41;5.0;987.83;45.776;35.95836;-83.92446;799.15;NaN;;0.0;67.588455;;6 / 15;112506;2022-10-22 18:42:27:788
-0.8366;-3.3123;10.6466;0.9949;-1.8312;9.5827;0.1612;-2.0404;1.1082;-0.2014;1.4157;-0.4384;34.0;-7.78;-13.67;-39.98;188.96;7.68;-15.59;5.0;987.87;39.91;35.95834;-83.92446;811.44;NaN;;0.0;58.54063;;6 / 15;113006;2022-10-22 18:42:28:288
1.4964;-1.8733;11.8998;1.6779;-1.7816;9.4964;1.2337;0.7274;0.2881;0.1213;0.7713;0.6305;30.0;-2.76;-6.04;-31.56;192.57;10.47;-10.02;5.0;987.86;42.822;35.95834;-83.92446;811.44;NaN;;0.0;58.54063;;6 / 15;113507;2022-10-22 18:42:28:789
0.7588;-2.5451;8.42;0.7667;-1.8136;9.607;-1.2589;0.05;1.1715;-0.2494;0.2405;0.3405;26.0;-0.45;-4.93;-26.91;194.73;9.25;-5.17;5.0;987.87;45.33;35.95827;-83.92444;848.32;NaN;;0.0;56.74141;;10 / 15;114006;2022-10-22 18:42:29:288
1.9837;-1.8015;10.5341;0.9083;-3.2818;9.1965;0.5146;0.6013;-2.2265;0.2929;0.1316;-0.0238;27.0;1.95;-7.89;-25.88;195.74;19.55;-5.64;5.0;987.84;44.427;35.95827;-83.92444;848.32;NaN;;0.0;56.74141;;10 / 15;114506;2022-10-22 18:42:29:788
-0.2728;-1.2245;8.3136;2.6661;-2.36;9.1374;-0.8608;0.8156;-1.4646;0.7403;0.6407;0.1423;28.0;-9.0;-14.68;-27.71;177.89;13.93;-16.27;5.0;987.79;45.216;35.958237;-83.924416;865.91;NaN;;0.0;45.465023;;12 / 15;115007;2022-10-22 18:42:30:289
-0.2536;-4.3597;7.0292;1.3031;-2.6927;9.3393;-0.6561;-1.8447;-2.0765;0.25;-0.3108;-2.0278;28.0;-20.49;-17.81;-33.21;144.13;18.07;-0.35;5.0;987.78;44.341;35.958237;-83.924416;865.91;NaN;;0.0;45.465023;;12 / 15;115506;2022-10-22 18:42:30:788
1.8458;-4.2173;9.9679;1.4524;-5.0292;8.2927;2.1434;-1.5884;4.4552;0.7462;-0.1374;-0.4679;42.0;-1.12;-28.93;-45.17;188.09;30.85;-9.93;5.0;987.84;47.843;35.958237;-83.924416;865.91;NaN;;0.0;45.465023;;13 / 15;116007;2022-10-22 18:42:31:289
0.2862;-6.4328;10.2467;1.4509;-5.7212;7.8315;-0.4048;-0.9476;-3.3707;-1.2257;0.1814;-0.6164;55.0;5.61;-23.85;-49.22;201.41;33.59;-14.19;5.0;987.82;41.505;35.958237;-83.924416;865.91;NaN;;0.0;45.465023;;13 / 15;116509;2022-10-22 18:42:31:791
-1.628;-5.6405;11.761;-0.1212;-5.2317;8.2936;1.5655;0.1099;0.9789;0.4216;0.4484;0.8304;73.0;34.11;-18.32;-44.18;220.57;32.24;0.84;5.0;987.74;42.801;35.958244;-83.92447;828.45;NaN;;0.0;27.267569;;14 / 15;117007;2022-10-22 18:42:32:289
1.4557;-2.8717;9.8157;-0.16;-2.833;9.3872;0.2248;1.1603;-2.4666;0.0622;0.0458;0.6223;149.0;29.27;-32.78;-43.27;212.62;16.79;0.98;5.0;987.75;47.706;35.958244;-83.92447;828.45;NaN;;0.0;27.267569;;14 / 15;117507;2022-10-22 18:42:32:789
-0.5315;-2.6276;6.3251;0.3056;-2.2558;9.5388;-0.135;-1.3466;-1.9564;0.7303;-0.0571;-0.9409;174.0;21.68;-38.68;-43.33;201.75;19.01;2.12;5.0;987.7;46.925;35.958256;-83.92452;810.57;NaN;;0.0;22.2814;;14 / 15;118006;2022-10-22 18:42:33:288
2.5558;-1.9463;8.8068;2.4807;-2.114;9.2492;0.7861;-0.287;-1.9127;-0.3906;0.2998;-0.9493;231.0;25.43;-18.26;-39.79;234.62;12.45;-15.01;5.0;987.71;43.173;35.958256;-83.92452;810.57;NaN;;0.0;22.2814;;14 / 15;118506;2022-10-22 18:42:33:788
1.8829;2.0459;7.989;1.9826;2.3312;9.3169;-0.5882;-0.8621;-0.6901;1.5409;-0.5898;-1.0116;266.0;27.64;-10.33;-37.52;248.11;7.11;-10.75;5.0;987.75;49.218;35.958267;-83.92454;805.69;NaN;;0.0;20.229664;;14 / 15;119006;2022-10-22 18:42:34:288
-3.9945;-1.8147;10.8284;-2.5149;0.2743;9.4747;-0.3086;-0.6546;2.1242;0.6496;-1.026;-0.5278;264.0;33.21;-6.47;-28.44;258.55;-1.6;14.87;5.0;987.68;45.451;35.958267;-83.92454;805.69;NaN;;0.0;20.229664;;14 / 15;119506;2022-10-22 18:42:34:788
-0.516;3.3781;7.8395;-1.4149;2.4353;9.3935;-0.4365;-1.5421;-0.057;0.9233;0.4725;-1.0688;272.0;31.13;13.93;-30.47;298.53;-3.35;3.48;5.0;987.66;51.107;35.958256;-83.92455;813.85;NaN;;0.0;20.84491;;14 / 15;120006;2022-10-22 18:42:35:288
-1.5467;2.0231;8.1832;-1.6081;2.1433;9.4335;-0.2483;-0.9286;-0.385;-0.0645;0.9501;0.0416;262.0;6.02;15.04;-43.07;3.11;-12.62;9.67;5.0;987.68;50.945;35.958256;-83.92455;813.85;NaN;;0.0;20.84491;;14 / 15;120506;2022-10-22 18:42:35:788
-0.3054;2.0997;11.505;0.1684;3.0716;9.3117;-0.3121;1.2309;0.9525;-0.1571;0.0355;0.042;224.0;11.03;12.04;-41.25;343.51;-16.9;5.52;5.0;987.68;45.261;35.958267;-83.924545;812.29;NaN;;0.0;21.199944;;14 / 15;121006;2022-10-22 18:42:36:288
-1.4509;4.4782;11.5672;-1.4098;4.0679;8.8111;0.8465;0.6916;-0.7877;0.1109;0.4072;-0.7267;249.0;-2.64;3.43;-44.4;25.75;-24.51;9.09;5.0;987.68;54.579;35.958267;-83.924545;812.29;NaN;;0.0;21.199944;;14 / 15;121506;2022-10-22 18:42:36:788
-2.758;4.4411;7.1261;-3.0904;4.6269;8.0754;0.6411;-0.9021;-0.8208;-0.1435;0.4421;0.0092;165.0;1.71;5.25;-43.69;16.5;-26.42;11.82;5.0;987.65;49.295;35.958267;-83.924545;812.29;NaN;;0.0;21.199944;;14 / 15;122006;2022-10-22 18:42:37:288
-3.0643;4.8063;9.0233;-2.9398;4.0572;8.4301;-0.4711;0.5945;-1.1003;0.2301;-0.2357;0.4371;113.0;16.82;6.17;-40.18;352.98;-24.44;19.23;5.0;987.58;47.435;35.958267;-83.924545;812.29;NaN;;0.0;21.199944;;14 / 15;122507;2022-10-22 18:42:37:789
-2.8729;4.0496;8.9515;-2.5879;4.8429;8.1253;0.5883;-0.5425;-0.0251;-0.1291;0.2984;0.224;117.0;16.39;4.16;-38.68;348.27;-30.0;15.41;5.0;987.65;46.77;35.958267;-83.924545;812.29;NaN;;0.0;21.199944;;14 / 15;123006;2022-10-22 18:42:38:288