ACCELEROMETER X (m/s²);ACCELEROMETER Y (m/s²);ACCELEROMETER Z (m/s²);GRAVITY X (m/s²);GRAVITY Y (m/s²);GRAVITY Z (m/s²);LINEAR ACCELERATION X (m/s²);LINEAR ACCELERATION Y (m/s²);LINEAR ACCELERATION Z (m/s²);GYROSCOPE X (rad/s);GYROSCOPE Y (rad/s);GYROSCOPE Z (rad/s);LIGHT (lux);MAGNETIC FIELD X (μT);MAGNETIC FIELD Y (μT);MAGNETIC FIELD Z (μT);ORIENTATION Z (azimuth °);ORIENTATION X (pitch °);ORIENTATION Y (roll °);PROXIMITY (i);ATMOSPHERIC PRESSURE (hPa);SOUND LEVEL (dB);LOCATION Latitude : ;LOCATION Longitude : ;LOCATION Altitude ( m);LOCATION Altitude-google ( m);LOCATION Altitude-atmospheric pressure ( m);LOCATION Speed ( Kmh);LOCATION Accuracy ( m);LOCATION ORIENTATION (°);Satellites in range;Time since start in ms ;YYYY-MO-DD HH-MI-SS_SSS
-1.4342;5.1808;9.5919;-1.104;3.9098;8.9255;-0.0967;0.029;-0.6606;-0.269;-0.7777;-0.4462;5.0;23.89;-24.09;0.19;228.82;-23.5;7.05;2.0;991.46;71.375;35.9585;-83.92435;741.94;NaN;;;354.8387;;0 / 18;9;2022-10-23 22:42:42:142
2.0806;1.9956;10.1366;1.5614;2.6391;9.3149;1.7527;-1.5565;-0.7286;0.4298;-0.2527;-0.9519;2.0;20.61;-31.67;-15.69;219.53;-13.24;-9.7;2.0;991.39;42.323;35.9585;-83.92435;741.94;NaN;;;354.8387;;0 / 18;509;2022-10-23 22:42:42:642
0.6141;2.0722;7.7486;0.3319;2.6879;9.4253;-2.6307;-1.7838;1.0818;0.4261;-0.0902;1.0948;2.0;27.71;-35.78;-28.48;226.78;-15.91;-2.02;2.0;991.31;71.986;35.9585;-83.92435;741.94;NaN;;;354.8387;;0 / 18;1010;2022-10-23 22:42:43:143
1.3178;-0.4059;9.0233;1.8851;1.5743;9.4941;2.355;-2.0917;-0.0133;-0.4455;0.9741;-1.5706;2.0;29.63;-40.84;-34.76;223.18;-6.87;-8.42;2.0;991.41;70.623;35.9585;-83.92435;741.94;NaN;;;354.8387;;0 / 18;1508;2022-10-23 22:42:43:641
0.2752;0.213;8.7625;-0.8363;2.5223;9.4398;0.9812;-1.6061;-0.6401;0.0471;1.1329;0.2707;1.0;39.36;-9.47;-36.71;269.68;-14.16;-3.24;2.0;991.32;68.429;35.9585;-83.92435;741.94;NaN;;;354.8387;;0 / 18;2008;2022-10-23 22:42:44:141
-2.6587;-0.3138;8.8798;-3.2348;-1.6829;9.1035;-3.1474;-1.0817;3.8507;0.2834;-0.1417;-0.4207;1.0;56.64;9.39;-16.5;283.19;-3.49;20.96;2.0;991.35;66.367;35.9585;-83.92435;741.94;NaN;;;354.8387;;0 / 18;2509;2022-10-23 22:42:44:642
-4.1429;-2.0913;8.2669;-2.6358;1.3389;9.3504;-2.4312;-3.5231;-2.5195;0.4863;1.0882;0.0137;2.0;63.75;32.34;-14.27;299.45;-4.58;10.97;2.0;991.33;69.497;35.9585;-83.92435;741.94;NaN;;;354.8387;;0 / 18;3008;2022-10-23 22:42:45:141
-0.62;1.2018;7.9484;-2.2615;-0.5797;9.5247;2.0398;-0.9468;3.8549;0.9338;-0.4159;-0.2727;2.0;63.92;37.16;-14.66;307.75;-9.14;20.53;2.0;991.32;65.038;35.9585;-83.92435;741.94;NaN;;;354.8387;;0 / 18;3508;2022-10-23 22:42:45:641
-0.9063;-0.8222;10.4994;-1.2966;0.7091;9.6947;1.4671;0.7173;-1.4118;0.2914;1.0072;-0.047;4.0;50.98;43.35;-21.13;313.22;-4.15;7.62;2.0;991.26;70.005;35.9585;-83.92435;741.94;NaN;;;354.8387;;0 / 18;4009;2022-10-23 22:42:46:142
-0.9577;1.494;8.2035;-0.7418;1.1847;9.7065;0.6859;-0.2585;0.2419;0.4968;-0.4932;-0.4427;5.0;53.51;33.36;-18.51;308.33;-8.53;14.87;2.0;991.28;70.777;35.9585;-83.92435;741.94;NaN;;;354.8387;;0 / 18;4508;2022-10-23 22:42:46:641
-0.778;-3.6305;13.188;-1.7367;-0.8494;9.6142;0.5048;1.3476;5.1174;0.1077;0.1874;-2.2537;6.0;47.55;38.18;-17.08;308.89;4.97;10.24;2.0;991.24;62.681;35.9585;-83.92435;741.94;NaN;;;354.8387;;0 / 18;5009;2022-10-23 22:42:47:142
-1.4581;1.7142;9.5656;-2.0414;0.4826;9.5797;-0.2412;0.7185;-2.3329;0.4092;-0.2474;-0.1151;6.0;38.03;39.26;-21.64;320.78;0.15;13.6;2.0;991.27;58.207;35.9585;-83.92435;741.94;NaN;;;354.8387;;0 / 18;5508;2022-10-23 22:42:47:641
-4.5691;0.5626;9.5369;-1.728;0.6117;9.6338;-0.028;0.7982;-2.6078;-0.294;0.4581;-0.607;4.0;26.49;27.36;-37.01;327.14;-3.58;10.17;2.0;991.24;68.697;35.9585;-83.92435;741.94;NaN;;;354.8387;;0 / 18;6008;2022-10-23 22:42:48:141
-1.2915;1.0989;6.6102;-3.093;1.8924;9.1117;3.2205;-0.1013;-1.1384;1.1292;-0.4749;-0.3803;2.0;25.71;17.81;-40.48;335.08;-3.84;21.17;2.0;991.24;72.068;35.9585;-83.92435;741.94;NaN;;;354.8387;;0 / 18;6509;2022-10-23 22:42:48:642
-0.8596;3.0308;9.0736;-0.612;1.1939;9.7144;-1.508;0.5964;-1.5544;0.3974;-0.459;-0.2299;5.0;20.4;4.5;-43.97;301.32;-6.99;3.6;2.0;991.21;68.761;35.9585;-83.92435;741.94;NaN;;;354.8387;;0 / 18;7009;2022-10-23 22:42:49:142
-3.6488;1.6842;7.113;-3.4127;1.9788;8.9782;2.9231;-0.0644;1.5417;1.347;0.1954;-0.868;8.0;10.88;-1.78;-41.87;312.87;-11.85;4.93;2.0;991.22;65.976;35.9585;-83.92435;741.94;NaN;;;354.8387;;0 / 18;7509;2022-10-23 22:42:49:642
-0.3748;3.5001;7.8969;-1.6175;2.4731;9.3508;1.0076;0.8154;-1.8784;0.0142;-0.7282;-0.6856;1.0;15.86;-3.28;-33.68;315.16;-16.35;13.77;2.0;991.15;65.103;35.9585;-83.92435;741.94;NaN;;;354.8387;;0 / 18;8009;2022-10-23 22:42:50:142
0.0514;1.4617;5.4634;-0.1319;3.2821;9.2402;2.3467;-1.3314;3.6749;0.5875;0.2413;-0.2421;1.0;1.14;3.09;-36.75;16.46;-11.89;6.37;2.0;991.28;67.834;35.9585;-83.92435;741.94;NaN;;;354.8387;;0 / 18;8508;2022-10-23 22:42:50:641
-4.0938;-1.8613;15.6897;1.1203;0.3678;9.7355;1.2069;0.184;-0.9152;-0.47;-0.2572;-1.3554;1.0;-11.1;9.73;-37.03;35.43;-3.29;-3.62;2.0;991.19;71.289;35.9585;-83.92435;741.94;NaN;;;354.8387;;0 / 18;9009;2022-10-23 22:42:51:142
0.6416;-0.2922;8.0261;-0.4188;1.2734;9.7146;-0.3794;-0.9276;1.1254;1.9494;0.5942;1.0092;1.0;-21.34;15.56;-30.47;54.35;1.89;-0.18;2.0;991.08;67.901;35.9585;-83.92435;741.94;NaN;;;354.8387;;0 / 18;9509;2022-10-23 22:42:51:642
-0.5447;2.3892;12.2471;0.331;2.0948;9.5746;-0.8425;1.363;-1.8684;0.0011;-0.6656;-0.8687;1.0;-18.11;17.19;-35.51;34.43;-12.33;-1.98;2.0;991.15;69.465;35.9585;-83.92435;741.94;NaN;;;354.8387;;0 / 18;10009;2022-10-23 22:42:52:142
1.1252;1.1456;5.9997;-0.3265;2.7685;9.4021;2.0952;-2.012;-2.6877;1.3313;0.7939;0.2127;1.0;-34.05;16.11;-26.4;58.43;-4.91;-7.78;2.0;991.01;69.084;35.9585;-83.92435;741.94;NaN;;;354.8387;;0 / 18;10508;2022-10-23 22:42:52:641
-0.2177;1.5359;6.8339;1.3642;1.1773;9.6397;0.06;-0.502;2.6063;-0.1678;-0.3325;-1.7137;1.0;-44.81;15.79;-29.31;63.61;-6.9;-8.06;2.0;991.05;68.886;35.9585;-83.92435;741.94;NaN;;;354.8387;;0 / 18;11009;2022-10-23 22:42:53:142
-1.5634;0.1938;10.7758;1.2685;1.599;9.5919;1.1312;-0.8141;0.3173;1.0553;0.4606;1.83;3.0;-64.86;-3.02;-15.92;90.25;-5.84;-9.7;2.0;991.14;68.166;35.9585;-83.92435;741.94;NaN;;;354.8387;;0 / 18;11509;2022-10-23 22:42:53:642
-0.7122;1.1276;14.9812;-3.0005;3.2847;8.7394;2.3458;-0.7057;-2.8699;-1.2198;-1.8551;-0.2159;2.0;-33.9;17.49;-38.08;61.3;-19.57;18.95;2.0;991.06;68.904;35.9585;-83.92435;741.94;NaN;;;354.8387;;0 / 18;12008;2022-10-23 22:42:54:141
0.0132;5.2549;10.1713;1.8859;3.9314;8.784;-1.8232;1.4739;0.6591;0.4917;-0.7392;-0.3208;2.0;-30.19;9.68;-42.0;45.97;-20.25;-5.65;2.0;991.04;66.381;35.9585;-83.92435;741.94;NaN;;;354.8387;;0 / 18;12508;2022-10-23 22:42:54:641
-0.9852;3.5336;7.3846;1.0254;3.5288;9.0921;-0.3499;-1.0749;-1.9844;0.4161;0.2439;-0.6533;3.0;-34.61;-6.0;-45.45;68.18;-21.09;-6.43;2.0;991.02;69.3;35.9585;-83.92435;741.94;NaN;;;354.8387;;0 / 18;13010;2022-10-23 22:42:55:143
0.4226;1.579;10.0493;0.1285;3.37;9.2085;-0.4262;1.5162;0.7708;-0.2453;0.1404;-0.4059;3.0;-35.14;-17.49;-47.42;84.54;-24.4;1.76;2.0;991.07;69.587;35.9585;-83.92435;741.94;NaN;;;354.8387;;0 / 18;13509;2022-10-23 22:42:55:642
3.7265;4.5595;9.8686;1.8809;3.6375;8.9107;-0.2891;0.8385;-0.0531;0.4446;-0.2388;-0.0018;11.0;-42.02;-21.62;-37.29;102.94;-17.29;-8.32;2.0;991.06;72.203;35.9585;-83.92435;741.94;NaN;;;354.8387;;0 / 18;14009;2022-10-23 22:42:56:142
1.9152;4.3801;6.798;1.6863;5.05;8.2355;0.8618;-0.9055;-1.2759;-0.1695;-0.6701;-1.1841;14.0;-43.91;-32.51;-24.43;110.17;-27.86;-11.51;2.0;991.03;69.081;35.9585;-83.92435;741.94;NaN;;;354.8387;;0 / 18;14508;2022-10-23 22:42:56:641
0.4944;3.8785;7.6516;2.4961;4.173;8.5162;-1.7388;-0.5326;-2.1068;-0.7918;-0.161;-1.5845;10.0;-25.42;-41.49;-13.22;145.03;-26.31;-19.12;2.0;991.0;68.658;35.9585;-83.92435;741.94;NaN;;;354.8387;;0 / 18;15008;2022-10-23 22:42:57:141
2.1511;4.0196;6.0894;2.131;4.1051;8.6474;1.7163;-0.66;0.2969;0.5079;-0.3309;-0.9849;14.0;-18.06;-43.31;-12.83;156.55;-23.12;-14.22;2.0;990.98;69.509;35.9585;-83.92435;741.94;NaN;;;354.8387;;0 / 18;15509;2022-10-23 22:42:57:642
1.1121;3.2142;7.1764;2.7446;3.4724;8.751;1.1252;0.3918;-0.6556;-0.5201;-0.4438;-1.2546;24.0;-5.61;-37.73;-11.81;176.04;-20.74;-17.41;2.0;991.05;69.287;35.9585;-83.92435;741.94;NaN;;;354.8387;;0 / 18;16008;2022-10-23 22:42:58:141
2.7185;1.8482;8.9755;2.0282;3.3147;9.0038;0.9535;-1.5442;2.7259;0.6659;0.6662;0.3741;6.0;2.18;-28.61;-19.22;195.64;-17.67;-12.92;2.0;991.02;69.341;35.9585;-83.92435;741.94;NaN;;;354.8387;;0 / 18;16509;2022-10-23 22:42:58:642
-2.4526;-1.0475;12.0087;-2.0946;1.1917;9.5059;1.1334;1.9908;-0.7428;0.0437;-0.5797;-0.9019;2.0;7.59;-22.99;-23.91;187.63;-6.98;12.43;2.0;991.0;71.416;35.9585;-83.92435;741.94;NaN;;;354.8387;;0 / 18;17008;2022-10-23 22:42:59:141
-5.17;0.5853;8.8403;-3.5832;0.2532;9.1251;0.8665;0.4037;0.2567;0.656;0.5994;-0.8616;2.0;20.74;-11.51;-28.8;221.1;2.24;16.98;2.0;990.96;71.916;35.9585;-83.92435;741.94;NaN;;;354.8387;;0 / 18;17508;2022-10-23 22:42:59:641
-5.0551;2.6216;5.8211;-4.8656;2.7667;8.0524;-0.2983;-1.7141;-1.4119;-0.079;0.7545;0.8637;2.0;33.26;-12.36;-28.71;271.32;-16.39;31.14;2.0;990.83;70.824;35.9585;-83.92435;741.94;NaN;;;354.8387;;0 / 18;18008;2022-10-23 22:43:00:141
-2.0243;1.2461;8.3375;-4.3493;1.8633;8.5896;0.6654;-1.6896;0.0457;0.3478;-0.3207;-0.5977;2.0;34.71;-17.76;-25.65;241.93;-11.68;29.04;2.0;991.0;66.382;35.9585;-83.92435;741.94;NaN;;;354.8387;;0 / 18;18509;2022-10-23 22:43:00:642
-4.6217;0.9326;12.4361;-3.2476;1.7531;9.0857;-2.2147;2.1802;1.1521;0.2587;-0.605;0.7705;1.0;29.93;-7.31;-36.54;274.15;-10.3;19.67;2.0;990.98;70.998;35.9585;-83.92435;741.94;NaN;;;354.8387;;0 / 18;19009;2022-10-23 22:43:01:142
-3.2297;2.1823;12.4505;-3.5739;2.2924;8.8398;0.9963;1.1908;1.0254;-0.6302;-1.3748;-1.3641;1.0;29.31;-5.92;-36.64;314.91;-19.01;26.6;2.0;990.87;70.754;35.9585;-83.92435;741.94;NaN;;;354.8387;;0 / 18;19509;2022-10-23 22:43:01:642
-3.6918;4.3741;9.3646;-1.6071;2.7233;9.2828;-0.8721;0.5407;-0.7848;0.7467;-0.5382;0.1215;1.0;23.21;9.9;-39.51;323.8;-16.12;9.82;2.0;990.88;68.389;35.9585;-83.92435;741.94;NaN;;;354.8387;;0 / 18;20008;2022-10-23 22:43:02:141
-3.9634;3.0248;7.1728;-4.3431;2.9634;8.278;1.1027;-0.9129;-2.5212;-0.7259;-0.1581;0.6154;1.0;29.34;15.73;-35.83;335.92;-11.96;24.89;2.0;990.83;71.155;35.9585;-83.92435;741.94;NaN;;;354.8387;;0 / 18;20508;2022-10-23 22:43:02:641
-2.3414;-0.8524;9.8698;-2.732;0.1364;9.4174;0.7385;0.0295;5.6959;-1.5428;-0.4226;-2.1407;2.0;50.91;11.08;-25.84;295.93;-12.61;18.21;2.0;990.91;66.529;35.9585;-83.92435;741.94;NaN;;;354.8387;;0 / 18;21008;2022-10-23 22:43:03:141
-3.0799;3.2979;8.3459;-3.4776;1.4503;9.0539;0.1783;-0.8832;-1.2303;0.1781;0.1379;-0.1161;3.0;54.06;12.81;-21.88;292.63;-6.67;21.48;2.0;990.89;57.763;35.9585;-83.92435;741.94;NaN;;;354.8387;;0 / 18;21508;2022-10-23 22:43:03:641
-2.0997;1.2508;7.8311;-4.2442;1.0392;8.7794;-0.0922;-2.2852;2.1706;0.7907;0.1284;-0.1697;4.0;52.63;14.55;-19.07;295.92;-6.08;25.8;2.0;990.83;71.185;35.9585;-83.92435;741.94;NaN;;;354.8387;;0 / 18;22009;2022-10-23 22:43:04:142
-3.6281;-0.6978;9.9643;-3.6813;0.1216;9.0887;-0.3906;-1.8681;1.7357;0.663;0.2908;-1.7093;4.0;34.95;14.87;-19.12;311.4;-9.52;26.41;2.0;990.9;69.579;35.9585;-83.92435;741.94;NaN;;;354.8387;;0 / 18;22509;2022-10-23 22:43:04:642
-7.022;-2.3186;10.6741;-4.9753;0.9183;8.4008;0.1544;1.4081;0.0205;0.6706;0.4328;-0.9304;4.0;7.2;3.17;-24.64;51.54;-5.37;30.64;2.0;990.97;66.928;35.9585;-83.92435;741.94;NaN;;;354.8387;;0 / 18;23008;2022-10-23 22:43:05:141
-4.1405;-0.358;12.6239;-4.9394;1.0375;8.4081;1.0938;0.3614;-0.9365;0.56;-0.4755;-1.0503;3.0;4.8;-9.34;-22.12;124.31;-8.88;34.34;2.0;990.92;68.246;35.9585;-83.92435;741.94;NaN;;;354.8387;;0 / 18;23509;2022-10-23 22:43:05:642
-3.4989;2.7126;8.7111;-4.3774;0.7464;8.7437;-1.6184;-0.3543;-0.9158;-0.3807;-0.6389;0.362;3.0;4.46;-12.19;-10.82;173.07;-4.37;26.59;2.0;990.91;51.768;35.9585;-83.92435;741.94;NaN;;;354.8387;;0 / 18;24009;2022-10-23 22:43:06:142
-2.4574;1.8075;7.8227;-3.5213;2.13;8.9014;0.5434;-1.0927;0.707;0.4032;-0.5311;-1.1625;3.0;-7.84;0.94;-7.13;80.71;-12.7;24.11;2.0;990.88;70.083;35.9585;-83.92435;741.94;NaN;;;354.8387;;0 / 18;24509;2022-10-23 22:43:06:642
-4.2377;3.2883;14.9034;-1.6947;1.5334;9.5366;-2.0607;0.417;-0.3735;-0.1852;0.2977;0.8023;3.0;-30.39;-5.81;4.95;104.69;-9.0;10.08;2.0;990.86;70.236;35.9585;-83.92435;741.94;NaN;;;354.8387;;0 / 18;25009;2022-10-23 22:43:07:142
-2.3952;6.0368;9.3622;-2.5946;4.0908;8.5267;0.2961;-0.4598;-2.1888;-0.8757;-1.2179;-0.1616;1.0;-40.57;-13.52;6.84;118.8;-24.12;17.03;2.0;990.75;68.819;35.9585;-83.92435;741.94;NaN;;;354.8387;;0 / 18;25509;2022-10-23 22:43:07:642
0.1184;3.2201;8.45;0.6518;3.2767;9.22;1.1563;-0.6066;-0.673;-0.1578;-0.6893;-1.0879;1.0;-34.86;-30.71;9.62;132.6;-20.06;-0.99;2.0;990.9;53.548;35.9585;-83.92435;741.94;NaN;;;354.8387;;0 / 18;26010;2022-10-23 22:43:08:143
-0.0203;2.5857;8.8092;0.7881;2.0703;9.5532;-1.6647;-1.5601;1.7581;0.0742;0.6619;0.5594;1.0;-9.81;-30.11;2.27;153.01;-19.43;-2.62;2.0;990.77;72.62;35.9585;-83.92435;741.94;NaN;;;354.8387;;0 / 18;26508;2022-10-23 22:43:08:641
2.6025;0.5327;10.2455;0.2613;2.9248;9.3567;2.8227;-0.6398;0.1647;1.0438;-1.0368;-1.3626;0.0;3.66;-22.82;-2.57;189.46;-10.76;6.12;2.0;990.74;72.505;35.9585;-83.92435;741.94;NaN;;;354.8387;;0 / 18;27009;2022-10-23 22:43:09:142
-2.1787;1.9499;11.8627;-2.0548;2.1361;9.348;-3.3811;0.9958;0.3029;-0.6178;-0.2873;1.3964;1.0;9.71;-12.22;-4.01;219.61;-14.77;19.36;0.0;990.9;67.46;35.9585;-83.92435;741.94;NaN;;;354.8387;;0 / 18;27508;2022-10-23 22:43:09:641
-2.4323;3.0523;9.4771;-1.9697;2.6129;9.2446;0.192;0.0296;0.0098;0.1723;0.9722;0.0011;1.0;-2.12;-7.95;-2.98;159.86;-15.45;12.03;0.0;990.77;46.144;35.9585;-83.92435;741.94;NaN;;;354.8387;;0 / 18;28008;2022-10-23 22:43:10:141
-1.6364;1.9813;9.2845;-1.9385;1.4247;9.507;0.6394;0.7396;-0.1165;0.1468;-0.4936;-0.3606;1.0;-7.31;-7.91;0.43;140.72;-10.47;16.16;0.0;990.74;64.462;35.9585;-83.92435;741.94;NaN;;;354.8387;;0 / 18;28508;2022-10-23 22:43:10:641
-2.0267;3.2644;7.8467;-1.4239;3.5134;9.0443;-0.7122;-2.0389;-0.9606;-0.013;0.4717;0.3647;0.0;-23.04;-17.33;-5.17;123.27;-18.64;6.6;0.0;990.65;71.913;35.9585;-83.92435;741.94;NaN;;;354.8387;;0 / 18;29009;2022-10-23 22:43:11:142
0.6045;3.6329;8.2179;-1.1316;3.154;9.2164;-0.1609;-1.1026;0.0028;0.7836;0.3208;-0.7264;1.0;-33.54;-26.66;-6.58;124.34;-22.72;6.64;0.0;990.69;67.337;35.9585;-83.92435;741.94;NaN;;;354.8387;;0 / 18;29510;2022-10-23 22:43:11:643
-5.2645;2.1057;9.7343;-3.0613;3.0957;8.7872;-0.5436;1.279;-0.3724;-0.7994;-0.1726;-0.296;0.0;-26.38;-35.61;-9.98;139.45;-22.71;17.18;0.0;990.71;50.912;35.9585;-83.92435;741.94;NaN;;;354.8387;;0 / 18;30008;2022-10-23 22:43:12:141
0.6021;2.3533;11.2104;-1.6726;1.6587;9.5195;0.4226;0.8666;0.4124;0.2232;-0.1258;-0.1649;0.0;-22.87;-34.39;-16.35;140.81;-11.11;9.43;0.0;990.68;57.561;35.9585;-83.92435;741.94;NaN;;;354.8387;;0 / 18;30509;2022-10-23 22:43:12:642
0.2034;3.3876;10.3508;0.3352;1.9913;9.5965;-0.6592;0.2318;-2.1187;0.0887;-0.1226;-0.2705;4.0;-21.56;-26.83;-22.74;135.58;-11.72;-2.0;0.0;990.74;70.997;35.9585;-83.92435;741.94;NaN;;;354.8387;;0 / 18;31009;2022-10-23 22:43:13:142
-1.0857;1.713;7.8538;-0.6699;1.1009;9.7216;-0.0511;-0.2068;-0.8544;0.154;0.4143;-0.0709;6.0;-16.33;-11.96;-28.71;124.27;-10.43;-1.62;0.0;990.68;70.121;35.9585;-83.92435;741.94;NaN;;;354.8387;;0 / 18;31508;2022-10-23 22:43:13:641
2.1021;-1.6316;10.4372;0.1023;0.0315;9.8061;2.381;-3.362;1.1803;-0.004;-0.0477;-0.8718;12.0;-9.96;0.98;-34.31;83.44;-0.18;-0.6;0.0;990.58;68.685;35.9585;-83.92435;741.94;NaN;;;354.8387;;0 / 18;32009;2022-10-23 22:43:14:142
-1.5156;0.9386;8.8319;-0.4779;1.2325;9.7171;0.1329;-0.2903;-0.9546;0.3325;0.363;-1.0445;14.0;-12.34;4.44;-35.34;59.06;-4.79;-0.75;0.0;990.57;69.61;35.9585;-83.92435;741.94;NaN;;;354.8387;;0 / 18;32508;2022-10-23 22:43:14:641
-1.4521;2.8956;7.9926;-1.3175;2.2458;9.4547;0.5562;0.2406;-1.4451;0.0558;-0.04;-0.5349;10.0;-11.57;-9.99;-35.44;97.41;-13.24;7.93;0.0;990.6;69.868;35.9585;-83.92435;741.94;NaN;;;354.8387;;0 / 18;33009;2022-10-23 22:43:15:142
-1.7237;0.8632;9.2773;-0.3007;1.2816;9.7179;0.5157;-0.9833;-0.797;-0.2763;-1.1212;-1.6213;8.0;-13.22;-18.6;-33.75;129.15;-9.66;5.68;0.0;990.64;70.605;35.9585;-83.92435;741.94;NaN;;;354.8387;;0 / 18;33508;2022-10-23 22:43:15:641
-1.7728;-0.2572;10.6884;-4.4911;1.6717;8.556;-0.3818;0.15;-1.026;-1.3802;-0.8177;-1.1532;6.0;1.22;-33.81;-23.91;160.99;-9.82;27.7;0.0;990.7;70.414;35.9585;-83.92435;741.94;NaN;;;354.8387;;0 / 18;34008;2022-10-23 22:43:16:141
0.5722;0.315;10.9325;-1.3716;0.2617;9.7067;1.3881;-0.3552;0.0033;-0.1554;0.2078;-1.4195;6.0;6.69;-37.37;-22.05;185.12;-2.88;9.67;0.0;990.62;71.015;35.9585;-83.92435;741.94;NaN;;;354.8387;;0 / 18;34508;2022-10-23 22:43:16:641
-0.3903;-1.2808;12.1202;-1.8545;-0.1163;9.629;-0.1122;0.173;0.7498;-0.0208;0.5264;-0.3451;7.0;29.91;-33.39;-11.44;220.37;0.29;8.2;0.0;990.63;70.445;35.9585;-83.92435;741.94;NaN;;;354.8387;;0 / 18;35009;2022-10-23 22:43:17:142
-2.2911;1.0798;10.9253;-1.4552;0.9775;9.6487;-0.0444;0.6328;-0.0485;-0.1713;0.1519;-0.2443;3.0;39.94;-20.66;-4.33;242.99;-5.9;7.85;0.0;990.52;69.608;35.9585;-83.92435;741.94;NaN;;;354.8387;;0 / 18;35508;2022-10-23 22:43:17:641
-0.1077;1.6161;9.0449;-0.2455;1.645;9.6646;0.643;-0.6099;-2.1169;-0.003;0.006;-0.3129;2.0;35.46;-11.19;-7.56;254.87;-9.56;0.9;0.0;990.6;50.726;35.9585;-83.92435;741.94;NaN;;;354.8387;;0 / 18;36008;2022-10-23 22:43:18:141
-1.2018;1.1946;6.7478;-0.3836;0.5924;9.7812;-0.955;-2.3686;0.5873;0.2942;0.6782;0.8066;2.0;35.21;-8.33;-10.78;260.19;-9.46;0.5;0.0;990.57;72.616;35.9585;-83.92435;741.94;NaN;;;354.8387;;0 / 18;36509;2022-10-23 22:43:18:642
-0.0802;-1.4569;9.8435;-0.3062;-0.3194;9.7967;1.2861;0.3375;1.1526;1.2115;0.1513;-0.6712;1.0;34.76;-8.62;-9.13;254.96;1.87;1.79;0.0;990.59;67.188;35.958385;-83.92443;778.71;NaN;;;220.64517;;0 / 18;37008;2022-10-23 22:43:19:141
-2.8573;-0.565;11.8795;-1.0061;1.5359;9.6332;-2.3549;-0.2579;-0.2609;-0.1665;-0.2166;-0.9127;1.0;31.97;-2.12;-10.22;267.39;-2.57;6.09;0.0;990.54;67.574;35.958385;-83.92443;778.71;NaN;;;220.64517;;0 / 18;37509;2022-10-23 22:43:19:642
1.0522;3.0547;9.9679;-1.3984;2.9174;9.2576;1.4838;-0.1831;0.59;-1.2325;-0.577;-0.8309;1.0;22.24;6.36;-11.49;296.31;-17.31;8.59;0.0;990.54;68.715;35.958385;-83.92443;778.71;NaN;;;220.64517;;0 / 18;38009;2022-10-23 22:43:20:142
-0.3987;1.8709;12.0832;0.0757;0.1908;9.8045;-0.6579;1.5209;-0.657;-0.2601;-0.2646;-0.5017;1.0;15.98;11.66;-11.49;308.44;-2.66;1.22;0.0;990.49;67.788;35.958385;-83.92443;778.71;NaN;;;220.64517;;0 / 18;38508;2022-10-23 22:43:20:641
-2.2792;0.9589;7.8849;-1.6391;1.0401;9.6126;0.7388;-1.3291;-0.2498;0.5995;0.999;0.8902;1.0;9.08;13.31;-10.99;333.74;-6.09;9.68;0.0;990.42;63.228;35.958385;-83.92443;778.71;NaN;;;220.64517;;0 / 18;39009;2022-10-23 22:43:21:142
-1.3214;3.1723;8.152;-1.13;2.3976;9.4417;1.3471;0.2676;-3.4686;0.1461;-0.8954;-1.3006;1.0;8.33;9.17;-12.97;332.36;-12.3;7.8;0.0;990.51;72.555;35.958385;-83.92443;778.71;NaN;;;220.64517;;0 / 18;39508;2022-10-23 22:43:21:641
-4.028;-0.0323;7.3917;-2.3338;3.5152;8.8525;0.603;-1.7606;-4.7535;-0.2049;-0.889;-0.5188;1.0;3.36;2.64;-19.61;12.39;-21.0;14.77;0.0;990.49;69.604;35.958385;-83.92443;778.71;NaN;;;220.64517;;0 / 18;40008;2022-10-23 22:43:22:141
-0.358;1.9669;8.0118;-2.2109;1.8067;9.3818;0.9137;-0.7456;-0.8901;0.4677;-0.1095;-0.5504;1.0;6.43;-2.87;-23.81;29.25;-13.36;17.65;0.0;990.45;51.785;35.958385;-83.92443;778.71;NaN;;;220.64517;;0 / 18;40508;2022-10-23 22:43:22:641
-2.254;2.1153;12.3093;-1.0534;2.8329;9.3293;-1.0372;2.5291;0.3554;-0.4809;-0.33;-0.2368;2.0;12.06;-2.89;-28.07;312.57;-18.86;9.3;0.0;990.48;66.54;35.958385;-83.92443;778.71;NaN;;;220.64517;;0 / 18;41009;2022-10-23 22:43:23:142
-2.648;5.4323;9.0867;-2.5138;3.4533;8.8276;0.1866;1.3788;-0.2445;-0.1333;-0.3299;-0.522;2.0;26.55;-7.39;-29.25;291.38;-23.63;14.06;0.0;990.48;71.322;35.958385;-83.92443;778.71;NaN;;;220.64517;;0 / 18;41508;2022-10-23 22:43:23:641
0.1687;2.2337;8.2274;-1.4907;2.565;9.3471;0.8382;-1.7803;2.195;0.913;0.0122;-0.0145;3.0;36.71;-9.04;-28.71;263.62;-8.81;11.91;0.0;990.37;70.331;35.958385;-83.92443;778.71;NaN;;;220.64517;;0 / 18;42009;2022-10-23 22:43:24:142
-2.254;4.2437;11.4162;-2.5017;3.0343;8.9836;-0.9727;0.8533;0.3318;0.0583;0.2987;-0.2801;5.0;34.29;-5.48;-33.04;283.75;-16.66;11.89;0.0;990.43;66.539;35.958385;-83.92443;778.71;NaN;;;220.64517;;0 / 18;42509;2022-10-23 22:43:24:642
-2.3139;3.6918;8.3554;-2.9856;4.0466;8.4191;0.363;-0.6223;-1.1858;0.1629;-0.5375;-0.9493;5.0;38.83;-2.85;-25.65;294.44;-24.37;19.53;0.0;990.35;64.839;35.958385;-83.92443;778.71;NaN;;;220.64517;;0 / 18;43009;2022-10-23 22:43:25:142
-4.2365;3.1496;8.7685;-2.9919;3.5777;8.6266;0.6822;0.6439;-0.9949;1.0239;-0.2351;-1.9488;5.0;33.36;-0.17;-24.71;294.23;-19.44;16.36;0.0;990.26;61.749;35.958385;-83.92443;778.71;NaN;;;220.64517;;0 / 18;43509;2022-10-23 22:43:25:642
-2.9698;2.7903;10.9062;-3.6144;3.5371;8.4021;-0.2948;-0.0919;-0.4495;-0.2167;-0.6344;-0.3899;3.0;23.51;-5.34;-28.61;308.32;-21.14;23.28;0.0;990.36;68.961;35.958385;-83.92443;778.71;NaN;;;220.64517;;0 / 18;44008;2022-10-23 22:43:26:141
-0.5614;3.2213;10.5712;-0.4578;2.5909;9.4471;0.4118;-0.036;-1.5336;0.0526;-0.406;-0.8157;1.0;18.47;-12.45;-35.32;261.95;-15.06;4.31;0.0;990.32;70.363;35.958385;-83.92443;778.71;NaN;;;220.64517;;0 / 18;44508;2022-10-23 22:43:26:641
-3.0571;3.6269;4.0316;-0.9056;5.549;8.0349;-0.036;-4.1479;-1.2579;0.5293;0.9119;-0.5427;1.0;17.31;-17.44;-37.11;301.67;-34.46;6.43;0.0;990.29;68.204;35.958385;-83.92443;778.71;NaN;;;220.64517;;0 / 18;45009;2022-10-23 22:43:27:142
-1.8218;3.9299;8.5373;-1.9878;4.2266;8.6229;0.7886;-1.4753;1.0115;0.5223;-0.5625;-0.6805;1.0;20.12;-21.32;-31.46;250.21;-25.18;15.04;0.0;990.31;55.446;35.958385;-83.92443;778.71;NaN;;;220.64517;;0 / 18;45509;2022-10-23 22:43:27:642
-0.821;4.2508;6.475;-0.083;5.5986;8.051;-0.0123;-1.2907;-1.7137;0.2995;1.8506;0.5814;0.0;9.3;-18.19;-37.29;306.59;-34.81;0.59;0.0;990.36;73.958;35.958385;-83.92443;778.71;NaN;;;220.64517;;0 / 18;46010;2022-10-23 22:43:28:143
-0.4346;2.1356;12.4816;-1.2279;3.2405;9.174;0.0896;-0.6533;2.2474;0.0299;-0.3822;-0.5868;1.0;-0.32;-24.26;-35.4;75.64;-37.25;10.94;0.0;990.42;65.502;35.958385;-83.92443;778.71;NaN;;;220.64517;;0 / 18;46509;2022-10-23 22:43:28:642
0.7983;2.4179;12.3356;-0.5416;2.6712;9.4203;-3.5429;-0.8815;1.243;0.0214;0.3757;0.7894;1.0;-6.88;-11.92;-41.83;77.0;-18.65;2.09;0.0;990.34;68.042;35.958385;-83.92443;778.71;NaN;;;220.64517;;0 / 18;47009;2022-10-23 22:43:29:142
0.425;4.6792;9.2518;-2.361;4.316;8.4834;1.2692;0.0377;0.8215;-0.13;-1.0007;-0.285;1.0;-8.4;-16.09;-40.43;72.38;-30.05;11.38;0.0;990.32;65.733;35.958385;-83.92443;778.71;NaN;;;220.64517;;0 / 18;47510;2022-10-23 22:43:29:643
-0.2596;6.1433;9.1872;1.8704;3.8138;8.8389;-2.787;1.3091;2.1158;0.984;-1.4489;0.4047;1.0;-7.37;-13.24;-40.03;86.99;-18.4;-1.06;0.0;990.19;55.374;35.958385;-83.92443;778.71;NaN;;;220.64517;;0 / 18;48008;2022-10-23 22:43:30:141
0.2237;3.4522;7.4563;-0.4546;4.0381;8.9251;0.6368;-1.8245;-2.9284;-0.999;0.2983;0.5953;0.0;-9.83;-12.09;-40.48;58.08;-24.46;-1.18;0.0;990.2;67.088;35.958385;-83.92443;778.71;NaN;;;220.64517;;0 / 18;48508;2022-10-23 22:43:30:641
-2.5929;2.6527;8.2167;-0.2731;1.8083;9.6346;0.5457;0.6292;-1.5421;0.7588;-0.632;-1.0675;2.0;0.88;-3.79;-44.7;3.61;-10.63;1.62;0.0;990.13;71.875;35.958385;-83.92443;778.71;NaN;;;220.64517;;0 / 18;49009;2022-10-23 22:43:31:142
-0.772;2.2708;5.2214;-1.7203;3.2648;9.0858;1.9154;-2.3465;-1.3954;0.9719;0.8023;0.0147;3.0;3.9;0.34;-46.39;341.33;-15.61;-0.23;0.0;990.16;65.38;35.958385;-83.92443;778.71;NaN;;;220.64517;;0 / 18;49508;2022-10-23 22:43:31:641
-1.0415;1.914;15.0589;-2.2428;3.625;8.8317;-0.0369;0.7949;-0.296;-0.7927;-0.6409;-0.9486;2.0;22.54;-6.39;-45.22;318.42;-21.69;14.25;0.0;990.18;66.078;35.958385;-83.92443;778.71;NaN;;;220.64517;;0 / 18;50009;2022-10-23 22:43:32:142
-1.8278;4.8362;10.2191;-1.8867;1.853;9.4434;-1.5367;-0.5098;0.7179;-0.8281;-0.1747;-0.7626;3.0;15.56;-8.4;-39.11;304.97;-18.1;11.99;0.0;990.18;57.685;35.958385;-83.92443;778.71;NaN;;;220.64517;;0 / 18;50509;2022-10-23 22:43:32:642
-3.4714;2.9219;7.5329;-2.1464;3.8896;8.7427;2.7787;-2.2076;-1.2529;-0.0753;-0.1855;-0.8156;6.0;1.22;-9.58;-35.78;57.87;-23.37;13.79;0.0;990.14;61.184;35.958385;-83.92443;778.71;NaN;;;220.64517;;0 / 18;51008;2022-10-23 22:43:33:141
-1.2604;0.0359;12.7439;-2.3889;1.157;9.4406;2.2156;2.0482;4.2141;-2.3219;-0.2456;-0.8863;5.0;-3.81;-18.26;-39.36;103.02;-21.37;18.67;0.0;990.14;69.249;35.958385;-83.92443;778.71;NaN;;;220.64517;;0 / 18;51508;2022-10-23 22:43:33:641
-3.3745;3.4475;7.6301;-1.8503;2.4368;9.3171;1.7326;-0.5772;-1.935;0.4257;0.0434;-1.5145;7.0;-3.19;-21.15;-45.09;129.11;-14.39;11.23;0.0;990.13;68.172;35.958385;-83.92443;778.71;NaN;;;220.64517;;0 / 18;52009;2022-10-23 22:43:34:142
-2.0387;4.4913;6.6197;-3.0543;4.1876;8.325;1.0465;-0.9653;-0.9647;0.4051;-0.9795;-0.843;7.0;15.81;-26.14;-33.23;202.94;-21.1;18.46;0.0;990.14;66.248;35.958385;-83.92443;778.71;NaN;;;220.64517;;0 / 18;52508;2022-10-23 22:43:34:641
0.3437;3.4187;7.5066;0.8333;3.5432;9.1062;-0.3727;-0.0373;0.2971;-0.3516;-0.592;-1.1607;8.0;21.84;-26.76;-27.22;239.02;-24.67;-0.48;0.0;990.18;69.685;35.958385;-83.92443;778.71;NaN;;;220.64517;;0 / 18;53009;2022-10-23 22:43:35:142
1.5239;0.3951;9.8459;0.0024;2.0561;9.5887;1.6936;-1.561;4.0935;0.2934;0.5502;-0.7939;5.0;17.29;-20.33;-35.12;247.84;-18.74;-5.6;0.0;990.11;69.337;35.958385;-83.92443;778.71;NaN;;;220.64517;;0 / 18;53508;2022-10-23 22:43:35:641
1.4821;2.5295;13.3268;-1.5896;2.0782;9.4512;-0.282;1.7292;2.3257;-0.2925;0.0518;0.6128;2.0;22.78;-14.4;-36.13;252.25;-12.23;9.55;0.0;990.13;67.316;35.958385;-83.92443;778.71;NaN;;;220.64517;;0 / 18;54010;2022-10-23 22:43:36:143
0.4143;3.1711;8.2741;0.3955;2.8891;9.3631;0.8629;-0.445;-2.8748;-0.0657;-0.5127;-0.6838;2.0;20.78;-13.13;-39.71;259.68;-12.92;2.03;0.0;989.99;67.993;35.958385;-83.92443;778.71;NaN;;;220.64517;;0 / 18;54509;2022-10-23 22:43:36:642
0.8378;2.4514;7.4145;0.7459;2.6213;9.4203;-0.001;-1.2196;0.4615;0.5827;0.9031;0.2323;1.0;13.37;-19.56;-43.18;243.68;-15.5;-4.53;0.0;990.03;57.06;35.958385;-83.92443;778.71;NaN;;;220.64517;;0 / 18;55009;2022-10-23 22:43:37:142
0.1376;1.1815;9.7355;0.2942;2.4034;9.503;1.6861;-0.568;-1.0958;-0.6327;0.5727;-1.3894;1.0;9.49;-28.88;-36.81;204.42;-21.19;4.44;0.0;990.07;71.988;35.958385;-83.92443;778.71;NaN;;;220.64517;;0 / 18;55508;2022-10-23 22:43:37:641
2.1667;2.7867;11.4209;0.2309;1.9173;9.6146;-2.2059;1.4993;1.9404;0.948;0.2671;2.3088;1.0;-0.79;-31.33;-30.47;179.35;-11.27;-1.38;0.0;990.07;70.894;35.958385;-83.92443;778.71;NaN;;;220.64517;;0 / 18;56008;2022-10-23 22:43:38:141
1.6866;2.8107;7.9089;-0.4968;3.6678;9.0813;3.8472;-0.7476;2.5718;-0.735;-0.0863;-0.1638;1.0;-13.89;-24.96;-22.41;136.7;-26.33;5.15;0.0;990.07;69.587;35.958385;-83.92443;778.71;NaN;;;220.64517;;0 / 18;56509;2022-10-23 22:43:38:642
3.0909;3.3541;16.5275;0.931;3.3406;9.173;-1.2799;1.8373;-0.5823;-0.6239;-0.7604;1.4214;1.0;-15.9;-21.26;-16.76;133.4;-19.92;-5.8;0.0;990.12;70.152;35.958385;-83.92443;778.71;NaN;;;220.64517;;0 / 18;57008;2022-10-23 22:43:39:141
2.5283;2.1691;12.411;-0.4429;3.0737;9.302;1.4761;-0.6356;0.5705;-0.3044;0.4817;0.2264;1.0;-19.76;-16.99;-15.38;117.47;-21.27;0.0;0.0;989.96;69.305;35.958385;-83.92443;778.71;NaN;;;220.64517;;0 / 18;57509;2022-10-23 22:43:39:642
-1.3609;2.3378;10.9496;0.5148;2.3452;9.5082;-0.7005;0.5882;0.7239;-0.0029;0.2008;-1.0728;2.0;-19.97;-14.79;-13.2;121.79;-12.26;-6.17;0.0;989.96;68.609;35.958385;-83.92443;778.71;NaN;;;220.64517;;0 / 18;58009;2022-10-23 22:43:40:142
1.4402;2.7592;11.8244;-0.8034;2.8523;9.3482;1.8085;-0.6166;0.2431;-0.3981;-0.2333;-0.2342;2.0;-12.99;-19.2;-13.59;136.71;-15.51;4.07;0.0;989.94;63.911;35.958385;-83.92443;778.71;NaN;;;220.64517;;0 / 18;58508;2022-10-23 22:43:40:641
-2.2158;5.7733;8.0297;0.414;3.4253;9.1797;-2.1334;1.3875;0.1707;4.0E-4;0.1141;-0.1121;2.0;3.3;-27.88;-17.85;189.34;-20.44;-0.91;0.0;989.87;67.875;35.958385;-83.92443;778.71;NaN;;;220.64517;;0 / 18;59010;2022-10-23 22:43:41:143
-0.7277;2.2205;8.4847;-1.2414;2.6492;9.3601;-0.3911;-0.6707;-0.737;0.4774;-0.2371;-0.4736;4.0;29.89;-32.93;-16.2;226.97;-18.13;10.74;0.0;989.96;67.873;35.958385;-83.92443;778.71;NaN;;;220.64517;;0 / 18;59510;2022-10-23 22:43:41:643
-2.3976;0.5231;7.9567;-1.331;1.5698;9.5883;1.8929;1.5345;-0.8222;0.7851;-0.9311;-1.7658;7.0;54.88;-20.68;-19.46;251.81;-8.27;9.92;0.0;989.88;67.457;35.958385;-83.92443;778.71;NaN;;;220.64517;;0 / 18;60008;2022-10-23 22:43:42:141
-1.0487;0.935;10.2239;-2.1735;1.8885;9.3744;0.7289;-3.166;4.7336;-0.3521;1.33;0.1578;8.0;57.02;12.32;-25.35;290.8;-11.1;13.05;0.0;989.86;65.235;35.958385;-83.92443;778.71;NaN;;;220.64517;;0 / 18;60508;2022-10-23 22:43:42:641
0.5973;1.6436;8.8738;-0.6056;1.7806;9.6246;3.52;-1.5342;2.0309;0.0134;0.3546;-0.8414;11.0;52.28;4.99;-20.96;280.44;-10.46;3.6;0.0;989.84;72.645;35.958385;-83.92443;778.71;NaN;;;220.64517;;0 / 18;61009;2022-10-23 22:43:43:142
0.5686;5.0599;7.3415;0.8384;4.9868;8.4024;0.2861;-0.3043;0.5845;0.8204;-0.0364;-1.1161;15.0;39.21;4.97;-30.07;291.75;-16.65;5.31;0.0;989.84;72.158;35.958385;-83.92443;778.71;NaN;;;220.64517;;0 / 18;61509;2022-10-23 22:43:43:642
2.2481;3.6488;11.9716;0.5858;2.563;9.4477;2.7644;0.2925;1.8294;0.1762;-0.3255;-0.9811;8.0;12.32;0.15;-28.09;297.41;-15.15;-3.55;0.0;989.84;68.974;35.958385;-83.92443;778.71;NaN;;;220.64517;;0 / 18;62008;2022-10-23 22:43:44:141
1.8601;2.193;12.6541;2.0164;3.4278;8.9641;-1.0382;0.6624;-0.9454;0.1939;-1.383;0.0676;0.0;3.99;0.19;-22.82;322.19;-19.0;-4.31;0.0;989.87;69.076;35.958385;-83.92443;778.71;NaN;;;220.64517;;0 / 18;62508;2022-10-23 22:43:44:641
1.7728;3.5097;8.3183;1.1766;2.7325;9.3445;0.0869;-0.9653;-0.2864;0.587;0.4439;0.3244;0.0;0.64;-3.54;-22.61;302.71;-16.18;-7.18;0.0;989.89;64.813;35.958385;-83.92443;778.71;NaN;;;220.64517;;0 / 18;63008;2022-10-23 22:43:45:141
1.6244;2.6157;7.7234;1.5221;2.2832;9.4149;1.6273;0.2472;-2.4913;0.7536;-0.2085;-0.5982;0.0;-0.11;-4.61;-22.07;231.45;-7.52;-6.88;0.0;989.81;67.605;35.958385;-83.92443;778.71;NaN;;;220.64517;;0 / 18;63508;2022-10-23 22:43:45:641
1.7249;2.2612;8.1724;2.2338;2.4148;9.2385;-1.2578;-0.2293;0.4038;1.1306;-0.4474;0.3906;0.0;-8.44;-7.35;-19.12;118.19;-14.25;-13.59;0.0;989.78;69.215;35.958385;-83.92443;778.71;NaN;;;220.64517;;0 / 18;64008;2022-10-23 22:43:46:141
1.6125;2.3904;9.07;0.8943;2.5752;9.4201;1.3013;-0.4304;1.7459;0.3079;-0.1087;-0.3428;0.0;-9.64;-7.01;-14.59;98.53;-19.6;-4.26;0.0;989.72;68.761;35.958385;-83.92443;778.71;NaN;;;220.64517;;0 / 18;64509;2022-10-23 22:43:46:642
1.2772;5.1688;9.58;0.4602;4.1707;8.8636;-0.3935;1.0548;0.6215;0.0893;0.1333;0.213;0.0;-2.96;-2.14;-11.89;37.02;-23.84;-3.21;0.0;989.72;66.389;35.958385;-83.92443;778.71;NaN;;;220.64517;;0 / 18;65008;2022-10-23 22:43:47:141
-1.4198;4.4231;9.9308;-1.5489;3.7784;8.916;0.366;-0.2763;-3.0229;-0.2604;-0.0857;-0.0158;0.0;3.3;3.39;-9.77;341.95;-20.75;5.12;0.0;989.76;64.763;35.958385;-83.92443;778.71;NaN;;;220.64517;;0 / 18;65509;2022-10-23 22:43:47:642
0.268;2.3294;8.152;0.5359;2.7655;9.3934;-0.3703;-0.4945;-1.9333;-0.0474;0.0396;-0.3544;1.0;14.23;8.93;-7.42;305.63;-15.23;-3.3;0.0;989.77;72.347;35.958385;-83.92443;778.71;NaN;;;220.64517;;0 / 18;66008;2022-10-23 22:43:48:141
-0.8489;0.7181;7.6277;0.1972;1.6017;9.673;-1.0358;-0.8741;3.0909;0.8323;0.5379;0.5091;1.0;17.36;13.52;-4.46;309.66;-13.84;-3.78;0.0;989.74;70.162;35.958385;-83.92443;778.71;NaN;;;220.64517;;0 / 18;66508;2022-10-23 22:43:48:641
1.8218;0.14;10.1904;1.4745;0.892;9.654;2.3349;-0.384;5.4067;-0.2208;0.3509;-0.4051;1.0;18.32;9.13;-4.71;296.29;-5.22;-8.68;0.0;989.66;67.895;35.958385;-83.92443;778.71;NaN;;;220.64517;;0 / 18;67009;2022-10-23 22:43:49:142
1.4174;1.3956;8.8881;1.7611;1.6586;9.5036;1.487;1.5453;-2.2148;0.2907;-0.4914;-0.7189;2.0;10.48;9.54;-6.21;313.89;-4.19;-7.73;0.0;989.69;42.055;35.958385;-83.92443;778.71;NaN;;;220.64517;;0 / 18;67508;2022-10-23 22:43:49:641
-0.7313;-0.7552;9.8686;-1.5632;-0.7646;9.651;0.4744;-1.0167;-1.7115;0.6565;0.2396;-0.2569;4.0;2.53;6.92;-0.88;337.8;4.47;9.2;0.0;989.69;66.908;35.958385;-83.92443;778.71;NaN;;;220.64517;;0 / 18;68008;2022-10-23 22:43:50:141
-0.5267;3.1531;9.7271;-1.2491;1.9514;9.529;0.1523;0.5573;-0.2573;0.2672;-0.789;-0.2216;6.0;-4.16;6.53;-2.7;32.06;-9.13;12.02;0.0;989.69;69.861;35.958385;-83.92443;778.71;NaN;;;220.64517;;0 / 18;68509;2022-10-23 22:43:50:642
-1.1803;1.7309;10.3196;-1.1304;1.4833;9.6277;0.7468;0.4843;-0.566;0.2312;-0.053;-0.5995;5.0;-21.15;2.34;0.17;85.6;-8.7;6.7;0.0;989.63;70.741;35.958385;-83.92443;778.71;NaN;;;220.64517;;0 / 18;69009;2022-10-23 22:43:51:142
-0.7935;1.2808;8.7182;-0.8769;1.5067;9.6505;0.183;-1.07;-1.0766;0.3432;0.1855;-0.4746;5.0;-30.41;-12.3;3.34;112.8;-6.47;3.97;0.0;989.68;68.419;35.958385;-83.92443;778.71;NaN;;;220.64517;;0 / 18;69508;2022-10-23 22:43:51:641
1.2461;2.2397;8.9444;-0.8414;2.3546;9.4825;1.7728;-0.6872;-1.439;0.7894;-0.5837;-0.183;6.0;-26.63;-38.85;1.74;146.28;-9.88;9.03;0.0;989.75;67.775;35.958385;-83.92443;778.71;NaN;;;220.64517;;0 / 18;70009;2022-10-23 22:43:52:142
-0.4454;2.2038;9.6936;-1.343;1.7577;9.5539;-1.2626;0.7428;3.8677;0.5269;-0.0031;0.2399;5.0;-6.73;-46.95;5.33;172.79;-14.65;10.67;0.0;989.66;69.214;35.958385;-83.92443;778.71;NaN;;;220.64517;;0 / 18;70509;2022-10-23 22:43:52:642
-1.5287;2.3509;10.7243;-2.2328;3.0596;9.0456;0.1224;0.1461;-2.0583;0.1742;-0.2701;-0.803;6.0;20.34;-36.58;-0.84;209.99;-18.54;13.65;0.0;989.62;66.019;35.958385;-83.92443;778.71;NaN;;;220.64517;;0 / 18;71008;2022-10-23 22:43:53:141
-3.3003;2.4084;9.1549;-2.4951;1.2093;9.4065;-0.1978;-0.124;-1.7855;0.1597;-0.5101;-0.4426;6.0;32.01;-22.69;-11.12;236.05;-10.29;12.12;0.0;989.6;56.911;35.958385;-83.92443;778.71;NaN;;;220.64517;;0 / 18;71508;2022-10-23 22:43:53:641
-1.0786;3.9981;6.5288;-2.8609;2.3437;9.0825;0.753;-1.5548;1.8736;0.106;0.7394;-0.5786;3.0;40.03;-7.26;-24.88;273.31;-13.83;17.48;0.0;989.63;68.912;35.958385;-83.92443;778.71;NaN;;;220.64517;;0 / 18;72009;2022-10-23 22:43:54:142
0.0191;0.3293;8.0895;-0.8333;1.3302;9.6802;-0.9528;-1.1459;2.5058;0.0233;-0.1138;-0.8012;3.0;41.63;-11.04;-27.39;269.74;-17.02;12.4;0.0;989.7;69.764;35.958385;-83.92443;778.71;NaN;;;220.64517;;0 / 18;72509;2022-10-23 22:43:54:642
-0.6188;0.5973;7.9412;0.0729;1.5623;9.6811;-1.9872;0.6184;2.9654;0.7864;0.3459;0.5584;1.0;34.35;-2.06;-37.37;276.46;-9.17;-0.43;0.0;989.69;70.262;35.958385;-83.92443;778.71;NaN;;;220.64517;;0 / 18;73009;2022-10-23 22:43:55:142
0.1735;2.0267;12.1262;-0.9329;2.3418;9.4771;1.0571;0.6613;2.8027;-0.5397;-0.8831;0.0555;1.0;32.61;-2.94;-35.62;287.59;-17.18;7.31;0.0;989.61;64.124;35.958385;-83.92443;778.71;NaN;;;220.64517;;0 / 18;73510;2022-10-23 22:43:55:643
-2.0602;4.7991;9.0341;-0.6594;2.5993;9.4329;-1.4298;0.3361;-0.5995;0.0089;-0.4618;0.2316;1.0;28.05;-1.88;-33.24;285.93;-15.37;4.0;0.0;989.51;70.235;35.958385;-83.92443;778.71;NaN;;;220.64517;;0 / 18;74009;2022-10-23 22:43:56:142
-0.9242;2.467;8.6856;-0.6403;3.0177;9.3088;-0.5583;-1.1342;-2.4305;0.0627;0.6765;0.4685;1.0;21.56;-3.22;-33.56;288.31;-17.03;0.62;0.0;989.55;69.363;35.958385;-83.92443;778.71;NaN;;;220.64517;;0 / 18;74508;2022-10-23 22:43:56:641
-1.7501;2.6767;7.3606;-1.4582;2.3497;9.4087;0.1955;-0.7715;-2.9678;0.0293;-0.0124;-0.5078;1.0;19.82;-4.29;-28.74;283.64;-13.86;8.81;0.0;989.49;66.905;35.958385;-83.92443;778.71;NaN;;;220.64517;;0 / 18;75008;2022-10-23 22:43:57:141
-0.5853;1.3454;7.0002;-0.0628;1.526;9.687;-0.2213;-0.9896;3.081;0.0223;-0.3381;1.3618;1.0;17.89;-2.03;-26.06;280.24;-10.59;3.17;0.0;989.56;69.825;35.958385;-83.92443;778.71;NaN;;;220.64517;;0 / 18;75509;2022-10-23 22:43:57:642
0.486;1.6137;10.0122;-0.3909;0.5516;9.7833;-0.6426;-0.6354;3.2381;-0.8718;0.0376;-0.1495;1.0;18.62;0.58;-22.07;288.11;-12.63;2.16;0.0;989.55;68.857;35.958385;-83.92443;778.71;NaN;;;220.64517;;0 / 18;76010;2022-10-23 22:43:58:143
-0.0431;2.758;11.9082;0.5319;1.8957;9.607;-1.0329;1.4742;0.5174;-0.0819;0.5327;0.6276;1.0;19.73;2.72;-24.54;289.33;-9.68;-0.7;0.0;989.52;67.693;35.958385;-83.92443;778.71;NaN;;;220.64517;;0 / 18;76509;2022-10-23 22:43:58:642
-0.7409;2.7317;9.7666;-1.3165;3.176;9.1842;1.4232;0.4443;0.035;-0.3699;0.9448;-0.0457;1.0;27.6;4.93;-21.41;295.6;-21.63;2.87;0.0;989.46;69.647;35.958385;-83.92443;778.71;NaN;;;220.64517;;0 / 18;77008;2022-10-23 22:43:59:141
-1.3777;3.122;9.3048;-0.3328;1.3516;9.7074;0.023;0.4692;-1.5194;-0.2831;-0.1989;-0.5365;2.0;37.71;6.11;-22.44;285.09;-9.04;4.09;0.0;989.4;57.476;35.958385;-83.92443;778.71;NaN;;;220.64517;;0 / 18;77508;2022-10-23 22:43:59:641
-1.7142;2.4407;5.8295;-2.1931;1.7707;9.3928;1.1362;-0.8463;-3.196;0.762;0.2199;-0.1095;4.0;51.41;9.92;-28.11;286.23;-4.5;11.52;0.0;989.4;69.85;35.958385;-83.92443;778.71;NaN;;;220.64517;;0 / 18;78009;2022-10-23 22:44:00:142
1.5526;-0.3269;10.3041;-0.5944;0.4852;9.7766;0.9048;0.6609;3.7499;0.7064;-0.6544;0.2407;6.0;54.13;-4.2;-36.92;274.13;-9.45;8.94;0.0;989.46;70.904;35.958385;-83.92443;778.71;NaN;;;220.64517;;0 / 18;78508;2022-10-23 22:44:00:641
0.6775;2.3701;7.1309;0.1981;1.4416;9.6981;0.2241;-0.3153;-2.1609;0.631;0.1804;0.0737;11.0;32.81;0.04;-63.62;285.18;-8.45;-1.17;0.0;989.38;67.476;35.958385;-83.92443;778.71;NaN;;;220.64517;;0 / 18;79009;2022-10-23 22:44:01:142
-0.0144;3.4032;7.1106;-1.3735;3.1116;9.1979;1.332;-0.197;-1.5698;0.6423;0.0906;-0.8815;11.0;23.53;-6.24;-68.91;305.15;-14.97;5.11;0.0;989.42;66.386;35.958385;-83.92443;778.71;NaN;;;220.64517;;0 / 18;79509;2022-10-23 22:44:01:642
0.14;3.5157;7.9137;0.0896;3.1325;9.2925;1.3267;-0.2812;-0.1705;0.2028;-0.4529;-1.0218;12.0;21.94;-23.91;-55.56;257.68;-18.63;-0.55;0.0;989.47;70.98;35.958385;-83.92443;778.71;NaN;;;220.64517;;0 / 18;80008;2022-10-23 22:44:02:141
1.4028;2.8621;9.3048;-0.5012;3.8207;9.0179;2.0311;-0.0725;0.5336;-0.0872;-0.1186;-0.1946;12.0;25.88;-21.02;-43.5;263.58;-22.44;0.85;0.0;989.35;66.641;35.958385;-83.92443;778.71;NaN;;;220.64517;;0 / 18;80508;2022-10-23 22:44:02:641
-1.1958;1.3753;8.123;-0.1953;2.2138;9.5515;0.2313;-0.2132;1.036;0.0089;0.8023;-1.2688;4.0;13.16;-7.97;-36.37;271.83;-13.05;1.17;0.0;989.37;70.231;35.958385;-83.92443;778.71;NaN;;;220.64517;;0 / 18;81009;2022-10-23 22:44:03:142
-4.0125;0.0275;11.962;-2.126;1.0723;9.5132;-2.0686;0.3875;1.3272;-0.6278;0.2304;-0.6182;3.0;0.38;-2.68;-38.42;51.38;-10.06;11.72;0.0;989.42;58.022;35.958385;-83.92443;778.71;NaN;;;220.64517;;0 / 18;81508;2022-10-23 22:44:03:641
-5.6752;1.6161;5.5232;-4.8463;3.1553;7.9201;2.1098;-1.5753;1.8678;-0.6265;-0.0944;-0.8546;2.0;-0.36;-3.66;-41.49;70.77;-18.77;31.46;0.0;989.35;72.908;35.958385;-83.92443;778.71;NaN;;;220.64517;;0 / 18;82008;2022-10-23 22:44:04:141
-1.2317;4.3406;9.9918;-0.5125;0.5617;9.7771;-3.0902;1.448;-0.4298;0.0733;-0.1959;1.2799;1.0;4.31;1.13;-41.61;56.5;-5.08;15.09;0.0;989.32;69.77;35.958385;-83.92443;778.71;NaN;;;220.64517;;0 / 18;82509;2022-10-23 22:44:04:642
3.2201;0.4561;9.5728;-2.5297;3.3308;8.87;0.878;-4.1068;-2.7048;-0.026;0.2541;0.5646;1.0;-10.46;4.43;-41.47;43.41;-21.48;9.92;0.0;989.43;68.631;35.958385;-83.92443;778.71;NaN;;;220.64517;;0 / 18;83009;2022-10-23 22:44:05:142
-2.4132;0.2441;8.4535;-0.3538;-0.8515;9.7632;-1.6314;1.1283;-0.7755;0.503;-0.7372;-0.3016;1.0;-4.26;8.74;-37.41;51.89;5.91;4.06;0.0;989.33;67.763;35.958385;-83.92443;778.71;NaN;;;220.64517;;0 / 18;83508;2022-10-23 22:44:05:641
0.9733;-1.2903;3.8557;0.1647;3.9723;8.9646;0.8407;-5.5652;-1.1054;2.2037;0.8362;1.2538;2.0;-17.64;9.56;-32.46;48.89;-6.56;-4.0;0.0;989.3;67.757;35.958385;-83.92443;778.71;NaN;;;220.64517;;0 / 18;84008;2022-10-23 22:44:06:141
-2.0734;0.3915;9.7211;-0.6692;-1.0284;9.7296;0.6848;0.7017;3.6963;-0.3899;0.1839;-2.0776;2.0;-8.33;9.99;-32.85;47.52;-6.91;12.31;0.0;989.27;69.668;35.958385;-83.92443;778.71;NaN;;;220.64517;;0 / 18;84509;2022-10-23 22:44:06:642
0.0335;-0.3377;7.8706;-1.6179;0.0311;9.6722;2.1668;-0.609;0.7964;0.7269;0.587;-0.1475;3.0;-14.33;13.07;-32.53;55.78;-0.18;9.5;0.0;989.26;68.831;35.958385;-83.92443;778.71;NaN;;;220.64517;;0 / 18;85008;2022-10-23 22:44:07:141
-0.7265;-0.1244;8.2896;-0.5693;-0.2367;9.7872;1.0313;0.5773;-0.0315;0.3444;-0.5408;-0.5389;3.0;-4.14;9.86;-38.21;49.47;3.54;7.61;0.0;989.23;67.868;35.958385;-83.92443;778.71;NaN;;;220.64517;;0 / 18;85508;2022-10-23 22:44:07:641
-0.7445;-0.382;13.3268;-0.2588;-0.6232;9.7834;-1.8425;1.3013;2.9738;0.8388;-0.1177;1.0875;4.0;-10.11;12.39;-38.87;49.21;3.64;1.52;0.0;989.33;66.496;35.958385;-83.92443;778.71;NaN;;;220.64517;;0 / 18;86009;2022-10-23 22:44:08:142
-3.4235;3.0763;8.5971;-2.4608;1.7641;9.3275;0.0277;0.799;-0.7172;0.0804;0.1452;-0.2409;4.0;-6.45;8.49;-40.99;45.21;-10.36;12.79;0.0;989.24;67.319;35.958385;-83.92443;778.71;NaN;;;220.64517;;0 / 18;86508;2022-10-23 22:44:08:641
-0.3197;1.1097;8.2813;-1.3291;1.957;9.517;-0.4391;-1.3073;1.3949;-0.3517;0.4897;-1.7824;4.0;3.09;-4.87;-41.21;39.4;-11.51;7.95;0.0;989.18;61.926;35.958385;-83.92443;778.71;NaN;;;220.64517;;0 / 18;87009;2022-10-23 22:44:09:142
-0.9051;-1.0678;17.0471;-1.7098;1.039;9.6004;0.8751;0.7545;2.6638;0.7816;0.615;-0.3241;6.0;4.61;-13.99;-37.12;179.49;-10.33;7.79;0.0;989.21;58.005;35.958385;-83.92443;778.71;NaN;;;220.64517;;0 / 18;87509;2022-10-23 22:44:09:642
-2.557;3.1077;9.0461;-0.7474;2.3183;9.4993;-1.2592;0.7997;-0.1215;0.6676;0.2415;-0.362;8.0;1.26;-27.86;-26.29;178.91;-8.53;3.2;0.0;989.18;60.929;35.958385;-83.92443;778.71;NaN;;;220.64517;;0 / 18;88009;2022-10-23 22:44:10:142
1.847;1.3669;7.0962;0.5633;0.7607;9.7609;0.9738;-2.8067;-2.4364;-0.0385;-0.2532;-1.1886;9.0;-2.23;-32.59;-22.16;178.46;-2.21;-2.95;0.0;989.1;71.765;35.958385;-83.92443;778.71;NaN;;;220.64517;;0 / 18;88508;2022-10-23 22:44:10:641
0.7552;0.6631;12.8073;-0.9293;2.836;9.3415;-0.0386;0.3119;2.4904;1.7541;0.4293;-0.8732;10.0;19.43;-32.31;-24.43;215.49;-16.81;5.68;0.0;989.15;70.349;35.958385;-83.92443;778.71;NaN;;;220.64517;;0 / 18;89011;2022-10-23 22:44:11:144
-0.0682;4.0735;9.2195;-2.3177;4.165;8.5704;-0.126;1.3391;-0.6977;0.1488;-1.0885;-0.0437;7.0;35.33;-30.3;-11.85;243.29;-30.52;14.01;0.0;989.04;68.758;35.958385;-83.92443;778.71;NaN;;;220.64517;;0 / 18;89509;2022-10-23 22:44:11:642
-1.9307;4.1824;9.064;0.2403;2.9289;9.356;-0.4616;0.2373;-0.9915;0.3277;-0.4061;-0.7199;3.0;42.04;-16.93;-15.58;253.92;-15.26;0.72;0.0;989.1;66.105;35.958385;-83.92443;778.71;NaN;;;220.64517;;0 / 18;90008;2022-10-23 22:44:12:141
-0.2874;2.6348;8.377;-0.1034;4.3073;8.8095;-0.4308;-1.0518;-1.5782;0.4837;0.6625;0.2068;2.0;36.0;-15.81;-18.36;254.98;-17.5;1.86;0.0;989.06;67.905;35.958385;-83.92443;778.71;NaN;;;220.64517;;0 / 18;90508;2022-10-23 22:44:12:641
1.252;1.6842;7.818;0.6369;2.5172;9.4567;-0.5681;-0.3658;-1.7677;-0.5488;-0.0948;-1.433;4.0;22.93;-19.22;-15.13;238.09;-14.87;-3.85;0.0;989.05;67.217;35.958385;-83.92443;778.71;NaN;;;220.64517;;0 / 18;91008;2022-10-23 22:44:13:141
0.7851;2.0961;8.554;0.1706;4.9245;8.4788;0.3296;-2.4097;1.6251;1.9874;-0.2853;0.9176;5.0;24.43;-11.42;-22.56;260.24;-16.14;0.97;0.0;989.03;66.873;35.958385;-83.92443;778.71;NaN;;;220.64517;;0 / 18;91509;2022-10-23 22:44:13:642
0.5375;3.8031;8.7087;-0.5766;2.4205;9.4857;0.9236;0.2241;1.4483;-0.6934;-0.4653;-0.8437;9.0;15.11;-27.86;-16.46;211.37;-14.29;3.48;0.0;989.01;67.769;35.958385;-83.92443;778.71;NaN;;;220.64517;;0 / 18;92009;2022-10-23 22:44:14:142
-2.7712;1.0008;10.0146;-0.1921;1.63;9.6683;-1.7077;0.353;0.4947;0.2384;0.1593;0.4341;9.0;12.51;-25.28;-26.61;212.24;-7.02;-1.26;0.0;989.09;70.956;35.958385;-83.92443;778.71;NaN;;;220.64517;;0 / 18;92508;2022-10-23 22:44:14:641
0.7433;1.8685;6.8818;-0.0553;1.7579;9.6476;0.7219;-1.4241;1.2806;-0.0895;-0.2895;-0.4134;9.0;-19.99;-29.64;-26.46;140.99;-10.33;0.33;0.0;988.96;71.648;35.958385;-83.92443;778.71;NaN;;;220.64517;;0 / 18;93008;2022-10-23 22:44:15:141
-2.2935;0.8378;11.9513;-0.1945;2.4889;9.4836;0.198;1.9386;1.5588;1.8312;0.4198;0.7488;8.0;-27.69;-11.25;-24.13;109.75;-1.61;2.01;0.0;988.92;67.772;35.958385;-83.92443;778.71;NaN;;;220.64517;;0 / 18;93508;2022-10-23 22:44:15:641
-3.457;0.1172;11.8508;-1.5513;0.7792;9.6518;0.3878;-0.6997;2.4457;-2.8113;0.1651;-2.348;3.0;3.08;-12.11;-20.72;238.9;-28.96;7.1;0.0;989.11;71.32;35.958385;-83.92443;778.71;NaN;;;220.64517;;0 / 18;94008;2022-10-23 22:44:16:141
-4.1046;1.3095;10.7901;-0.9766;1.4562;9.6486;1.0581;1.0425;0.1133;0.5799;0.3944;-0.2862;4.0;12.68;-4.69;-26.04;238.51;-6.34;6.69;0.0;988.97;70.502;35.958385;-83.92443;778.71;NaN;;;220.64517;;0 / 18;94508;2022-10-23 22:44:16:641
-1.5251;5.2932;7.0002;-1.8032;3.2948;9.0589;0.1128;1.3937;-3.4912;-0.391;-0.2062;-0.0221;5.0;33.56;-10.37;-25.65;275.38;-21.42;12.29;0.0;988.92;31.426;35.958385;-83.92443;778.71;NaN;;;220.64517;;0 / 18;95010;2022-10-23 22:44:17:143
2.4969;0.6523;9.926;1.0896;1.7336;9.5905;1.6741;-3.1674;3.242;0.1409;0.1655;-0.7114;8.0;29.19;-10.24;-35.68;260.66;-12.96;-2.18;0.0;988.95;37.726;35.95835;-83.92443;772.58;NaN;;0.0;247.22632;;0 / 18;95508;2022-10-23 22:44:17:641
0.4095;4.5452;9.2363;-0.0473;3.2474;9.2533;0.527;0.7476;-0.2149;0.1201;-0.0582;-0.7614;11.0;23.46;-2.29;-40.33;293.61;-18.15;-1.17;0.0;988.87;33.059;35.95835;-83.92443;772.58;NaN;;0.0;247.22632;;0 / 18;96009;2022-10-23 22:44:18:142
-1.5168;4.2197;7.3104;-1.0076;3.97;8.9103;-0.3029;0.1553;-0.4961;0.2605;0.0429;-0.3153;11.0;23.06;-3.41;-36.99;304.96;-24.25;5.87;0.0;988.85;64.541;35.95835;-83.92443;772.58;NaN;;0.0;247.22632;;6 / 18;96510;2022-10-23 22:44:18:643
-0.7002;1.6651;6.7131;0.0499;3.3447;9.2185;2.5078;0.0256;0.3041;-0.7279;-0.6009;-1.3493;13.0;19.22;3.04;-32.25;305.55;-19.94;-0.31;0.0;988.85;69.535;35.95835;-83.92443;772.58;NaN;;0.0;247.22632;;6 / 18;97009;2022-10-23 22:44:19:142
0.577;1.2173;9.7822;0.3208;1.7037;9.6522;0.6375;-0.0179;0.2947;0.0612;-0.2713;-1.0568;13.0;10.91;15.81;-22.01;327.35;-8.59;-3.12;0.0;988.87;68.385;35.95835;-83.92443;772.58;NaN;;0.0;247.22632;;0 / 18;97508;2022-10-23 22:44:19:641
-0.6978;0.8931;8.3423;0.0299;1.3221;9.7171;-0.8616;-2.7606;0.8148;-0.7379;0.0868;-1.8976;2.0;-9.79;9.19;0.3;48.26;-7.75;-0.18;0.0;988.88;70.403;35.95835;-83.92443;772.58;NaN;;0.0;247.22632;;0 / 18;98009;2022-10-23 22:44:20:142
0.5973;2.0447;9.0305;-1.7129;1.9462;9.4577;-0.092;-0.273;1.4644;-0.2747;0.8415;-0.401;2.0;-15.56;-3.54;7.71;109.2;-11.26;0.85;0.0;988.88;68.682;35.95835;-83.92443;772.58;NaN;;0.0;247.22632;;0 / 18;98508;2022-10-23 22:44:20:641
-0.0156;0.4011;11.7754;-1.4602;2.8635;9.2649;0.2492;-0.5443;2.209;-0.5738;-1.0053;-0.5287;2.0;-26.49;-17.01;5.59;127.76;-16.98;8.96;0.0;988.85;71.085;35.95835;-83.92443;772.58;NaN;;0.0;247.22632;;0 / 18;99009;2022-10-23 22:44:21:142
-2.321;4.1357;11.1805;1.0512;1.8738;9.5684;-1.1247;2.9678;0.6081;-0.5091;0.5698;-0.0186;2.0;-28.67;-24.38;4.05;130.08;-15.25;1.0;0.0;988.92;70.623;35.95835;-83.92443;772.58;NaN;;0.0;247.22632;;0 / 18;99508;2022-10-23 22:44:21:641
-0.134;1.3848;13.4082;-1.6877;2.6701;9.284;1.7642;-0.3801;0.8798;-0.9818;-0.6454;0.0828;2.0;-28.54;-21.97;-0.99;127.7;-23.49;11.6;0.0;988.93;69.667;35.95835;-83.92443;772.58;NaN;;0.0;247.22632;;0 / 18;100009;2022-10-23 22:44:22:142
-2.0841;1.8685;9.1143;-1.0112;1.3278;9.6636;0.8076;0.9658;-1.7067;0.1758;-0.6615;0.1652;3.0;-24.28;-17.16;-6.26;124.27;-4.27;6.44;0.0;988.86;68.798;35.958344;-83.92444;764.69;NaN;;0.0;154.97812;;0 / 18;100509;2022-10-23 22:44:22:642
-2.6252;3.0909;8.365;-1.421;4.0396;8.8223;-0.1489;-2.0396;-2.3607;0.4767;0.5951;0.2888;5.0;-12.22;-16.12;-9.09;134.3;-19.32;5.83;0.0;988.85;65.71;35.958344;-83.92444;764.69;NaN;;0.0;154.97812;;0 / 18;101010;2022-10-23 22:44:23:143
0.2441;3.1747;8.377;-1.5898;2.9575;9.2139;-0.137;-2.5172;0.3878;-0.9424;-0.015;-0.3611;3.0;-7.82;-20.55;-7.88;149.77;-28.69;5.38;0.0;988.83;60.356;35.958344;-83.92444;764.69;NaN;;0.0;154.97812;;6 / 18;101509;2022-10-23 22:44:23:642
-1.4809;-0.3832;14.8735;0.0525;0.1105;9.8059;-2.4275;0.7896;3.7019;-1.1911;-0.3561;0.1665;8.0;-0.28;-17.14;-13.33;177.0;-7.0;3.54;0.0;988.84;69.711;35.958344;-83.92444;764.69;NaN;;0.0;154.97812;;6 / 18;102008;2022-10-23 22:44:24:141
-1.1384;0.9027;11.4401;-1.7407;1.5996;9.5174;-1.0931;-1.2637;-0.6848;-0.636;0.3403;-0.3031;11.0;-1.84;-14.44;-14.77;160.78;-9.59;7.59;0.0;988.81;68.974;35.958344;-83.92444;764.69;NaN;;0.0;154.97812;;7 / 18;102508;2022-10-23 22:44:24:641
-0.3209;0.6619;7.3068;-0.3996;0.7257;9.7716;0.6761;-0.6105;-1.3975;0.5773;-0.3283;-0.5079;14.0;-9.21;-12.64;-14.63;141.05;-4.24;2.34;0.0;988.82;67.058;35.958344;-83.92444;764.69;NaN;;0.0;154.97812;;7 / 18;103009;2022-10-23 22:44:25:142
-1.1886;-0.7098;9.6099;-1.3034;0.7837;9.688;0.3308;-1.9351;0.5383;-0.0348;1.3156;0.7961;13.0;-13.31;-16.39;-15.39;137.89;-6.24;-0.4;0.0;988.8;69.086;35.958363;-83.92447;755.61;NaN;;0.0;62.89906;;7 / 18;103508;2022-10-23 22:44:25:641
-2.9662;3.1747;7.5966;-3.9466;2.4182;8.6457;0.78;0.1576;-1.2699;0.171;-0.7092;-0.0531;22.0;-15.38;-13.26;-22.2;111.99;-14.28;24.54;0.0;988.79;70.661;35.958363;-83.92447;755.61;NaN;;0.0;62.89906;;7 / 18;104009;2022-10-23 22:44:26:142
-2.6539;1.3657;9.2737;-3.1572;1.8335;9.1017;0.5039;-0.4844;0.2788;0.2324;0.0051;-1.1055;23.0;-16.26;-11.46;-24.56;107.66;-10.62;19.27;0.0;988.78;68.807;35.958363;-83.9245;758.23;NaN;;0.0;45.333;;7 / 18;104508;2022-10-23 22:44:26:641
-2.4598;1.3896;8.9145;-3.261;2.9616;8.7616;1.08;0.1775;0.8318;0.5304;-0.744;-0.8105;37.0;-8.21;-18.19;-29.76;117.9;-17.58;20.41;0.0;988.82;70.352;35.958363;-83.9245;758.23;NaN;;0.0;45.333;;7 / 18;105008;2022-10-23 22:44:27:141
1.0439;4.3143;8.0979;-0.8028;2.6234;9.4151;-0.2781;0.7997;0.6186;0.4905;-0.2851;-0.3784;50.0;3.79;-28.76;-30.21;169.0;-22.98;13.1;2.0;988.76;66.987;35.958355;-83.92451;752.96;NaN;;0.0;42.97379;;7 / 18;105508;2022-10-23 22:44:27:641
0.8366;-0.0993;11.1601;0.2651;1.011;9.7508;1.346;0.3608;3.0253;-0.0851;-0.1708;0.5469;88.0;18.3;-22.95;-41.12;223.68;-5.28;-0.39;2.0;988.82;67.626;35.958355;-83.92451;752.96;NaN;;0.0;42.97379;;7 / 18;106009;2022-10-23 22:44:28:142
2.199;-2.0495;17.6961;-0.4651;1.762;9.6358;1.0293;-0.4693;-0.9109;-1.7134;-0.2518;-2.595;75.0;19.82;-27.13;-43.26;217.63;-9.7;6.94;2.0;988.74;67.753;35.958347;-83.9245;745.54;NaN;;0.0;40.32023;;7 / 18;106509;2022-10-23 22:44:28:642
-2.4646;1.8601;11.1972;-0.5985;0.7447;9.76;-1.3017;0.6451;-0.0557;0.227;-0.0291;-0.8579;42.0;29.61;-16.33;-41.14;242.98;-2.68;3.53;2.0;988.81;69.574;35.958347;-83.9245;745.54;NaN;;0.0;40.32023;;7 / 18;107009;2022-10-23 22:44:29:142
-3.5157;1.4091;10.1605;-2.8705;1.3564;9.2785;0.3328;-1.3464;-3.256;-0.1093;-0.2109;-0.3561;30.0;35.01;-16.8;-34.82;241.63;-4.96;15.36;2.0;988.68;71.384;35.95834;-83.924515;727.59;NaN;;0.0;35.981045;;7 / 18;107509;2022-10-23 22:44:29:642
-0.1938;-0.352;10.0947;-2.5719;-0.229;9.4606;1.7962;0.1747;-1.2267;0.4297;-0.391;-0.419;15.0;37.41;-11.76;-31.95;243.43;1.66;16.53;2.0;988.76;69.584;35.95834;-83.924515;727.59;NaN;;0.0;35.981045;;7 / 18;108009;2022-10-23 22:44:30:142
-2.412;0.8019;8.3746;-2.8372;0.5319;9.3722;-2.3852;0.1923;0.6952;0.5892;0.1746;1.0848;17.0;26.78;-8.76;-35.18;262.26;-5.33;13.59;2.0;988.64;69.891;35.958305;-83.92452;699.25;NaN;;0.0;31.921135;;7 / 18;108508;2022-10-23 22:44:30:641
-3.0153;0.6248;7.8694;-3.3018;0.9509;9.185;0.5294;-1.6614;1.922;-0.47;-0.8605;-0.3308;12.0;12.62;-6.26;-28.69;219.89;-5.56;19.77;2.0;988.66;69.634;35.958305;-83.92452;699.25;NaN;;0.0;31.921135;;7 / 18;109009;2022-10-23 22:44:31:142
-3.8103;-2.0638;10.5425;-3.4966;0.1866;9.1602;-3.5807;-0.2155;2.7833;0.3614;0.0232;-0.506;10.0;8.93;13.99;-23.17;350.38;-2.28;16.12;2.0;988.64;71.004;35.9583;-83.92454;666.89;NaN;;0.0;28.245018;;7 / 18;109509;2022-10-23 22:44:31:642
-5.2418;1.4067;9.5142;-4.9781;1.747;8.2666;-0.0394;-0.2185;-1.4389;-0.9305;-0.4537;0.1144;9.0;31.37;21.15;-12.67;322.1;-10.26;31.06;2.0;988.65;66.12;35.9583;-83.92454;666.89;NaN;;0.0;28.245018;;7 / 18;110009;2022-10-23 22:44:32:142
-0.3173;1.0044;9.8181;-2.3707;0.1518;9.5146;0.3211;0.3883;-1.4984;0.0568;0.0014;0.5766;10.0;38.57;14.46;-8.76;290.99;0.99;14.02;2.0;988.53;66.917;35.958286;-83.924545;640.71;NaN;;0.0;27.515388;;7 / 18;110509;2022-10-23 22:44:32:642
-2.0806;-0.6739;7.168;-1.645;0.2159;9.6653;0.3999;-0.0627;-0.2171;0.6651;0.6927;0.1221;17.0;42.32;3.96;-13.42;276.45;-1.26;9.66;2.0;988.59;62.944;35.958286;-83.924545;640.71;NaN;;0.0;27.515388;;7 / 18;111009;2022-10-23 22:44:33:142
-0.6021;0.0658;7.7916;-1.5962;-0.6328;9.6552;-0.9402;-1.263;0.8952;0.3108;0.1277;0.2067;20.0;46.91;-3.17;-14.31;265.5;1.19;10.02;2.0;988.6;42.238;35.958286;-83.924545;640.71;NaN;;0.0;27.515388;;8 / 18;111508;2022-10-23 22:44:33:641
-2.3246;-0.9398;10.2275;-3.834;0.3194;9.0205;0.1284;-1.0914;3.6155;0.6945;1.6253;1.4427;35.0;52.07;4.22;-21.09;272.1;4.27;10.85;2.0;988.56;42.845;35.958286;-83.924545;640.71;NaN;;0.0;27.515388;;8 / 18;112009;2022-10-23 22:44:34:142
-5.7805;2.0913;13.8858;-3.6372;2.214;8.834;-0.4035;0.4705;-0.2464;-0.7759;1.0487;-0.5324;31.0;60.9;-0.84;-8.87;279.55;-15.83;26.07;2.0;988.57;70.867;35.958286;-83.924545;640.71;NaN;;0.0;27.515388;;9 / 18;112509;2022-10-23 22:44:34:642
-1.1492;1.628;10.3508;-1.0621;1.0278;9.6946;-0.3296;0.3475;-0.8736;0.0297;-0.7346;-1.2922;39.0;61.76;5.66;-13.07;278.99;-6.98;12.52;2.0;988.47;68.325;35.958286;-83.924545;640.71;NaN;;0.0;27.515388;;9 / 18;113009;2022-10-23 22:44:35:142
-0.8824;1.4833;7.1704;-1.2136;2.1558;9.4895;0.1686;-1.1819;-1.0546;-0.5072;-0.0462;0.323;44.0;51.9;12.98;-27.3;289.69;-7.96;6.46;2.0;988.5;71.258;35.958298;-83.92455;630.47;NaN;;0.0;21.737637;;9 / 18;113508;2022-10-23 22:44:35:641
0.8306;1.0439;13.183;0.0024;2.0446;9.5911;0.5346;0.6198;0.2596;0.4583;-0.5969;-0.7073;61.0;42.62;7.5;-29.19;287.83;-10.08;2.96;2.0;988.48;70.73;35.958298;-83.92455;630.47;NaN;;0.0;21.737637;;9 / 18;114010;2022-10-23 22:44:36:143
-0.1196;1.9669;9.4783;-0.872;1.4954;9.6527;0.5172;0.9076;-1.1473;-0.753;0.1507;-0.1583;76.0;32.42;14.21;-31.59;303.54;-9.75;4.2;2.0;988.55;71.168;35.958298;-83.92457;610.19;NaN;;0.0;22.211315;;10 / 18;114508;2022-10-23 22:44:36:641
-1.1515;2.4742;7.6947;-2.0207;2.6142;9.2333;1.4464;-1.8317;0.3789;0.2159;-0.3066;-0.9709;111.0;27.3;20.74;-29.16;325.48;-15.46;12.34;2.0;988.47;70.84;35.958298;-83.92457;610.19;NaN;;0.0;22.211315;;10 / 18;115010;2022-10-23 22:44:37:143
1.1779;0.7373;11.5421;-0.4397;2.4988;9.4728;1.1044;-1.5563;3.3222;-0.1219;-1.0704;-0.623;117.0;20.87;19.41;-35.61;332.91;-16.45;9.23;2.0;988.55;71.269;35.958286;-83.924576;638.13;NaN;;0.0;20.78748;;10 / 18;115509;2022-10-23 22:44:37:642
-0.923;2.9758;11.1793;-0.2032;2.3351;9.5224;-0.3896;0.0175;-0.8987;-0.1188;0.015;-0.5579;111.0;-2.03;17.81;-46.65;5.98;-13.78;1.22;2.0;988.51;68.027;35.958286;-83.924576;638.13;NaN;;0.0;20.78748;;10 / 18;116009;2022-10-23 22:44:38:142
-1.829;1.5897;8.7876;-0.5863;1.5941;9.6584;-0.3347;-0.5778;-0.9442;-0.0787;0.1639;0.2007;112.0;-9.88;18.66;-46.87;24.22;-8.72;1.99;2.0;988.45;68.95;35.95829;-83.92456;631.62;NaN;;0.0;18.64082;;10 / 18;116508;2022-10-23 22:44:38:641
0.0156;0.5925;8.1628;-0.3793;0.5249;9.7852;0.6011;-1.3506;1.5469;0.3502;0.0436;-0.3941;123.0;-4.74;21.02;-47.47;16.19;-3.07;2.22;2.0;988.45;68.814;35.95829;-83.92456;631.62;NaN;;0.0;18.64082;;10 / 18;117009;2022-10-23 22:44:39:142
-4.6098;2.3988;9.8842;-2.7759;2.4586;9.0786;-0.5382;0.8277;-0.3978;1.0E-4;1.238;0.1773;107.0;-7.2;14.55;-47.01;31.85;-11.88;9.79;2.0;988.51;68.076;35.95829;-83.92456;631.62;NaN;;0.0;18.64082;;10 / 18;117508;2022-10-23 22:44:39:641
-4.5368;3.0523;7.6002;-4.5535;3.3675;8.006;-0.1203;-0.9249;-0.7115;0.0728;0.336;0.605;43.0;2.14;5.46;-44.68;48.9;-17.3;27.97;2.0;988.48;70.084;35.95829;-83.92456;631.62;NaN;;0.0;18.64082;;10 / 18;118009;2022-10-23 22:44:40:142